"trial_type","trial_index","time_elapsed","internal_node_id","rt","stimulus","button_pressed","success","response","cat","value","key_press","correct","image_click","first_click_rt","first_click_val","symbol","all_click_rt","all_click_val","view_history"
"pavlovia","0","5","0.0-0.0","","","","","","","","","","","","","","","",""
"html-button-response","1","4876","0.0-1.0","4868","<div style='width: 700px; font-size: 150%'><font size='40'>  Welcome to our study!</font><br><br><br> <small> Our experiment is about <i>decision making</i>. You will choose and rate different food items, such as these: <br><br> <div><img src='food_combo2.png', height = '400px'></img></div>","0","","","","","","","","","","","","",""
"html-button-response","2","13303","0.0-2.0","8425","<div style='width: 700px; font-size: 150%'><br><br><br><small> <u><i>This is a multi-part study.</i></u><br><br> In the first part you will rate 24 food items twice.<br><br><div><img src=""rat1.png"" style=""width: 25%""></img></div><br>In the second part (longest) you will make repeated choices and judgements concerning the food items.<br><br><div><img src=""mainx.png"" style=""width: 50%""></img></div><br>In the third and final part, you will rate the items again and answer few short questionnaires.<br><br><div><img src=""rat2.png"" style=""width: 50%""></img></div><br><br>","0","","","","","","","","","","","","",""
"fullscreen","3","18146","0.0-3.0","","","","true","","","","","","","","","","","",""
"html-button-response","4","38098","0.0-4.0","19950","<div style='width: 900px; font-size: 150%;' <font size='20%'> In the first part of the task you will use the mouse to rate food items on <i>2 scales</i> </font></div><br><br><div style='width: 900px'><div style='float: left; width: 50%; margin-right:2.5em'><img src='heartS.png'></img><p class='small' style='text-align: justify'>When you see the heart cue you will rate food items in terms of how much like them/would like to eat them <i>right now</i>. You will rate them on a continuous scale from left (strong dislike) to right (strong liking). Before submitting your rating, try imagining how the item tastes and how much you desire it.<br><br></p></div><div ><img src='sizeS.png'></img><p class='small' style='text-align: justify'>When you see the size cue, you will rate the same food items in terms of their size. The scale goes from left (tiny) to right (very large). You should assess picture size <i><u>relative</i></u> to the white background. <b>Remember:</b> rate the size of the picture, <u>not</u> the size of the item in real life. </p></div><div style='width: 900px'><br><br><b><i>Notice:</b> by starting the rating you agree that your sumbission might be rejected at an early stage and the experiment might end, if your size ratings are not at least modestly related to objective sizes, or if you repeat the same value ratings too many times. If you don't agree, please exit by closing the browser window. </i><br><br><br>","0","","","","","","","","","","","","",""
"html-button-response","5","40785","0.0-5.0","2685","<div><img src='heartS.png'></img></div><br><div style='text-align: justify; width: 700px'>Using the mouse, rate the <b><i>likeness</b></i> of the food items (how much you like them/would like to eat them <i>right now</i>). Far right-end of the scale indicates an item you <i>like a lot</i>. Far left-end indicates an item you <i>dislike a lot</i>. Think about each answer.   <ul><li>Try <b><i>not</b></i> to give identical rating to different items.</li><li>Use the whole scale, and <b><i>not</b></i> just the extremes</ul></div><br>","0","","","","","","","","","","","","",""
"image-slider-response","6","46917","0.0-6.0-0.0-0.0","6127","pics2/SA6.jpg","","","67","SA","","","","","","","","","",""
"image-slider-response","7","50088","0.0-6.0-0.0-0.1","2964","pics2/SA1.jpg","","","100","SA","","","","","","","","","",""
"image-slider-response","8","53530","0.0-6.0-0.0-0.2","3237","pics2/SW2.jpg","","","78","SW","","","","","","","","","",""
"image-slider-response","9","56016","0.0-6.0-0.0-0.3","2282","pics2/SA2.jpg","","","57","SA","","","","","","","","","",""
"image-slider-response","10","58980","0.0-6.0-0.0-0.4","2758","pics2/FR5.jpg","","","63","FR","","","","","","","","","",""
"image-slider-response","11","62821","0.0-6.0-0.0-0.5","3638","pics2/VE3.jpg","","","56","VE","","","","","","","","","",""
"image-slider-response","12","65504","0.0-6.0-0.0-0.6","2475","pics2/SW3.jpg","","","64","SW","","","","","","","","","",""
"image-slider-response","13","68287","0.0-6.0-0.0-0.7","2577","pics2/FR1.jpg","","","87","FR","","","","","","","","","",""
"image-slider-response","14","70582","0.0-6.0-0.0-0.8","2089","pics2/SA5.jpg","","","53","SA","","","","","","","","","",""
"image-slider-response","15","72833","0.0-6.0-0.0-0.9","2048","pics2/VE2.jpg","","","53","VE","","","","","","","","","",""
"image-slider-response","16","75327","0.0-6.0-0.0-0.10","2292","pics2/SW6.jpg","","","65","SW","","","","","","","","","",""
"image-slider-response","17","77811","0.0-6.0-0.0-0.11","2278","pics2/SW5.jpg","","","62","SW","","","","","","","","","",""
"image-slider-response","18","80386","0.0-6.0-0.0-0.12","2371","pics2/SA4.jpg","","","100","SA","","","","","","","","","",""
"image-slider-response","19","84007","0.0-6.0-0.0-0.13","3415","pics2/SW4.jpg","","","100","SW","","","","","","","","","",""
"image-slider-response","20","86918","0.0-6.0-0.0-0.14","2703","pics2/SW1.jpg","","","9","SW","","","","","","","","","",""
"image-slider-response","21","89705","0.0-6.0-0.0-0.15","2580","pics2/SA3.jpg","","","97","SA","","","","","","","","","",""
"image-slider-response","22","93001","0.0-6.0-0.0-0.16","3093","pics2/VE5.jpg","","","57","VE","","","","","","","","","",""
"image-slider-response","23","96817","0.0-6.0-0.0-0.17","3609","pics2/FR2.jpg","","","68","FR","","","","","","","","","",""
"image-slider-response","24","99416","0.0-6.0-0.0-0.18","2394","pics2/VE6.jpg","","","0","VE","","","","","","","","","",""
"image-slider-response","25","102067","0.0-6.0-0.0-0.19","2444","pics2/FR6.jpg","","","97","FR","","","","","","","","","",""
"image-slider-response","26","104718","0.0-6.0-0.0-0.20","2448","pics2/VE1.jpg","","","56","VE","","","","","","","","","",""
"image-slider-response","27","107309","0.0-6.0-0.0-0.21","2388","pics2/VE4.jpg","","","56","VE","","","","","","","","","",""
"image-slider-response","28","109764","0.0-6.0-0.0-0.22","2249","pics2/FR3.jpg","","","93","FR","","","","","","","","","",""
"image-slider-response","29","112127","0.0-6.0-0.0-0.23","2157","pics2/FR4.jpg","","","92","FR","","","","","","","","","",""
"html-button-response","30","113903","0.0-7.0","1570","<div style='width: 900px;'> <font size = 6><b> End of the first rating</b><br><br>","0","","","","","","","","","","","","",""
"html-button-response","31","128527","0.0-9.0","14622","<div ><img src='sizeS.png'></img></div><br><div style='text-align: justify; width: 700px'> Using the mouse, rate the <b><i>size</b></i> of the food items <b><i> relative to the white background.</b></i> Right-end of the scale indicates a <i>very large item</i>, which covers a large portion of the white rectangle. Left-end indicates a <i>very tiny</i> item which covers a tiny portion of the white rectangle.<br><br><i><u>Remember</i></u>: everything that is not the white background also contributes to item size (e.g. packing, plates, ect.)<br><br> Please keep in mind that if the accuracy of ratings do not allign well with actual sizes, the experiment will end.  As a result it will be consider incomplete and therefore no payment would be made. Good luck!<br><br></div><br>","0","","","","","","","","","","","","",""
"html-button-response","32","132056","0.0-10.0","3527","<div ><img src='sizeS.png'></img></div><br><b><font size=6>Examples of items that you might encounter</b><br><div style='width: 750px;'><div style='width: 33.33%; float:left'><br><br><br><i>Large Item</i><br><br><img src='large.jpg', width=200px></img></div><div style='float:right'><br><br><br><i>Small Item</i><br><br><img src='small.jpg', width=200px></img></div><div ><br><br><br><i>Medium Item</i><br><br><img src='med.jpg', width=200px></img></div></div><br><br>","0","","","","","","","","","","","","",""
"image-slider-response","33","137426","0.0-11.0-0.0-0.0","5368","pics2/VE1.jpg","","","83","null","","","","","","","","","",""
"image-slider-response","34","140469","0.0-11.0-0.0-0.1","2835","pics2/SW4.jpg","","","86","null","","","","","","","","","",""
"image-slider-response","35","144998","0.0-11.0-0.0-0.2","4324","pics2/SW6.jpg","","","65","null","","","","","","","","","",""
"image-slider-response","36","147934","0.0-11.0-0.0-0.3","2730","pics2/SA1.jpg","","","89","null","","","","","","","","","",""
"image-slider-response","37","151830","0.0-11.0-0.0-0.4","3689","pics2/VE6.jpg","","","54","null","","","","","","","","","",""
"image-slider-response","38","154193","0.0-11.0-0.0-0.5","2155","pics2/FR1.jpg","","","84","null","","","","","","","","","",""
"image-slider-response","39","156728","0.0-11.0-0.0-0.6","2328","pics2/FR3.jpg","","","86","null","","","","","","","","","",""
"image-slider-response","40","159644","0.0-11.0-0.0-0.7","2710","pics2/SA2.jpg","","","59","null","","","","","","","","","",""
"image-slider-response","41","161713","0.0-11.0-0.0-0.8","1864","pics2/SA4.jpg","","","59","null","","","","","","","","","",""
"image-slider-response","42","164124","0.0-11.0-0.0-0.9","2204","pics2/VE5.jpg","","","62","null","","","","","","","","","",""
"image-slider-response","43","168225","0.0-11.0-0.0-0.10","3895","pics2/FR2.jpg","","","85","null","","","","","","","","","",""
"image-slider-response","44","170952","0.0-11.0-0.0-0.11","2521","pics2/VE2.jpg","","","78","null","","","","","","","","","",""
"image-slider-response","45","173199","0.0-11.0-0.0-0.12","2040","pics2/FR6.jpg","","","63","null","","","","","","","","","",""
"image-slider-response","46","177115","0.0-11.0-0.0-0.13","3710","pics2/SA5.jpg","","","42","null","","","","","","","","","",""
"image-slider-response","47","179822","0.0-11.0-0.0-0.14","2500","pics2/SW5.jpg","","","70","null","","","","","","","","","",""
"image-slider-response","48","183237","0.0-11.0-0.0-0.15","3210","pics2/SW2.jpg","","","89","null","","","","","","","","","",""
"image-slider-response","49","188059","0.0-11.0-0.0-0.16","4615","pics2/FR4.jpg","","","69","null","","","","","","","","","",""
"image-slider-response","50","191074","0.0-11.0-0.0-0.17","2808","pics2/SA6.jpg","","","75","null","","","","","","","","","",""
"image-slider-response","51","196260","0.0-11.0-0.0-0.18","4980","pics2/SW1.jpg","","","95","null","","","","","","","","","",""
"image-slider-response","52","199279","0.0-11.0-0.0-0.19","2813","pics2/FR5.jpg","","","81","null","","","","","","","","","",""
"image-slider-response","53","202127","0.0-11.0-0.0-0.20","2642","pics2/VE4.jpg","","","80","null","","","","","","","","","",""
"image-slider-response","54","204705","0.0-11.0-0.0-0.21","2374","pics2/SA3.jpg","","","70","null","","","","","","","","","",""
"image-slider-response","55","206912","0.0-11.0-0.0-0.22","2001","pics2/SW3.jpg","","","71","null","","","","","","","","","",""
"image-slider-response","56","209591","0.0-11.0-0.0-0.23","2473","pics2/VE3.jpg","","","68","null","","","","","","","","","",""
"html-button-response","57","210768","0.0-12.0","974","<div style='width: 900px;'> <font size = 6><b> End of the second rating</b><br><br>","0","","","","","","","","","","","","",""
"html-button-response","58","216146","0.0-13.0","5376","<div style='width: 900px;'>Now please rate the items for the second time. <br><br>This is not a memory test - you don't need to be consistent with your previous ratings. Just as before, try to make accurate judgements.<br><br>","0","","","","","","","","","","","","",""
"html-button-response","59","222229","0.0-14.0","6081","<div><img src='heartS.png'></img></div><br><div style='text-align: justify; width: 700px'>Using the mouse, rate the <b><i>likeness</b></i> of the food items (how much you like them/would like to eat them <i>right now</i>). Far right-end of the scale indicates an item you <i>like a lot</i>. Far left-end indicates an item you <i>dislike a lot</i>. Think about each answer.   <ul><li>Try <b><i>not</b></i> to give identical rating to different items.</li><li>Use the whole scale, and <b><i>not</b></i> just the extremes</ul></div><br>","0","","","","","","","","","","","","",""
"image-slider-response","60","225387","0.0-15.0-0.0-0.0","3156","pics2/FR4.jpg","","","100","FR","","","","","","","","","",""
"image-slider-response","61","228418","0.0-15.0-0.0-0.1","2825","pics2/FR2.jpg","","","91","FR","","","","","","","","","",""
"image-slider-response","62","231478","0.0-15.0-0.0-0.2","2851","pics2/SW2.jpg","","","95","SW","","","","","","","","","",""
"image-slider-response","63","235446","0.0-15.0-0.0-0.3","3762","pics2/SA4.jpg","","","100","SA","","","","","","","","","",""
"image-slider-response","64","237865","0.0-15.0-0.0-0.4","2213","pics2/SW3.jpg","","","65","SW","","","","","","","","","",""
"image-slider-response","65","240247","0.0-15.0-0.0-0.5","2176","pics2/SA2.jpg","","","45","SA","","","","","","","","","",""
"image-slider-response","66","242850","0.0-15.0-0.0-0.6","2397","pics2/SA6.jpg","","","44","SA","","","","","","","","","",""
"image-slider-response","67","245277","0.0-15.0-0.0-0.7","2220","pics2/SW5.jpg","","","93","SW","","","","","","","","","",""
"image-slider-response","68","247395","0.0-15.0-0.0-0.8","1910","pics2/VE1.jpg","","","57","VE","","","","","","","","","",""
"image-slider-response","69","249357","0.0-15.0-0.0-0.9","1759","pics2/VE4.jpg","","","59","VE","","","","","","","","","",""
"image-slider-response","70","252021","0.0-15.0-0.0-0.10","2461","pics2/VE3.jpg","","","71","VE","","","","","","","","","",""
"image-slider-response","71","254255","0.0-15.0-0.0-0.11","2030","pics2/VE5.jpg","","","65","VE","","","","","","","","","",""
"image-slider-response","72","256614","0.0-15.0-0.0-0.12","2153","pics2/VE6.jpg","","","0","VE","","","","","","","","","",""
"image-slider-response","73","258756","0.0-15.0-0.0-0.13","1938","pics2/SA5.jpg","","","57","SA","","","","","","","","","",""
"image-slider-response","74","260998","0.0-15.0-0.0-0.14","2038","pics2/SW1.jpg","","","0","SW","","","","","","","","","",""
"image-slider-response","75","263978","0.0-15.0-0.0-0.15","2773","pics2/SA3.jpg","","","95","SA","","","","","","","","","",""
"image-slider-response","76","266249","0.0-15.0-0.0-0.16","2064","pics2/SW6.jpg","","","79","SW","","","","","","","","","",""
"image-slider-response","77","268507","0.0-15.0-0.0-0.17","2053","pics2/SW4.jpg","","","100","SW","","","","","","","","","",""
"image-slider-response","78","270835","0.0-15.0-0.0-0.18","2122","pics2/FR5.jpg","","","83","FR","","","","","","","","","",""
"image-slider-response","79","273409","0.0-15.0-0.0-0.19","2368","pics2/VE2.jpg","","","55","VE","","","","","","","","","",""
"image-slider-response","80","278271","0.0-15.0-0.0-0.20","4656","pics2/SA1.jpg","","","100","SA","","","","","","","","","",""
"image-slider-response","81","280582","0.0-15.0-0.0-0.21","2102","pics2/FR3.jpg","","","76","FR","","","","","","","","","",""
"image-slider-response","82","282769","0.0-15.0-0.0-0.22","1983","pics2/FR6.jpg","","","79","FR","","","","","","","","","",""
"image-slider-response","83","284847","0.0-15.0-0.0-0.23","1876","pics2/FR1.jpg","","","87","FR","","","","","","","","","",""
"call-function","84","285063","0.0-16.0","","","","","","","","","","","","","","","",""
"call-function","85","285066","0.0-17.0","","","","","","","","","","","","","","","",""
"html-button-response","86","285952","0.0-18.0","886","<div style='width: 900px;'> <font size = 6><b> End of the first rating</b><br><br>","0","","","","","","","","","","","","",""
"html-button-response","87","286897","0.0-19.0","944","<div ><img src='sizeS.png'></img></div><br><div style='text-align: justify; width: 700px'> Using the mouse, rate the <b><i>size</b></i> of the food items <b><i> relative to the white background.</b></i> Right-end of the scale indicates a <i>very large item</i>, which covers a large portion of the white rectangle. Left-end indicates a <i>very tiny</i> item which covers a tiny portion of the white rectangle.<br><br><i><u>Remember</i></u>: everything that is not the white background also contributes to item size (e.g. packing, plates, ect.)<br><br> Please keep in mind that if the accuracy of ratings do not allign well with actual sizes, the experiment will end.  As a result it will be consider incomplete and therefore no payment would be made. Good luck!<br><br></div><br>","0","","","","","","","","","","","","",""
"image-slider-response","88","289712","0.0-20.0-0.0-0.0","2813","pics2/VE2.jpg","","","61","null","","","","","","","","","",""
"image-slider-response","89","291919","0.0-20.0-0.0-0.1","2000","pics2/SA2.jpg","","","39","null","","","","","","","","","",""
"image-slider-response","90","294394","0.0-20.0-0.0-0.2","2268","pics2/SW2.jpg","","","94","null","","","","","","","","","",""
"image-slider-response","91","297520","0.0-20.0-0.0-0.3","2924","pics2/SA3.jpg","","","86","null","","","","","","","","","",""
"image-slider-response","92","300493","0.0-20.0-0.0-0.4","2766","pics2/FR1.jpg","","","82","null","","","","","","","","","",""
"image-slider-response","93","304056","0.0-20.0-0.0-0.5","3357","pics2/VE6.jpg","","","43","null","","","","","","","","","",""
"image-slider-response","94","306191","0.0-20.0-0.0-0.6","1927","pics2/SA5.jpg","","","34","null","","","","","","","","","",""
"image-slider-response","95","308370","0.0-20.0-0.0-0.7","1973","pics2/FR5.jpg","","","43","null","","","","","","","","","",""
"image-slider-response","96","311136","0.0-20.0-0.0-0.8","2561","pics2/SW1.jpg","","","89","null","","","","","","","","","",""
"image-slider-response","97","313339","0.0-20.0-0.0-0.9","1998","pics2/VE4.jpg","","","76","null","","","","","","","","","",""
"image-slider-response","98","315673","0.0-20.0-0.0-0.10","2129","pics2/SW4.jpg","","","84","null","","","","","","","","","",""
"image-slider-response","99","317571","0.0-20.0-0.0-0.11","1696","pics2/FR4.jpg","","","58","null","","","","","","","","","",""
"image-slider-response","100","320715","0.0-20.0-0.0-0.12","2937","pics2/VE1.jpg","","","92","null","","","","","","","","","",""
"image-slider-response","101","322894","0.0-20.0-0.0-0.13","1975","pics2/SA6.jpg","","","82","null","","","","","","","","","",""
"image-slider-response","102","325021","0.0-20.0-0.0-0.14","1923","pics2/FR6.jpg","","","55","null","","","","","","","","","",""
"image-slider-response","103","329342","0.0-20.0-0.0-0.15","4118","pics2/SA4.jpg","","","38","null","","","","","","","","","",""
"image-slider-response","104","331720","0.0-20.0-0.0-0.16","2172","pics2/SA1.jpg","","","88","null","","","","","","","","","",""
"image-slider-response","105","334470","0.0-20.0-0.0-0.17","2545","pics2/SW5.jpg","","","73","null","","","","","","","","","",""
"image-slider-response","106","337443","0.0-20.0-0.0-0.18","2768","pics2/SW3.jpg","","","69","null","","","","","","","","","",""
"image-slider-response","107","339649","0.0-20.0-0.0-0.19","2002","pics2/FR2.jpg","","","77","null","","","","","","","","","",""
"image-slider-response","108","342468","0.0-20.0-0.0-0.20","2613","pics2/FR3.jpg","","","68","null","","","","","","","","","",""
"image-slider-response","109","345672","0.0-20.0-0.0-0.21","3000","pics2/VE5.jpg","","","58","null","","","","","","","","","",""
"image-slider-response","110","348038","0.0-20.0-0.0-0.22","2160","pics2/VE3.jpg","","","53","null","","","","","","","","","",""
"image-slider-response","111","350352","0.0-20.0-0.0-0.23","2106","pics2/SW6.jpg","","","40","null","","","","","","","","","",""
"call-function","112","350561","0.0-21.0","","","","","","","","","","","","","","","",""
"html-button-response","113","351685","0.0-22.0","1123","<div style='width: 900px;'> <font size = 6><b> End of the second rating</b><br><br>","0","","","","","","","","","","","","",""
"pavlovia","114","351696","0.0-23.0","","","","","","","","","","","","","","","",""
"html-keyboard-response","115","356700","0.0-24.0","null","<div style='width: 700px;'> <font size=6><b>SHORT BREAK</font></b><br><br><i> Please wait 5 seconds to continue</i></div> ","","","","","","null","","","","","","","",""
"pavlovia","116","356702","0.0-25.0","","","","","","","","","","","","","","","",""
"html-button-response","117","410009","0.0-26.0","53306","<div style='width: 700px;'>In the main part of the study, you will be choosing between 2 items. When it's time to choose,  this symbol will appear: <br><br><img src='chooseS.png'></img><br><br>Below, a cue will signify the type of choice: </div><br><div style='width: 700px;'><div style='float: left; width: 50%'><img src='heartS.png'></img><p class='small'>Heart cue means you should choose the item you <b><i>prefer</b></i> more.</p></div><div class='float: right; width:50%'><img src='sizeS.png'></img><p class='small'>Size cue means you should choose the <b><i>larger</b></i> item. </p></div></div><br><div style='width: 700px;'>When you click, a green square will appear around the item you chose.<br></div><div><br>","0","","","","","","","","","","","","",""
"image-selector-fb-tut","118","413869","0.0-27.0","2853","0232.jpg,0123.jpg","","","","","","","false","0","","","","","",""
"image-selector-fb-tut","119","416834","0.0-28.0","1961","0232.jpg,0123.jpg","","","","","","","true","1","","","","","",""
"html-button-response","120","418075","0.0-29.0","1240","<div style='width: 900px;'>Your choices should be both <b><i>fast and accurate</b></i>. <br><br>You will have <i>4 seconds</i> to make each choice, which should be enough consider the options and click on one of the items.<br><br>","0","","","","","","","","","","","","",""
"html-button-response","121","421178","0.0-30.0","3102","<div style='width: 900px;'>Additionally, on some choice trials you will see the <b><i>no-choice cue</b></i>: <br><br><img src='noS.png'></img> <br><br>This cue means you can't make any choice. You can examine the items, but  can't click on any of them. Just wait patiently for the cue to dissapear.<br><br>","0","","","","","","","","","","","","",""
"image-selector-fb-tut","122","423184","0.0-31.0","null","0232.jpg,0123.jpg","","","","","","","false","null","","","","","",""
"html-button-response","123","424607","0.0-32.0","1422","<div style='width: 900px;'>After each choice the items will remain on the screen and you will see this symbol: <br><br><img src='judgeS.png'></img> <br><br>This means you should rate<b> the magnitude of the difference</b> between the items using a scale: </div><br><div style='width: 900px; '><div style='float: left; width: 50%; margin-right: 2.5em; align-self:left'><img src='heartS.png'></img><p class='small' style = 'text-align: justify;'>Heart cue means you should rate <b>how much you prefer</b> one of the items over the other. Moving the scale indicator to the left means you prefer the left one; moving it to the right - right one. The more you prefer one of them, the more towards that side you should move the scale indicator. </p></div><div class='float: right; width: 50%; margin-left: 2.5em;'><img src='sizeS.png'></img><p class='small' style='text-align: justify'>Size cue means you should rate <b>how much larger</b> is one of the items over the other. Moving the scale indicator to the left means you think the left is larger; moving it to the right - right one. The greater the difference in size, the more towards that side you should move the scale indicator.</div><br>","0","","","","","","","","","","","","",""
"image-slider-2AFC-tut","124","433775","0.0-33.0","9164","","","","86","","","","","","6884","86","","","",""
"image-slider-2AFC-tut","125","438099","0.0-34.0","4321","","","","17","","","","","","3629","17","","","",""
"html-button-response","126","445792","0.0-35.0","7691","<br><br><font size = 36><b> Examples </b></font><br><br><i> 1) I would like to eat some croissants a <b>lot more</b> than doritos right now:</i><br><img src='ex1.PNG', width='62%'></img><br><br><br><i> 2) I would like to eat some doritos a <b>bit more</b> than croissants right now, but just slightly:</i><br><img src='ex2.PNG' width='62%'></img>","0","","","","","","","","","","","","",""
"html-button-response","127","450835","0.0-36.0","5042","<div style='width: 900px;'><i>Now you know everything you need to do the task!</i> <br><br>Let's start by doing a <b>short training</b>, so you'll get used to how it works. </div><br>","0","","","","","","","","","","","","",""
"image-selector-fb","128","455003","0.0-37.0-0.0","3660","pics2/VE1.jpg,pics2/VE5.jpg","","","","","","","true","1","","","sizeS.png","","",""
"image-slider-2AFC","129","460012","0.0-37.0-1.0","null","","","","null","","","","","","","","heartS.png","4334","43",""
"html-keyboard-response","130","460716","0.0-37.0-2.0","null","","","","","","","null","","","","","","","",""
"image-selector-fb","131","464216","0.0-37.1-0.1","2994","pics2/VE1.jpg,pics2/SA2.jpg","","","","","","","false","0","","","sizeS.png","","",""
"image-slider-2AFC","132","466941","0.0-37.1-1.1","2721","","","","-43","","","","","","","","sizeS.png","1992","-43",""
"html-keyboard-response","133","467702","0.0-37.1-2.1","null","","","","","","","null","","","","","","","",""
"image-selector-fb","134","470712","0.0-37.2-0.2","null","pics2/VE2.jpg,pics2/SW6.jpg","","","","","","","false","null","","","noS.png","","",""
"image-slider-2AFC","135","474755","0.0-37.2-1.2","4040","","","","54","","","","","","","","heartS.png","3232","54",""
"html-keyboard-response","136","475613","0.0-37.2-2.2","null","","","","","","","null","","","","","","","",""
"image-selector-fb","137","478473","0.0-37.3-0.3","2356","pics2/VE6.jpg,pics2/SW1.jpg","","","","","","","true","1","","","heartS.png","","",""
"image-slider-2AFC","138","481162","0.0-37.3-1.3","2686","","","","7","","","","","","","","heartS.png","2170","7",""
"html-keyboard-response","139","481869","0.0-37.3-2.3","null","","","","","","","null","","","","","","","",""
"image-selector-fb","140","486222","0.0-37.4-0.4","3844","pics2/VE3.jpg,pics2/SW3.jpg","","","","","","","false","0","","","sizeS.png","","",""
"image-slider-2AFC","141","489216","0.0-37.4-1.4","2992","","","","54","","","","","","","","heartS.png","2367","54",""
"html-keyboard-response","142","489924","0.0-37.4-2.4","null","","","","","","","null","","","","","","","",""
"image-selector-fb","143","492930","0.0-37.5-0.5","null","pics2/SW3.jpg,pics2/SW6.jpg","","","","","","","false","null","","","noS.png","","",""
"image-slider-2AFC","144","496464","0.0-37.5-1.5","3533","","","","-56","","","","","","","","heartS.png","2708","-56",""
"html-keyboard-response","145","497172","0.0-37.5-2.5","null","","","","","","","null","","","","","","","",""
"image-selector-fb","146","500103","0.0-37.6-0.6","2427","pics2/VE1.jpg,pics2/VE6.jpg","","","","","","","true","1","","","sizeS.png","","",""
"image-slider-2AFC","147","503421","0.0-37.6-1.6","3316","","","","-44","","","","","","","","heartS.png","2643","-44",""
"html-keyboard-response","148","504273","0.0-37.6-2.6","null","","","","","","","null","","","","","","","",""
"image-selector-fb","149","507771","0.0-37.7-0.7","2995","pics2/VE5.jpg,pics2/SW1.jpg","","","","","","","false","0","","","heartS.png","","",""
"image-slider-2AFC","150","510797","0.0-37.7-1.7","3024","","","","-36","","","","","","","","sizeS.png","2343","-36",""
"html-keyboard-response","151","511556","0.0-37.7-2.7","null","","","","","","","null","","","","","","","",""
"image-selector-fb","152","514564","0.0-37.8-0.8","null","pics2/SW1.jpg,pics2/VE4.jpg","","","","","","","false","null","","","noS.png","","",""
"image-slider-2AFC","153","518127","0.0-37.8-1.8","3560","","","","68","","","","","","","","heartS.png","2864","68",""
"html-keyboard-response","154","518833","0.0-37.8-2.8","null","","","","","","","null","","","","","","","",""
"image-selector-fb","155","523341","0.0-37.9-0.9","null","pics2/SA6.jpg,pics2/SA5.jpg","","","","","","","false","null","","","heartS.png","","",""
"image-slider-2AFC","156","523343","0.0-37.9-1.9","null","","","","null","","","","","","","","heartS.png","","",""
"html-keyboard-response","157","524195","0.0-37.9-2.9","null","","","","","","","null","","","","","","","",""
"image-selector-fb","158","527209","0.0-37.10-0.10","null","pics2/SA2.jpg,pics2/VE2.jpg","","","","","","","false","null","","","noS.png","","",""
"image-slider-2AFC","159","529902","0.0-37.10-1.10","2690","","","","40","","","","","","","","sizeS.png","2105","40",""
"html-keyboard-response","160","530603","0.0-37.10-2.10","null","","","","","","","null","","","","","","","",""
"image-selector-fb","161","532705","0.0-37.11-0.11","1598","pics2/VE3.jpg,pics2/VE4.jpg","","","","","","","true","1","","","sizeS.png","","",""
"image-slider-2AFC","162","535816","0.0-37.11-1.11","3108","","","","41","","","","","","","","sizeS.png","2498","41",""
"html-keyboard-response","163","536527","0.0-37.11-2.11","null","","","","","","","null","","","","","","","",""
"html-button-response","164","542171","0.0-38.0","5643","<i><font size=10>Good job!</font></i> <br><br>Before we begin, you have a chance to review the rules, in case something was not clear.<br><br>","0","","","","","","","","","","","","",""
"instructions","165","546644","0.0-39.0","4472","","","","","","","","","","","","","","","[{""page_index"":0,""viewing_time"":1488},{""page_index"":1,""viewing_time"":1806},{""page_index"":2,""viewing_time"":1177}]"
"html-button-response","166","548134","0.0-40.0","1488","<div style='width: 900px;'> <font size='40'>Great! Now you're ready to begin</font><br><br>The main part of the experiment will consist of <u>3 blocks</u>. Each block consists of 66 decisions and judgements. You will have time for a short break between blocks.<br><br><br><i><u>Do your best to respond within the time limit.</u></i><br><br><i> Press the button to start the experiment<br><br></i>","0","","","","","","","","","","","","",""
"image-selector-fb","167","549926","0.0-41.0-0.0","1283","pics2/FR1.jpg,pics2/SW5.jpg","","","","","","","true","1","","","heartS.png","","",""
"image-slider-2AFC","168","553677","0.0-41.0-1.0","3748","","","","-37","","","","","","","","heartS.png","2552","-37",""
"html-keyboard-response","169","554434","0.0-41.0-2.0","null","","","","","","","null","","","","","","","",""
"image-selector-fb","170","557443","0.0-41.1-0.1","null","pics2/SW5.jpg,pics2/FR5.jpg","","","","","","","false","null","","","noS.png","","",""
"image-slider-2AFC","171","560372","0.0-41.1-1.1","2927","","","","40","","","","","","","","sizeS.png","2318","40",""
"html-keyboard-response","172","561132","0.0-41.1-2.1","null","","","","","","","null","","","","","","","",""
"image-selector-fb","173","564141","0.0-41.2-0.2","null","pics2/SA3.jpg,pics2/FR3.jpg","","","","","","","false","null","","","noS.png","","",""
"image-slider-2AFC","174","569144","0.0-41.2-1.2","null","","","","null","","","","","","","","heartS.png","4535","44",""
"html-keyboard-response","175","570005","0.0-41.2-2.2","null","","","","","","","null","","","","","","","",""
"image-selector-fb","176","573014","0.0-41.3-0.3","null","pics2/FR1.jpg,pics2/SW5.jpg","","","","","","","false","null","","","noS.png","","",""
"image-slider-2AFC","177","575371","0.0-41.3-1.3","2355","","","","-39","","","","","","","","heartS.png","1722","-39",""
"html-keyboard-response","178","576183","0.0-41.3-2.3","null","","","","","","","null","","","","","","","",""
"image-selector-fb","179","577947","0.0-41.4-0.4","1260","pics2/SW4.jpg,pics2/FR4.jpg","","","","","","","true","1","","","heartS.png","","",""
"image-slider-2AFC","180","580173","0.0-41.4-1.4","2223","","","","-36","","","","","","","","sizeS.png","1590","-36",""
"html-keyboard-response","181","580981","0.0-41.4-2.4","null","","","","","","","null","","","","","","","",""
"image-selector-fb","182","583985","0.0-41.5-0.5","null","pics2/FR2.jpg,pics2/SA4.jpg","","","","","","","false","null","","","noS.png","","",""
"image-slider-2AFC","183","586994","0.0-41.5-1.5","3006","","","","77","","","","","","","","sizeS.png","2330","77",""
"html-keyboard-response","184","587750","0.0-41.5-2.5","null","","","","","","","null","","","","","","","",""
"image-selector-fb","185","590876","0.0-41.6-0.6","2622","pics2/FR4.jpg,pics2/FR6.jpg","","","","","","","false","0","","","sizeS.png","","",""
"image-slider-2AFC","186","595883","0.0-41.6-1.6","null","","","","null","","","","","","","","sizeS.png","","",""
"html-keyboard-response","187","596741","0.0-41.6-2.6","null","","","","","","","null","","","","","","","",""
"image-selector-fb","188","601249","0.0-41.7-0.7","null","pics2/SA4.jpg,pics2/FR5.jpg","","","","","","","false","null","","","heartS.png","","",""
"image-slider-2AFC","189","601250","0.0-41.7-1.7","null","","","","null","","","","","","","","heartS.png","","",""
"html-keyboard-response","190","602106","0.0-41.7-2.7","null","","","","","","","null","","","","","","","",""
"image-selector-fb","191","605117","0.0-41.8-0.8","null","pics2/SA4.jpg,pics2/FR5.jpg","","","","","","","false","null","","","noS.png","","",""
"image-slider-2AFC","192","608384","0.0-41.8-1.8","3265","","","","-47","","","","","","","","sizeS.png","2565","-47",""
"html-keyboard-response","193","609241","0.0-41.8-2.8","null","","","","","","","null","","","","","","","",""
"image-selector-fb","194","612251","0.0-41.9-0.9","null","pics2/FR2.jpg,pics2/FR5.jpg","","","","","","","false","null","","","noS.png","","",""
"image-slider-2AFC","195","616367","0.0-41.9-1.9","4115","","","","39","","","","","","","","heartS.png","3514","39",""
"html-keyboard-response","196","617076","0.0-41.9-2.9","null","","","","","","","null","","","","","","","",""
"image-selector-fb","197","620781","0.0-41.10-0.10","3201","pics2/SA1.jpg,pics2/FR5.jpg","","","","","","","false","0","","","sizeS.png","","",""
"image-slider-2AFC","198","624961","0.0-41.10-1.10","4175","","","","29","","","","","","","","heartS.png","3687","29",""
"html-keyboard-response","199","625815","0.0-41.10-2.10","null","","","","","","","null","","","","","","","",""
"image-selector-fb","200","628842","0.0-41.11-0.11","2524","pics2/FR6.jpg,pics2/FR2.jpg","","","","","","","false","0","","","sizeS.png","","",""
"image-slider-2AFC","201","631031","0.0-41.11-1.11","2185","","","","-38","","","","","","","","sizeS.png","1561","-38",""
"html-keyboard-response","202","631734","0.0-41.11-2.11","null","","","","","","","null","","","","","","","",""
"image-selector-fb","203","634743","0.0-41.12-0.12","null","pics2/FR5.jpg,pics2/FR4.jpg","","","","","","","false","null","","","noS.png","","",""
"image-slider-2AFC","204","638267","0.0-41.12-1.12","3521","","","","39","","","","","","","","heartS.png","2968","39",""
"html-keyboard-response","205","639123","0.0-41.12-2.12","null","","","","","","","null","","","","","","","",""
"image-selector-fb","206","641090","0.0-41.13-0.13","1459","pics2/FR4.jpg,pics2/SW4.jpg","","","","","","","true","1","","","sizeS.png","","",""
"image-slider-2AFC","207","644633","0.0-41.13-1.13","3541","","","","33","","","","","","","","heartS.png","2769","33",""
"html-keyboard-response","208","645389","0.0-41.13-2.13","null","","","","","","","null","","","","","","","",""
"image-selector-fb","209","648396","0.0-41.14-0.14","null","pics2/SW4.jpg,pics2/SA1.jpg","","","","","","","false","null","","","noS.png","","",""
"image-slider-2AFC","210","653003","0.0-41.14-1.14","4605","","","","-42","","","","","","","","sizeS.png","3688","-42",""
"html-keyboard-response","211","653759","0.0-41.14-2.14","null","","","","","","","null","","","","","","","",""
"image-selector-fb","212","655982","0.0-41.15-0.15","1716","pics2/SW2.jpg,pics2/FR1.jpg","","","","","","","false","0","","","sizeS.png","","",""
"image-slider-2AFC","213","658373","0.0-41.15-1.15","2389","","","","-39","","","","","","","","heartS.png","1660","-39",""
"html-keyboard-response","214","659179","0.0-41.15-2.15","null","","","","","","","null","","","","","","","",""
"image-selector-fb","215","662190","0.0-41.16-0.16","null","pics2/SA3.jpg,pics2/FR1.jpg","","","","","","","false","null","","","noS.png","","",""
"image-slider-2AFC","216","665596","0.0-41.16-1.16","3404","","","","42","","","","","","","","heartS.png","2792","42",""
"html-keyboard-response","217","666355","0.0-41.16-2.16","null","","","","","","","null","","","","","","","",""
"image-selector-fb","218","669366","0.0-41.17-0.17","null","pics2/SW4.jpg,pics2/FR3.jpg","","","","","","","false","null","","","noS.png","","",""
"image-slider-2AFC","219","672018","0.0-41.17-1.17","2649","","","","-39","","","","","","","","sizeS.png","1984","-39",""
"html-keyboard-response","220","672875","0.0-41.17-2.17","null","","","","","","","null","","","","","","","",""
"image-selector-fb","221","675042","0.0-41.18-0.18","1661","pics2/SW2.jpg,pics2/SA1.jpg","","","","","","","true","1","","","heartS.png","","",""
"image-slider-2AFC","222","678448","0.0-41.18-1.18","3405","","","","-28","","","","","","","","sizeS.png","2392","-28",""
"html-keyboard-response","223","679255","0.0-41.18-2.18","null","","","","","","","null","","","","","","","",""
"image-selector-fb","224","681718","0.0-41.19-0.19","1953","pics2/FR1.jpg,pics2/FR2.jpg","","","","","","","true","1","","","heartS.png","","",""
"image-slider-2AFC","225","686073","0.0-41.19-1.19","4354","","","","26","","","","","","","","sizeS.png","3765","26",""
"html-keyboard-response","226","686883","0.0-41.19-2.19","null","","","","","","","null","","","","","","","",""
"image-selector-fb","227","690246","0.0-41.20-0.20","2854","pics2/SA4.jpg,pics2/SA3.jpg","","","","","","","false","0","","","sizeS.png","","",""
"image-slider-2AFC","228","693381","0.0-41.20-1.20","3132","","","","35","","","","","","","","sizeS.png","2500","35",""
"html-keyboard-response","229","694139","0.0-41.20-2.20","null","","","","","","","null","","","","","","","",""
"image-selector-fb","230","697147","0.0-41.21-0.21","null","pics2/SW4.jpg,pics2/SW5.jpg","","","","","","","false","null","","","noS.png","","",""
"image-slider-2AFC","231","699652","0.0-41.21-1.21","2503","","","","-29","","","","","","","","heartS.png","1835","-29",""
"html-keyboard-response","232","700411","0.0-41.21-2.21","null","","","","","","","null","","","","","","","",""
"image-selector-fb","233","703471","0.0-41.22-0.22","2555","pics2/FR5.jpg,pics2/FR1.jpg","","","","","","","true","1","","","sizeS.png","","",""
"image-slider-2AFC","234","706937","0.0-41.22-1.22","3464","","","","-38","","","","","","","","heartS.png","2111,2855","-14,-38",""
"html-keyboard-response","235","707796","0.0-41.22-2.22","null","","","","","","","null","","","","","","","",""
"image-selector-fb","236","710808","0.0-41.23-0.23","null","pics2/FR2.jpg,pics2/FR1.jpg","","","","","","","false","null","","","noS.png","","",""
"image-slider-2AFC","237","715811","0.0-41.23-1.23","null","","","","null","","","","","","","","sizeS.png","4415","-40",""
"html-keyboard-response","238","716664","0.0-41.23-2.23","null","","","","","","","null","","","","","","","",""
"image-selector-fb","239","719669","0.0-41.24-0.24","null","pics2/FR1.jpg,pics2/SA1.jpg","","","","","","","false","null","","","noS.png","","",""
"image-slider-2AFC","240","722306","0.0-41.24-1.24","2634","","","","-32","","","","","","","","sizeS.png","2002","-32",""
"html-keyboard-response","241","723108","0.0-41.24-2.24","null","","","","","","","null","","","","","","","",""
"image-selector-fb","242","726121","0.0-41.25-0.25","null","pics2/SW4.jpg,pics2/FR4.jpg","","","","","","","false","null","","","noS.png","","",""
"image-slider-2AFC","243","730369","0.0-41.25-1.25","4246","","","","42","","","","","","","","heartS.png","3403","42",""
"html-keyboard-response","244","731123","0.0-41.25-2.25","null","","","","","","","null","","","","","","","",""
"image-selector-fb","245","734343","0.0-41.26-0.26","2716","pics2/FR6.jpg,pics2/SA4.jpg","","","","","","","false","0","","","sizeS.png","","",""
"image-slider-2AFC","246","738482","0.0-41.26-1.26","4137","","","","-36","","","","","","","","heartS.png","3409","-36",""
"html-keyboard-response","247","739340","0.0-41.26-2.26","null","","","","","","","null","","","","","","","",""
"image-selector-fb","248","742176","0.0-41.27-0.27","2331","pics2/SA4.jpg,pics2/SA1.jpg","","","","","","","false","0","","","heartS.png","","",""
"image-slider-2AFC","249","744653","0.0-41.27-1.27","2476","","","","-36","","","","","","","","heartS.png","1716","-36",""
"html-keyboard-response","250","745363","0.0-41.27-2.27","null","","","","","","","null","","","","","","","",""
"image-selector-fb","251","747483","0.0-41.28-0.28","1615","pics2/SW2.jpg,pics2/SA4.jpg","","","","","","","false","0","","","sizeS.png","","",""
"image-slider-2AFC","252","750196","0.0-41.28-1.28","2711","","","","-34","","","","","","","","sizeS.png","2018","-34",""
"html-keyboard-response","253","751056","0.0-41.28-2.28","null","","","","","","","null","","","","","","","",""
"image-selector-fb","254","754062","0.0-41.29-0.29","null","pics2/SA4.jpg,pics2/SW4.jpg","","","","","","","false","null","","","noS.png","","",""
"image-slider-2AFC","255","759065","0.0-41.29-1.29","null","","","","null","","","","","","","","sizeS.png","","",""
"html-keyboard-response","256","759768","0.0-41.29-2.29","null","","","","","","","null","","","","","","","",""
"image-selector-fb","257","762718","0.0-41.30-0.30","2447","pics2/SA3.jpg,pics2/FR6.jpg","","","","","","","true","1","","","heartS.png","","",""
"image-slider-2AFC","258","765080","0.0-41.30-1.30","2359","","","","-31","","","","","","","","heartS.png","1735","-31",""
"html-keyboard-response","259","765883","0.0-41.30-2.30","null","","","","","","","null","","","","","","","",""
"image-selector-fb","260","769102","0.0-41.31-0.31","2713","pics2/SW5.jpg,pics2/FR6.jpg","","","","","","","true","1","","","heartS.png","","",""
"image-slider-2AFC","261","771150","0.0-41.31-1.31","2045","","","","38","","","","","","","","heartS.png","1473","38",""
"html-keyboard-response","262","771902","0.0-41.31-2.31","null","","","","","","","null","","","","","","","",""
"image-selector-fb","263","773630","0.0-41.32-0.32","1223","pics2/FR6.jpg,pics2/SW2.jpg","","","","","","","true","1","","","heartS.png","","",""
"image-slider-2AFC","264","776047","0.0-41.32-1.32","2414","","","","30","","","","","","","","sizeS.png","1857","30",""
"html-keyboard-response","265","776803","0.0-41.32-2.32","null","","","","","","","null","","","","","","","",""
"image-selector-fb","266","779813","0.0-41.33-0.33","null","pics2/FR2.jpg,pics2/SW2.jpg","","","","","","","false","null","","","noS.png","","",""
"image-slider-2AFC","267","783522","0.0-41.33-1.33","3707","","","","21","","","","","","","","sizeS.png","2434,3107","17,21",""
"html-keyboard-response","268","784283","0.0-41.33-2.33","null","","","","","","","null","","","","","","","",""
"image-selector-fb","269","787245","0.0-41.34-0.34","2458","pics2/FR2.jpg,pics2/SW5.jpg","","","","","","","false","0","","","heartS.png","","",""
"image-slider-2AFC","270","789486","0.0-41.34-1.34","2237","","","","-36","","","","","","","","sizeS.png","1611","-36",""
"html-keyboard-response","271","790239","0.0-41.34-2.34","null","","","","","","","null","","","","","","","",""
"image-selector-fb","272","792719","0.0-41.35-0.35","1975","pics2/SA1.jpg,pics2/FR6.jpg","","","","","","","false","0","","","sizeS.png","","",""
"image-slider-2AFC","273","795504","0.0-41.35-1.35","2783","","","","41","","","","","","","","sizeS.png","2198","41",""
"html-keyboard-response","274","796259","0.0-41.35-2.35","null","","","","","","","null","","","","","","","",""
"image-selector-fb","275","800063","0.0-41.36-0.36","3299","pics2/FR5.jpg,pics2/FR6.jpg","","","","","","","true","1","","","sizeS.png","","",""
"image-slider-2AFC","276","802623","0.0-41.36-1.36","2559","","","","30","","","","","","","","heartS.png","1990","30",""
"html-keyboard-response","277","803330","0.0-41.36-2.36","null","","","","","","","null","","","","","","","",""
"image-selector-fb","278","806339","0.0-41.37-0.37","null","pics2/SA4.jpg,pics2/FR4.jpg","","","","","","","false","null","","","noS.png","","",""
"image-slider-2AFC","279","809061","0.0-41.37-1.37","2720","","","","25","","","","","","","","sizeS.png","2139","25",""
"html-keyboard-response","280","809866","0.0-41.37-2.37","null","","","","","","","null","","","","","","","",""
"image-selector-fb","281","812715","0.0-41.38-0.38","2340","pics2/SA4.jpg,pics2/FR3.jpg","","","","","","","false","0","","","sizeS.png","","",""
"image-slider-2AFC","282","815672","0.0-41.38-1.38","2955","","","","21","","","","","","","","heartS.png","2379","21",""
"html-keyboard-response","283","816429","0.0-41.38-2.38","null","","","","","","","null","","","","","","","",""
"image-selector-fb","284","819657","0.0-41.39-0.39","2721","pics2/FR4.jpg,pics2/SA1.jpg","","","","","","","false","0","","","heartS.png","","",""
"image-slider-2AFC","285","822344","0.0-41.39-1.39","2684","","","","-35","","","","","","","","heartS.png","2000","-35",""
"html-keyboard-response","286","823104","0.0-41.39-2.39","null","","","","","","","null","","","","","","","",""
"image-selector-fb","287","826017","0.0-41.40-0.40","2408","pics2/SA1.jpg,pics2/FR1.jpg","","","","","","","true","1","","","sizeS.png","","",""
"image-slider-2AFC","288","829578","0.0-41.40-1.40","3559","","","","36","","","","","","","","sizeS.png","3039","36",""
"html-keyboard-response","289","830337","0.0-41.40-2.40","null","","","","","","","null","","","","","","","",""
"image-selector-fb","290","833345","0.0-41.41-0.41","null","pics2/FR6.jpg,pics2/FR3.jpg","","","","","","","false","null","","","noS.png","","",""
"image-slider-2AFC","291","838347","0.0-41.41-1.41","null","","","","null","","","","","","","","sizeS.png","4388","-35",""
"html-keyboard-response","292","839052","0.0-41.41-2.41","null","","","","","","","null","","","","","","","",""
"image-selector-fb","293","842061","0.0-41.42-0.42","null","pics2/FR6.jpg,pics2/SA1.jpg","","","","","","","false","null","","","noS.png","","",""
"image-slider-2AFC","294","845505","0.0-41.42-1.42","3442","","","","-33","","","","","","","","sizeS.png","2921","-33",""
"html-keyboard-response","295","846361","0.0-41.42-2.42","null","","","","","","","null","","","","","","","",""
"image-selector-fb","296","848431","0.0-41.43-0.43","1562","pics2/SA4.jpg,pics2/SW4.jpg","","","","","","","true","1","","","heartS.png","","",""
"image-slider-2AFC","297","850754","0.0-41.43-1.43","2321","","","","37","","","","","","","","heartS.png","1840","37",""
"html-keyboard-response","298","851560","0.0-41.43-2.43","null","","","","","","","null","","","","","","","",""
"image-selector-fb","299","854571","0.0-41.44-0.44","null","pics2/SA4.jpg,pics2/SA1.jpg","","","","","","","false","null","","","noS.png","","",""
"image-slider-2AFC","300","857417","0.0-41.44-1.44","2844","","","","-53","","","","","","","","heartS.png","2154","-53",""
"html-keyboard-response","301","858127","0.0-41.44-2.44","null","","","","","","","null","","","","","","","",""
"image-selector-fb","302","860977","0.0-41.45-0.45","2346","pics2/SA3.jpg,pics2/FR4.jpg","","","","","","","false","0","","","heartS.png","","",""
"image-slider-2AFC","303","862931","0.0-41.45-1.45","1952","","","","34","","","","","","","","heartS.png","1438","34",""
"html-keyboard-response","304","863789","0.0-41.45-2.45","null","","","","","","","null","","","","","","","",""
"image-selector-fb","305","866798","0.0-41.46-0.46","null","pics2/SA1.jpg,pics2/FR4.jpg","","","","","","","false","null","","","noS.png","","",""
"image-slider-2AFC","306","870333","0.0-41.46-1.46","3532","","","","37","","","","","","","","heartS.png","2858","37",""
"html-keyboard-response","307","871088","0.0-41.46-2.46","null","","","","","","","null","","","","","","","",""
"image-selector-fb","308","874319","0.0-41.47-0.47","2723","pics2/FR4.jpg,pics2/SW5.jpg","","","","","","","false","0","","","sizeS.png","","",""
"image-slider-2AFC","309","877695","0.0-41.47-1.47","3372","","","","-29","","","","","","","","heartS.png","2580","-29",""
"html-keyboard-response","310","878404","0.0-41.47-2.47","null","","","","","","","null","","","","","","","",""
"image-selector-fb","311","880017","0.0-41.48-0.48","1105","pics2/FR1.jpg,pics2/SW2.jpg","","","","","","","true","1","","","heartS.png","","",""
"image-slider-2AFC","312","882779","0.0-41.48-1.48","2760","","","","25","","","","","","","","sizeS.png","2293","25",""
"html-keyboard-response","313","883486","0.0-41.48-2.48","null","","","","","","","null","","","","","","","",""
"image-selector-fb","314","886496","0.0-41.49-0.49","null","pics2/SA4.jpg,pics2/SW2.jpg","","","","","","","false","null","","","noS.png","","",""
"image-slider-2AFC","315","889013","0.0-41.49-1.49","2515","","","","-29","","","","","","","","heartS.png","1931","-29",""
"html-keyboard-response","316","889770","0.0-41.49-2.49","null","","","","","","","null","","","","","","","",""
"image-selector-fb","317","892781","0.0-41.50-0.50","null","pics2/FR6.jpg,pics2/SW5.jpg","","","","","","","false","null","","","noS.png","","",""
"image-slider-2AFC","318","896285","0.0-41.50-1.50","3501","","","","-30","","","","","","","","heartS.png","2941","-30",""
"html-keyboard-response","319","896989","0.0-41.50-2.50","null","","","","","","","null","","","","","","","",""
"image-selector-fb","320","899190","0.0-41.51-0.51","1696","pics2/SA4.jpg,pics2/FR4.jpg","","","","","","","false","0","","","heartS.png","","",""
"image-slider-2AFC","321","901502","0.0-41.51-1.51","2308","","","","26","","","","","","","","sizeS.png","1796","26",""
"html-keyboard-response","322","902309","0.0-41.51-2.51","null","","","","","","","null","","","","","","","",""
"image-selector-fb","323","905316","0.0-41.52-0.52","null","pics2/FR1.jpg,pics2/SW2.jpg","","","","","","","false","null","","","noS.png","","",""
"image-slider-2AFC","324","909449","0.0-41.52-1.52","4132","","","","26","","","","","","","","sizeS.png","3514","26",""
"html-keyboard-response","325","910302","0.0-41.52-2.52","null","","","","","","","null","","","","","","","",""
"image-selector-fb","326","912460","0.0-41.53-0.53","1655","pics2/SW2.jpg,pics2/FR5.jpg","","","","","","","true","1","","","heartS.png","","",""
"image-slider-2AFC","327","914561","0.0-41.53-1.53","2099","","","","41","","","","","","","","sizeS.png","1586","41",""
"html-keyboard-response","328","915372","0.0-41.53-2.53","null","","","","","","","null","","","","","","","",""
"image-selector-fb","329","918384","0.0-41.54-0.54","null","pics2/SA4.jpg,pics2/FR1.jpg","","","","","","","false","null","","","noS.png","","",""
"image-slider-2AFC","330","920865","0.0-41.54-1.54","2480","","","","-29","","","","","","","","heartS.png","1888","-29",""
"html-keyboard-response","331","921669","0.0-41.54-2.54","null","","","","","","","null","","","","","","","",""
"image-selector-fb","332","924677","0.0-41.55-0.55","null","pics2/SA3.jpg,pics2/SA1.jpg","","","","","","","false","null","","","noS.png","","",""
"image-slider-2AFC","333","927509","0.0-41.55-1.55","2830","","","","-29","","","","","","","","heartS.png","2190","-29",""
"html-keyboard-response","334","928215","0.0-41.55-2.55","null","","","","","","","null","","","","","","","",""
"image-selector-fb","335","931575","0.0-41.56-0.56","2852","pics2/FR2.jpg,pics2/SA1.jpg","","","","","","","false","0","","","heartS.png","","",""
"image-slider-2AFC","336","934516","0.0-41.56-1.56","2938","","","","-25","","","","","","","","sizeS.png","2338","-25",""
"html-keyboard-response","337","935370","0.0-41.56-2.56","null","","","","","","","null","","","","","","","",""
"image-selector-fb","338","936996","0.0-41.57-0.57","1124","pics2/FR5.jpg,pics2/SW5.jpg","","","","","","","false","0","","","sizeS.png","","",""
"image-slider-2AFC","339","940833","0.0-41.57-1.57","3836","","","","-35","","","","","","","","sizeS.png","1694,2454","-7,-35",""
"html-keyboard-response","340","941636","0.0-41.57-2.57","null","","","","","","","null","","","","","","","",""
"image-selector-fb","341","944210","0.0-41.58-0.58","2070","pics2/FR1.jpg,pics2/SA1.jpg","","","","","","","false","0","","","heartS.png","","",""
"image-slider-2AFC","342","947155","0.0-41.58-1.58","2943","","","","-39","","","","","","","","heartS.png","2022","-39",""
"html-keyboard-response","343","947959","0.0-41.58-2.58","null","","","","","","","null","","","","","","","",""
"image-selector-fb","344","950964","0.0-41.59-0.59","null","pics2/SA3.jpg,pics2/FR5.jpg","","","","","","","false","null","","","noS.png","","",""
"image-slider-2AFC","345","955967","0.0-41.59-1.59","null","","","","null","","","","","","","","sizeS.png","4799","21",""
"html-keyboard-response","346","956671","0.0-41.59-2.59","null","","","","","","","null","","","","","","","",""
"image-selector-fb","347","960456","0.0-41.60-0.60","3276","pics2/FR3.jpg,pics2/SA1.jpg","","","","","","","false","0","","","heartS.png","","",""
"image-slider-2AFC","348","962797","0.0-41.60-1.60","2338","","","","-30","","","","","","","","sizeS.png","1738","-30",""
"html-keyboard-response","349","963655","0.0-41.60-2.60","null","","","","","","","null","","","","","","","",""
"image-selector-fb","350","966666","0.0-41.61-0.61","null","pics2/FR2.jpg,pics2/SA1.jpg","","","","","","","false","null","","","noS.png","","",""
"image-slider-2AFC","351","970813","0.0-41.61-1.61","4144","","","","-33","","","","","","","","sizeS.png","3560","-33",""
"html-keyboard-response","352","971667","0.0-41.61-2.61","null","","","","","","","null","","","","","","","",""
"image-selector-fb","353","974673","0.0-41.62-0.62","null","pics2/FR2.jpg,pics2/SW5.jpg","","","","","","","false","null","","","noS.png","","",""
"image-slider-2AFC","354","977328","0.0-41.62-1.62","2652","","","","-46","","","","","","","","heartS.png","1947","-46",""
"html-keyboard-response","355","978034","0.0-41.62-2.62","null","","","","","","","null","","","","","","","",""
"image-selector-fb","356","981046","0.0-41.63-0.63","null","pics2/SW5.jpg,pics2/SW2.jpg","","","","","","","false","null","","","noS.png","","",""
"image-slider-2AFC","357","983937","0.0-41.63-1.63","2889","","","","40","","","","","","","","heartS.png","2352","40",""
"html-keyboard-response","358","984696","0.0-41.63-2.63","null","","","","","","","null","","","","","","","",""
"image-selector-fb","359","987702","0.0-41.64-0.64","null","pics2/SA3.jpg,pics2/SW2.jpg","","","","","","","false","null","","","noS.png","","",""
"image-slider-2AFC","360","991579","0.0-41.64-1.64","3876","","","","36","","","","","","","","heartS.png","2887","36",""
"html-keyboard-response","361","992335","0.0-41.64-2.64","null","","","","","","","null","","","","","","","",""
"image-selector-fb","362","995037","0.0-41.65-0.65","2194","pics2/FR3.jpg,pics2/FR4.jpg","","","","","","","true","1","","","heartS.png","","",""
"image-slider-2AFC","363","998692","0.0-41.65-1.65","3653","","","","35","","","","","","","","heartS.png","2613","35",""
"html-keyboard-response","364","999508","0.0-41.65-2.65","null","","","","","","","null","","","","","","","",""
"pavlovia","365","999547","0.0-42.0","","","","","","","","","","","","","","","",""
"html-keyboard-response","366","1004550","0.0-43.0","null","<div style='width: 700px;'> <font size=6><b>SHORT BREAK</font></b><br><br><i> Please wait 5 seconds to continue</i></div> ","","","","","","null","","","","","","","",""
"pavlovia","367","1004551","0.0-44.0","","","","","","","","","","","","","","","",""
"html-button-response","368","1032800","0.0-45.0","28248","<div style='width: 700px;'> <font size=6><b>BLOCK 2</font></b><br><br>Press the button whenever you feel ready to start the second block (there are 3 in total)</div>","0","","","","","","","","","","","","",""
"image-selector-fb","369","1037039","0.0-46.0-0.0","3735","pics2/FR6.jpg,pics2/FR3.jpg","","","","","","","false","0","","","sizeS.png","","",""
"image-slider-2AFC","370","1040449","0.0-46.0-1.0","3406","","","","-30","","","","","","","","heartS.png","2738","-30",""
"html-keyboard-response","371","1041206","0.0-46.0-2.0","null","","","","","","","null","","","","","","","",""
"image-selector-fb","372","1043058","0.0-46.1-0.1","1347","pics2/FR3.jpg,pics2/SW2.jpg","","","","","","","true","1","","","heartS.png","","",""
"image-slider-2AFC","373","1046983","0.0-46.1-1.1","3923","","","","33","","","","","","","","heartS.png","3459","33",""
"html-keyboard-response","374","1047841","0.0-46.1-2.1","null","","","","","","","null","","","","","","","",""
"image-selector-fb","375","1050851","0.0-46.2-0.2","null","pics2/FR2.jpg,pics2/FR4.jpg","","","","","","","false","null","","","noS.png","","",""
"image-slider-2AFC","376","1053426","0.0-46.2-1.2","2572","","","","-36","","","","","","","","heartS.png","1888","-36",""
"html-keyboard-response","377","1054232","0.0-46.2-2.2","null","","","","","","","null","","","","","","","",""
"image-selector-fb","378","1056375","0.0-46.3-0.3","1636","pics2/FR4.jpg,pics2/FR2.jpg","","","","","","","false","0","","","sizeS.png","","",""
"image-slider-2AFC","379","1058695","0.0-46.3-1.3","2317","","","","23","","","","","","","","sizeS.png","1758","23",""
"html-keyboard-response","380","1059451","0.0-46.3-2.3","null","","","","","","","null","","","","","","","",""
"image-selector-fb","381","1061969","0.0-46.4-0.4","2012","pics2/SA3.jpg,pics2/FR2.jpg","","","","","","","false","0","","","heartS.png","","",""
"image-slider-2AFC","382","1063905","0.0-46.4-1.4","1933","","","","35","","","","","","","","heartS.png","1373","35",""
"html-keyboard-response","383","1064614","0.0-46.4-2.4","null","","","","","","","null","","","","","","","",""
"image-selector-fb","384","1066607","0.0-46.5-0.5","1488","pics2/FR3.jpg,pics2/FR1.jpg","","","","","","","true","1","","","heartS.png","","",""
"image-slider-2AFC","385","1068586","0.0-46.5-1.5","1976","","","","-42","","","","","","","","heartS.png","1352","-42",""
"html-keyboard-response","386","1069393","0.0-46.5-2.5","null","","","","","","","null","","","","","","","",""
"image-selector-fb","387","1071691","0.0-46.6-0.6","1790","pics2/FR2.jpg,pics2/SW4.jpg","","","","","","","true","1","","","heartS.png","","",""
"image-slider-2AFC","388","1073903","0.0-46.6-1.6","2210","","","","31","","","","","","","","sizeS.png","1668","31",""
"html-keyboard-response","389","1074614","0.0-46.6-2.6","null","","","","","","","null","","","","","","","",""
"image-selector-fb","390","1077566","0.0-46.7-0.7","2446","pics2/SW4.jpg,pics2/SW2.jpg","","","","","","","false","0","","","heartS.png","","",""
"image-slider-2AFC","391","1080590","0.0-46.7-1.7","3022","","","","31","","","","","","","","sizeS.png","2326","31",""
"html-keyboard-response","392","1081396","0.0-46.7-2.7","null","","","","","","","null","","","","","","","",""
"image-selector-fb","393","1084406","0.0-46.8-0.8","null","pics2/FR4.jpg,pics2/FR3.jpg","","","","","","","false","null","","","noS.png","","",""
"image-slider-2AFC","394","1087623","0.0-46.8-1.8","3216","","","","-32","","","","","","","","heartS.png","2568","-32",""
"html-keyboard-response","395","1088330","0.0-46.8-2.8","null","","","","","","","null","","","","","","","",""
"image-selector-fb","396","1090698","0.0-46.9-0.9","1864","pics2/SW4.jpg,pics2/FR6.jpg","","","","","","","false","0","","","sizeS.png","","",""
"image-slider-2AFC","397","1093030","0.0-46.9-1.9","2329","","","","34","","","","","","","","sizeS.png","1784","34",""
"html-keyboard-response","398","1093744","0.0-46.9-2.9","null","","","","","","","null","","","","","","","",""
"image-selector-fb","399","1096751","0.0-46.10-0.10","null","pics2/SA3.jpg,pics2/SW5.jpg","","","","","","","false","null","","","noS.png","","",""
"image-slider-2AFC","400","1099475","0.0-46.10-1.10","2722","","","","-38","","","","","","","","sizeS.png","1845","-38",""
"html-keyboard-response","401","1100181","0.0-46.10-2.10","null","","","","","","","null","","","","","","","",""
"image-selector-fb","402","1102552","0.0-46.11-0.11","1864","pics2/FR3.jpg,pics2/FR6.jpg","","","","","","","true","1","","","heartS.png","","",""
"image-slider-2AFC","403","1104973","0.0-46.11-1.11","2419","","","","41","","","","","","","","heartS.png","1665","41",""
"html-keyboard-response","404","1105735","0.0-46.11-2.11","null","","","","","","","null","","","","","","","",""
"image-selector-fb","405","1108425","0.0-46.12-0.12","2188","pics2/FR4.jpg,pics2/SA4.jpg","","","","","","","false","0","","","sizeS.png","","",""
"image-slider-2AFC","406","1111473","0.0-46.12-1.12","3047","","","","-46","","","","","","","","heartS.png","2022","-46",""
"html-keyboard-response","407","1112230","0.0-46.12-2.12","null","","","","","","","null","","","","","","","",""
"image-selector-fb","408","1114213","0.0-46.13-0.13","1478","pics2/FR3.jpg,pics2/SW5.jpg","","","","","","","false","0","","","heartS.png","","",""
"image-slider-2AFC","409","1117119","0.0-46.13-1.13","2903","","","","-40","","","","","","","","sizeS.png","2002","-40",""
"html-keyboard-response","410","1117974","0.0-46.13-2.13","null","","","","","","","null","","","","","","","",""
"image-selector-fb","411","1120979","0.0-46.14-0.14","null","pics2/FR1.jpg,pics2/FR3.jpg","","","","","","","false","null","","","noS.png","","",""
"image-slider-2AFC","412","1123401","0.0-46.14-1.14","2418","","","","39","","","","","","","","sizeS.png","1786","39",""
"html-keyboard-response","413","1124255","0.0-46.14-2.14","null","","","","","","","null","","","","","","","",""
"image-selector-fb","414","1127266","0.0-46.15-0.15","null","pics2/FR6.jpg,pics2/FR1.jpg","","","","","","","false","null","","","noS.png","","",""
"image-slider-2AFC","415","1130400","0.0-46.15-1.15","3132","","","","-55","","","","","","","","sizeS.png","2490","-55",""
"html-keyboard-response","416","1131208","0.0-46.15-2.15","null","","","","","","","null","","","","","","","",""
"image-selector-fb","417","1134082","0.0-46.16-0.16","2365","pics2/FR2.jpg,pics2/FR4.jpg","","","","","","","true","1","","","heartS.png","","",""
"image-slider-2AFC","418","1137012","0.0-46.16-1.16","2929","","","","-37","","","","","","","","heartS.png","2262","-37",""
"html-keyboard-response","419","1137868","0.0-46.16-2.16","null","","","","","","","null","","","","","","","",""
"image-selector-fb","420","1140506","0.0-46.17-0.17","2133","pics2/FR6.jpg,pics2/SW5.jpg","","","","","","","false","0","","","sizeS.png","","",""
"image-slider-2AFC","421","1143016","0.0-46.17-1.17","2509","","","","-51","","","","","","","","heartS.png","1896","-51",""
"html-keyboard-response","422","1143727","0.0-46.17-2.17","null","","","","","","","null","","","","","","","",""
"image-selector-fb","423","1147320","0.0-46.18-0.18","3091","pics2/SW2.jpg,pics2/FR2.jpg","","","","","","","true","1","","","sizeS.png","","",""
"image-slider-2AFC","424","1149609","0.0-46.18-1.18","2288","","","","34","","","","","","","","heartS.png","1716","34",""
"html-keyboard-response","425","1150316","0.0-46.18-2.18","null","","","","","","","null","","","","","","","",""
"image-selector-fb","426","1152213","0.0-46.19-0.19","1394","pics2/FR5.jpg,pics2/FR2.jpg","","","","","","","false","0","","","sizeS.png","","",""
"image-slider-2AFC","427","1154451","0.0-46.19-1.19","2234","","","","-30","","","","","","","","heartS.png","1649","-30",""
"html-keyboard-response","428","1155152","0.0-46.19-2.19","null","","","","","","","null","","","","","","","",""
"image-selector-fb","429","1157007","0.0-46.20-0.20","1346","pics2/SW5.jpg,pics2/SW2.jpg","","","","","","","true","1","","","heartS.png","","",""
"image-slider-2AFC","430","1159005","0.0-46.20-1.20","1995","","","","28","","","","","","","","heartS.png","1490","28",""
"html-keyboard-response","431","1159710","0.0-46.20-2.20","null","","","","","","","null","","","","","","","",""
"image-selector-fb","432","1161728","0.0-46.21-0.21","1515","pics2/FR5.jpg,pics2/SW4.jpg","","","","","","","true","1","","","sizeS.png","","",""
"image-slider-2AFC","433","1163509","0.0-46.21-1.21","1777","","","","42","","","","","","","","sizeS.png","873","42",""
"html-keyboard-response","434","1164316","0.0-46.21-2.21","null","","","","","","","null","","","","","","","",""
"image-selector-fb","435","1166159","0.0-46.22-0.22","1341","pics2/SA3.jpg,pics2/SW2.jpg","","","","","","","true","1","","","heartS.png","","",""
"image-slider-2AFC","436","1168878","0.0-46.22-1.22","2717","","","","22","","","","","","","","heartS.png","2188","22",""
"html-keyboard-response","437","1169633","0.0-46.22-2.22","null","","","","","","","null","","","","","","","",""
"image-selector-fb","438","1172643","0.0-46.23-0.23","null","pics2/FR5.jpg,pics2/FR3.jpg","","","","","","","false","null","","","noS.png","","",""
"image-slider-2AFC","439","1175773","0.0-46.23-1.23","3127","","","","-25","","","","","","","","sizeS.png","2623","-25",""
"html-keyboard-response","440","1176577","0.0-46.23-2.23","null","","","","","","","null","","","","","","","",""
"image-selector-fb","441","1178689","0.0-46.24-0.24","1608","pics2/SW5.jpg,pics2/SA4.jpg","","","","","","","true","1","","","sizeS.png","","",""
"image-slider-2AFC","442","1180926","0.0-46.24-1.24","2234","","","","32","","","","","","","","sizeS.png","1649","32",""
"html-keyboard-response","443","1181728","0.0-46.24-2.24","null","","","","","","","null","","","","","","","",""
"image-selector-fb","444","1184190","0.0-46.25-0.25","1956","pics2/FR1.jpg,pics2/FR3.jpg","","","","","","","false","0","","","sizeS.png","","",""
"image-slider-2AFC","445","1186108","0.0-46.25-1.25","1917","","","","28","","","","","","","","heartS.png","1432","28",""
"html-keyboard-response","446","1186819","0.0-46.25-2.25","null","","","","","","","null","","","","","","","",""
"image-selector-fb","447","1188536","0.0-46.26-0.26","1210","pics2/FR1.jpg,pics2/SW4.jpg","","","","","","","true","1","","","heartS.png","","",""
"image-slider-2AFC","448","1193539","0.0-46.26-1.26","null","","","","null","","","","","","","","heartS.png","4484","29",""
"html-keyboard-response","449","1194291","0.0-46.26-2.26","null","","","","","","","null","","","","","","","",""
"image-selector-fb","450","1197301","0.0-46.27-0.27","null","pics2/SW4.jpg,pics2/FR1.jpg","","","","","","","false","null","","","noS.png","","",""
"image-slider-2AFC","451","1200080","0.0-46.27-1.27","2776","","","","-38","","","","","","","","sizeS.png","2140","-38",""
"html-keyboard-response","452","1200939","0.0-46.27-2.27","null","","","","","","","null","","","","","","","",""
"image-selector-fb","453","1203116","0.0-46.28-0.28","1669","pics2/SA1.jpg,pics2/SW5.jpg","","","","","","","false","0","","","sizeS.png","","",""
"image-slider-2AFC","454","1208122","0.0-46.28-1.28","null","","","","null","","","","","","","","heartS.png","4574","-27",""
"html-keyboard-response","455","1208929","0.0-46.28-2.28","null","","","","","","","null","","","","","","","",""
"image-selector-fb","456","1212429","0.0-46.29-0.29","2993","pics2/SA4.jpg,pics2/FR2.jpg","","","","","","","false","0","","","heartS.png","","",""
"image-slider-2AFC","457","1216117","0.0-46.29-1.29","3686","","","","-42","","","","","","","","sizeS.png","2909","-42",""
"html-keyboard-response","458","1216924","0.0-46.29-2.29","null","","","","","","","null","","","","","","","",""
"image-selector-fb","459","1218997","0.0-46.30-0.30","1565","pics2/SA1.jpg,pics2/SA3.jpg","","","","","","","false","0","","","sizeS.png","","",""
"image-slider-2AFC","460","1222837","0.0-46.30-1.30","3838","","","","55","","","","","","","","sizeS.png","3181","55",""
"html-keyboard-response","461","1223690","0.0-46.30-2.30","null","","","","","","","null","","","","","","","",""
"image-selector-fb","462","1225329","0.0-46.31-0.31","1130","pics2/SA4.jpg,pics2/SW5.jpg","","","","","","","false","0","","","heartS.png","","",""
"image-slider-2AFC","463","1228710","0.0-46.31-1.31","3379","","","","-29","","","","","","","","heartS.png","2802","-29",""
"html-keyboard-response","464","1229518","0.0-46.31-2.31","null","","","","","","","null","","","","","","","",""
"image-selector-fb","465","1232869","0.0-46.32-0.32","2846","pics2/SA4.jpg,pics2/FR6.jpg","","","","","","","false","0","","","heartS.png","","",""
"image-slider-2AFC","466","1235606","0.0-46.32-1.32","2735","","","","26","","","","","","","","sizeS.png","2279","26",""
"html-keyboard-response","467","1236463","0.0-46.32-2.32","null","","","","","","","null","","","","","","","",""
"image-selector-fb","468","1238038","0.0-46.33-0.33","1071","pics2/FR6.jpg,pics2/FR1.jpg","","","","","","","true","1","","","sizeS.png","","",""
"image-slider-2AFC","469","1242050","0.0-46.33-1.33","4006","","","","-31","","","","","","","","sizeS.png","3341","-31",""
"html-keyboard-response","470","1242803","0.0-46.33-2.33","null","","","","","","","null","","","","","","","",""
"image-selector-fb","471","1244993","0.0-46.34-0.34","1687","pics2/FR2.jpg,pics2/FR3.jpg","","","","","","","false","0","","","sizeS.png","","",""
"image-slider-2AFC","472","1249996","0.0-46.34-1.34","null","","","","null","","","","","","","","sizeS.png","4977","28",""
"html-keyboard-response","473","1250700","0.0-46.34-2.34","null","","","","","","","null","","","","","","","",""
"image-selector-fb","474","1254613","0.0-46.35-0.35","3408","pics2/SW5.jpg,pics2/FR4.jpg","","","","","","","true","1","","","heartS.png","","",""
"image-slider-2AFC","475","1257742","0.0-46.35-1.35","3127","","","","37","","","","","","","","heartS.png","2558","37",""
"html-keyboard-response","476","1258547","0.0-46.35-2.35","null","","","","","","","null","","","","","","","",""
"image-selector-fb","477","1260313","0.0-46.36-0.36","1262","pics2/SW2.jpg,pics2/FR3.jpg","","","","","","","false","0","","","sizeS.png","","",""
"image-slider-2AFC","478","1265214","0.0-46.36-1.36","4897","","","","39","","","","","","","","sizeS.png","4309","39",""
"html-keyboard-response","479","1266074","0.0-46.36-2.36","null","","","","","","","null","","","","","","","",""
"image-selector-fb","480","1269080","0.0-46.37-0.37","null","pics2/FR1.jpg,pics2/FR4.jpg","","","","","","","false","null","","","noS.png","","",""
"image-slider-2AFC","481","1272369","0.0-46.37-1.37","3286","","","","32","","","","","","","","heartS.png","2757","32",""
"html-keyboard-response","482","1273124","0.0-46.37-2.37","null","","","","","","","null","","","","","","","",""
"image-selector-fb","483","1275311","0.0-46.38-0.38","1682","pics2/FR6.jpg,pics2/SA3.jpg","","","","","","","true","1","","","sizeS.png","","",""
"image-slider-2AFC","484","1277771","0.0-46.38-1.38","2459","","","","-31","","","","","","","","sizeS.png","1890","-31",""
"html-keyboard-response","485","1278528","0.0-46.38-2.38","null","","","","","","","null","","","","","","","",""
"image-selector-fb","486","1281539","0.0-46.39-0.39","null","pics2/FR2.jpg,pics2/SW4.jpg","","","","","","","false","null","","","noS.png","","",""
"image-slider-2AFC","487","1284772","0.0-46.39-1.39","3230","","","","37","","","","","","","","heartS.png","2622","37",""
"html-keyboard-response","488","1285630","0.0-46.39-2.39","null","","","","","","","null","","","","","","","",""
"image-selector-fb","489","1288643","0.0-46.40-0.40","null","pics2/SW5.jpg,pics2/SA1.jpg","","","","","","","false","null","","","noS.png","","",""
"image-slider-2AFC","490","1291804","0.0-46.40-1.40","3158","","","","43","","","","","","","","heartS.png","2594","43",""
"html-keyboard-response","491","1292565","0.0-46.40-2.40","null","","","","","","","null","","","","","","","",""
"image-selector-fb","492","1294724","0.0-46.41-0.41","1655","pics2/FR2.jpg,pics2/SA4.jpg","","","","","","","false","0","","","sizeS.png","","",""
"image-slider-2AFC","493","1297010","0.0-46.41-1.41","2283","","","","43","","","","","","","","sizeS.png","1681","43",""
"html-keyboard-response","494","1297816","0.0-46.41-2.41","null","","","","","","","null","","","","","","","",""
"image-selector-fb","495","1300360","0.0-46.42-0.42","2038","pics2/SA1.jpg,pics2/SW2.jpg","","","","","","","false","0","","","sizeS.png","","",""
"image-slider-2AFC","496","1303646","0.0-46.42-1.42","3283","","","","40","","","","","","","","sizeS.png","2778","40",""
"html-keyboard-response","497","1304405","0.0-46.42-2.42","null","","","","","","","null","","","","","","","",""
"image-selector-fb","498","1306262","0.0-46.43-0.43","1348","pics2/SW5.jpg,pics2/FR5.jpg","","","","","","","true","1","","","heartS.png","","",""
"image-slider-2AFC","499","1310215","0.0-46.43-1.43","3951","","","","-31","","","","","","","","sizeS.png","3247","-31",""
"html-keyboard-response","500","1311068","0.0-46.43-2.43","null","","","","","","","null","","","","","","","",""
"image-selector-fb","501","1313980","0.0-46.44-0.44","2408","pics2/FR1.jpg,pics2/FR4.jpg","","","","","","","true","1","","","heartS.png","","",""
"image-slider-2AFC","502","1316207","0.0-46.44-1.44","2224","","","","36","","","","","","","","sizeS.png","1623","36",""
"html-keyboard-response","503","1316960","0.0-46.44-2.44","null","","","","","","","null","","","","","","","",""
"image-selector-fb","504","1319856","0.0-46.45-0.45","2387","pics2/SW5.jpg,pics2/SW4.jpg","","","","","","","true","1","","","heartS.png","","",""
"image-slider-2AFC","505","1322641","0.0-46.45-1.45","2782","","","","29","","","","","","","","sizeS.png","2246","29",""
"html-keyboard-response","506","1323348","0.0-46.45-2.45","null","","","","","","","null","","","","","","","",""
"image-selector-fb","507","1327332","0.0-46.46-0.46","3476","pics2/SW5.jpg,pics2/SA3.jpg","","","","","","","true","1","","","sizeS.png","","",""
"image-slider-2AFC","508","1329865","0.0-46.46-1.46","2531","","","","33","","","","","","","","heartS.png","1995","33",""
"html-keyboard-response","509","1330722","0.0-46.46-2.46","null","","","","","","","null","","","","","","","",""
"image-selector-fb","510","1333733","0.0-46.47-0.47","null","pics2/FR6.jpg,pics2/SW2.jpg","","","","","","","false","null","","","noS.png","","",""
"image-slider-2AFC","511","1338736","0.0-46.47-1.47","null","","","","null","","","","","","","","sizeS.png","4894","-30",""
"html-keyboard-response","512","1339542","0.0-46.47-2.47","null","","","","","","","null","","","","","","","",""
"image-selector-fb","513","1343188","0.0-46.48-0.48","3143","pics2/SW5.jpg,pics2/FR2.jpg","","","","","","","true","1","","","sizeS.png","","",""
"image-slider-2AFC","514","1345533","0.0-46.48-1.48","2343","","","","33","","","","","","","","heartS.png","1830","33",""
"html-keyboard-response","515","1346392","0.0-46.48-2.48","null","","","","","","","null","","","","","","","",""
"image-selector-fb","516","1348836","0.0-46.49-0.49","1939","pics2/FR6.jpg,pics2/SA1.jpg","","","","","","","true","1","","","heartS.png","","",""
"image-slider-2AFC","517","1351384","0.0-46.49-1.49","2546","","","","-38","","","","","","","","heartS.png","1937","-38",""
"html-keyboard-response","518","1352144","0.0-46.49-2.49","null","","","","","","","null","","","","","","","",""
"image-selector-fb","519","1355225","0.0-46.50-0.50","2575","pics2/SW4.jpg,pics2/SW5.jpg","","","","","","","false","0","","","sizeS.png","","",""
"image-slider-2AFC","520","1357887","0.0-46.50-1.50","2659","","","","-34","","","","","","","","heartS.png","2132","-34",""
"html-keyboard-response","521","1358644","0.0-46.50-2.50","null","","","","","","","null","","","","","","","",""
"image-selector-fb","522","1361651","0.0-46.51-0.51","null","pics2/SA4.jpg,pics2/FR3.jpg","","","","","","","false","null","","","noS.png","","",""
"image-slider-2AFC","523","1364444","0.0-46.51-1.51","2790","","","","34","","","","","","","","heartS.png","1901","34",""
"html-keyboard-response","524","1365296","0.0-46.51-2.51","null","","","","","","","null","","","","","","","",""
"image-selector-fb","525","1368187","0.0-46.52-0.52","2384","pics2/FR1.jpg,pics2/FR5.jpg","","","","","","","false","0","","","heartS.png","","",""
"image-slider-2AFC","526","1371020","0.0-46.52-1.52","2832","","","","24","","","","","","","","heartS.png","1983","24",""
"html-keyboard-response","527","1371877","0.0-46.52-2.52","null","","","","","","","null","","","","","","","",""
"image-selector-fb","528","1374253","0.0-46.53-0.53","1867","pics2/SA1.jpg,pics2/FR3.jpg","","","","","","","false","0","","","sizeS.png","","",""
"image-slider-2AFC","529","1377988","0.0-46.53-1.53","3733","","","","33","","","","","","","","heartS.png","2816","33",""
"html-keyboard-response","530","1378746","0.0-46.53-2.53","null","","","","","","","null","","","","","","","",""
"image-selector-fb","531","1381086","0.0-46.54-0.54","1832","pics2/FR2.jpg,pics2/FR1.jpg","","","","","","","true","1","","","sizeS.png","","",""
"image-slider-2AFC","532","1383650","0.0-46.54-1.54","2563","","","","-38","","","","","","","","heartS.png","1959","-38",""
"html-keyboard-response","533","1384508","0.0-46.54-2.54","null","","","","","","","null","","","","","","","",""
"image-selector-fb","534","1387120","0.0-46.55-0.55","2108","pics2/SW4.jpg,pics2/FR5.jpg","","","","","","","false","0","","","heartS.png","","",""
"image-slider-2AFC","535","1389858","0.0-46.55-1.55","2735","","","","-31","","","","","","","","heartS.png","2106","-31",""
"html-keyboard-response","536","1390662","0.0-46.55-2.55","null","","","","","","","null","","","","","","","",""
"image-selector-fb","537","1392714","0.0-46.56-0.56","1548","pics2/FR3.jpg,pics2/SA3.jpg","","","","","","","false","0","","","sizeS.png","","",""
"image-slider-2AFC","538","1395155","0.0-46.56-1.56","2440","","","","-32","","","","","","","","heartS.png","1822","-32",""
"html-keyboard-response","539","1395957","0.0-46.56-2.56","null","","","","","","","null","","","","","","","",""
"image-selector-fb","540","1397714","0.0-46.57-0.57","1250","pics2/FR6.jpg,pics2/FR4.jpg","","","","","","","true","1","","","heartS.png","","",""
"image-slider-2AFC","541","1402152","0.0-46.57-1.57","4436","","","","34","","","","","","","","sizeS.png","3970","34",""
"html-keyboard-response","542","1402860","0.0-46.57-2.57","null","","","","","","","null","","","","","","","",""
"image-selector-fb","543","1404897","0.0-46.58-0.58","1531","pics2/FR1.jpg,pics2/SA3.jpg","","","","","","","false","0","","","sizeS.png","","",""
"image-slider-2AFC","544","1407305","0.0-46.58-1.58","2406","","","","33","","","","","","","","sizeS.png","1885","33",""
"html-keyboard-response","545","1408008","0.0-46.58-2.58","null","","","","","","","null","","","","","","","",""
"image-selector-fb","546","1411015","0.0-46.59-0.59","null","pics2/FR6.jpg,pics2/SW4.jpg","","","","","","","false","null","","","noS.png","","",""
"image-slider-2AFC","547","1414185","0.0-46.59-1.59","3168","","","","35","","","","","","","","heartS.png","2545","35",""
"html-keyboard-response","548","1414992","0.0-46.59-2.59","null","","","","","","","null","","","","","","","",""
"image-selector-fb","549","1418003","0.0-46.60-0.60","null","pics2/SW4.jpg,pics2/SW2.jpg","","","","","","","false","null","","","noS.png","","",""
"image-slider-2AFC","550","1420591","0.0-46.60-1.60","2585","","","","-37","","","","","","","","sizeS.png","1998","-37",""
"html-keyboard-response","551","1421300","0.0-46.60-2.60","null","","","","","","","null","","","","","","","",""
"image-selector-fb","552","1423288","0.0-46.61-0.61","1484","pics2/SW5.jpg,pics2/FR3.jpg","","","","","","","false","0","","","sizeS.png","","",""
"image-slider-2AFC","553","1425529","0.0-46.61-1.61","2237","","","","35","","","","","","","","sizeS.png","1705","35",""
"html-keyboard-response","554","1426384","0.0-46.61-2.61","null","","","","","","","null","","","","","","","",""
"image-selector-fb","555","1430733","0.0-46.62-0.62","3841","pics2/FR2.jpg,pics2/FR6.jpg","","","","","","","false","0","","","heartS.png","","",""
"image-slider-2AFC","556","1433453","0.0-46.62-1.62","2718","","","","-31","","","","","","","","heartS.png","2126","-31",""
"html-keyboard-response","557","1434261","0.0-46.62-2.62","null","","","","","","","null","","","","","","","",""
"image-selector-fb","558","1437275","0.0-46.63-0.63","null","pics2/SA1.jpg,pics2/FR3.jpg","","","","","","","false","null","","","noS.png","","",""
"image-slider-2AFC","559","1440318","0.0-46.63-1.63","3040","","","","44","","","","","","","","sizeS.png","2415","44",""
"html-keyboard-response","560","1441174","0.0-46.63-2.63","null","","","","","","","null","","","","","","","",""
"image-selector-fb","561","1444181","0.0-46.64-0.64","null","pics2/SW5.jpg,pics2/FR3.jpg","","","","","","","false","null","","","noS.png","","",""
"image-slider-2AFC","562","1447197","0.0-46.64-1.64","3014","","","","46","","","","","","","","heartS.png","2405","46",""
"html-keyboard-response","563","1448057","0.0-46.64-2.64","null","","","","","","","null","","","","","","","",""
"image-selector-fb","564","1450895","0.0-46.65-0.65","2334","pics2/FR3.jpg,pics2/FR5.jpg","","","","","","","false","0","","","heartS.png","","",""
"image-slider-2AFC","565","1453610","0.0-46.65-1.65","2712","","","","-26","","","","","","","","sizeS.png","2072","-26",""
"html-keyboard-response","566","1454318","0.0-46.65-2.65","null","","","","","","","null","","","","","","","",""
"pavlovia","567","1454341","0.0-47.0","","","","","","","","","","","","","","","",""
"html-keyboard-response","568","1459348","0.0-48.0","null","<div style='width: 700px;'> <font size=6><b>SHORT BREAK</font></b><br><br><i> Please wait 5 seconds to continue</i></div> ","","","","","","null","","","","","","","",""
"pavlovia","569","1459352","0.0-49.0","","","","","","","","","","","","","","","",""
"html-button-response","570","1651420","0.0-50.0","192066","<div style='width: 700px;'> <font size=6><b>BLOCK 3</font></b><br><br>Press the button whenever you feel ready to start the third and final block</div>","0","","","","","","","","","","","","",""
"image-selector-fb","571","1655927","0.0-51.0-0.0","null","pics2/FR5.jpg,pics2/SA3.jpg","","","","","","","false","null","","","sizeS.png","","",""
"image-slider-2AFC","572","1655927","0.0-51.0-1.0","null","","","","null","","","","","","","","heartS.png","","",""
"html-keyboard-response","573","1656631","0.0-51.0-2.0","null","","","","","","","null","","","","","","","",""
"image-selector-fb","574","1658782","0.0-51.1-0.1","1642","pics2/SW4.jpg,pics2/SA4.jpg","","","","","","","false","0","","","sizeS.png","","",""
"image-slider-2AFC","575","1662766","0.0-51.1-1.1","3982","","","","24","","","","","","","","heartS.png","3557","24",""
"html-keyboard-response","576","1663524","0.0-51.1-2.1","null","","","","","","","null","","","","","","","",""
"image-selector-fb","577","1665187","0.0-51.2-0.2","1158","pics2/SA3.jpg,pics2/FR5.jpg","","","","","","","false","0","","","heartS.png","","",""
"image-slider-2AFC","578","1668857","0.0-51.2-1.2","3668","","","","32","","","","","","","","sizeS.png","2867","32",""
"html-keyboard-response","579","1669661","0.0-51.2-2.2","null","","","","","","","null","","","","","","","",""
"image-selector-fb","580","1672170","0.0-51.3-0.3","2001","pics2/FR2.jpg,pics2/FR5.jpg","","","","","","","false","0","","","heartS.png","","",""
"image-slider-2AFC","581","1675509","0.0-51.3-1.3","3336","","","","-32","","","","","","","","sizeS.png","2728","-32",""
"html-keyboard-response","582","1676269","0.0-51.3-2.3","null","","","","","","","null","","","","","","","",""
"image-selector-fb","583","1679282","0.0-51.4-0.4","null","pics2/SW2.jpg,pics2/FR3.jpg","","","","","","","false","null","","","noS.png","","",""
"image-slider-2AFC","584","1682279","0.0-51.4-1.4","2996","","","","34","","","","","","","","heartS.png","2299","34",""
"html-keyboard-response","585","1683141","0.0-51.4-2.4","null","","","","","","","null","","","","","","","",""
"image-selector-fb","586","1685649","0.0-51.5-0.5","1999","pics2/FR4.jpg,pics2/SA3.jpg","","","","","","","true","1","","","sizeS.png","","",""
"image-slider-2AFC","587","1689099","0.0-51.5-1.5","3447","","","","-33","","","","","","","","sizeS.png","2816","-33",""
"html-keyboard-response","588","1689854","0.0-51.5-2.5","null","","","","","","","null","","","","","","","",""
"image-selector-fb","589","1692717","0.0-51.6-0.6","2353","pics2/SW2.jpg,pics2/SA3.jpg","","","","","","","false","0","","","sizeS.png","","",""
"image-slider-2AFC","590","1697720","0.0-51.6-1.6","null","","","","null","","","","","","","","heartS.png","4356","-23",""
"html-keyboard-response","591","1698527","0.0-51.6-2.6","null","","","","","","","null","","","","","","","",""
"image-selector-fb","592","1701532","0.0-51.7-0.7","null","pics2/FR6.jpg,pics2/SA4.jpg","","","","","","","false","null","","","noS.png","","",""
"image-slider-2AFC","593","1704541","0.0-51.7-1.7","3007","","","","34","","","","","","","","sizeS.png","2301","34",""
"html-keyboard-response","594","1705295","0.0-51.7-2.7","null","","","","","","","null","","","","","","","",""
"image-selector-fb","595","1707614","0.0-51.8-0.8","1814","pics2/SW2.jpg,pics2/SW4.jpg","","","","","","","false","0","","","sizeS.png","","",""
"image-slider-2AFC","596","1709650","0.0-51.8-1.8","2034","","","","28","","","","","","","","sizeS.png","1529","28",""
"html-keyboard-response","597","1710358","0.0-51.8-2.8","null","","","","","","","null","","","","","","","",""
"image-selector-fb","598","1712431","0.0-51.9-0.9","1565","pics2/SW4.jpg,pics2/SA1.jpg","","","","","","","true","1","","","heartS.png","","",""
"image-slider-2AFC","599","1714859","0.0-51.9-1.9","2426","","","","-31","","","","","","","","heartS.png","1802","-31",""
"html-keyboard-response","600","1715712","0.0-51.9-2.9","null","","","","","","","null","","","","","","","",""
"image-selector-fb","601","1717962","0.0-51.10-0.10","1744","pics2/SW4.jpg,pics2/FR1.jpg","","","","","","","true","1","","","sizeS.png","","",""
"image-slider-2AFC","602","1720973","0.0-51.10-1.10","3010","","","","-25","","","","","","","","sizeS.png","2410","-25",""
"html-keyboard-response","603","1721779","0.0-51.10-2.10","null","","","","","","","null","","","","","","","",""
"image-selector-fb","604","1725023","0.0-51.11-0.11","2740","pics2/FR1.jpg,pics2/SA4.jpg","","","","","","","true","1","","","heartS.png","","",""
"image-slider-2AFC","605","1728601","0.0-51.11-1.11","3576","","","","27","","","","","","","","heartS.png","2207","27",""
"html-keyboard-response","606","1729305","0.0-51.11-2.11","null","","","","","","","null","","","","","","","",""
"image-selector-fb","607","1733031","0.0-51.12-0.12","3214","pics2/FR4.jpg,pics2/FR1.jpg","","","","","","","true","1","","","sizeS.png","","",""
"image-slider-2AFC","608","1735561","0.0-51.12-1.12","2527","","","","-36","","","","","","","","sizeS.png","1975","-36",""
"html-keyboard-response","609","1736266","0.0-51.12-2.12","null","","","","","","","null","","","","","","","",""
"image-selector-fb","610","1739098","0.0-51.13-0.13","2328","pics2/SA3.jpg,pics2/FR1.jpg","","","","","","","true","1","","","heartS.png","","",""
"image-slider-2AFC","611","1741787","0.0-51.13-1.13","2687","","","","-32","","","","","","","","heartS.png","2022","-32",""
"html-keyboard-response","612","1742542","0.0-51.13-2.13","null","","","","","","","null","","","","","","","",""
"image-selector-fb","613","1744311","0.0-51.14-0.14","1261","pics2/FR5.jpg,pics2/FR3.jpg","","","","","","","false","0","","","sizeS.png","","",""
"image-slider-2AFC","614","1747441","0.0-51.14-1.14","3128","","","","32","","","","","","","","sizeS.png","2656","32",""
"html-keyboard-response","615","1748199","0.0-51.14-2.14","null","","","","","","","null","","","","","","","",""
"image-selector-fb","616","1750245","0.0-51.15-0.15","1541","pics2/SA3.jpg,pics2/FR3.jpg","","","","","","","true","1","","","heartS.png","","",""
"image-slider-2AFC","617","1753335","0.0-51.15-1.15","3089","","","","39","","","","","","","","sizeS.png","2549","39",""
"html-keyboard-response","618","1754192","0.0-51.15-2.15","null","","","","","","","null","","","","","","","",""
"image-selector-fb","619","1756883","0.0-51.16-0.16","2182","pics2/FR4.jpg,pics2/FR3.jpg","","","","","","","false","0","","","sizeS.png","","",""
"image-slider-2AFC","620","1759337","0.0-51.16-1.16","2452","","","","-33","","","","","","","","heartS.png","1883","-33",""
"html-keyboard-response","621","1760092","0.0-51.16-2.16","null","","","","","","","null","","","","","","","",""
"image-selector-fb","622","1761841","0.0-51.17-0.17","1234","pics2/SW2.jpg,pics2/FR4.jpg","","","","","","","true","1","","","heartS.png","","",""
"image-slider-2AFC","623","1764227","0.0-51.17-1.17","2384","","","","32","","","","","","","","heartS.png","1816","32",""
"html-keyboard-response","624","1765034","0.0-51.17-2.17","null","","","","","","","null","","","","","","","",""
"image-selector-fb","625","1767721","0.0-51.18-0.18","2171","pics2/FR3.jpg,pics2/FR2.jpg","","","","","","","true","1","","","heartS.png","","",""
"image-slider-2AFC","626","1769949","0.0-51.18-1.18","2225","","","","-34","","","","","","","","heartS.png","1633","-34",""
"html-keyboard-response","627","1770757","0.0-51.18-2.18","null","","","","","","","null","","","","","","","",""
"image-selector-fb","628","1772597","0.0-51.19-0.19","1335","pics2/SW5.jpg,pics2/SA1.jpg","","","","","","","true","1","","","heartS.png","","",""
"image-slider-2AFC","629","1775299","0.0-51.19-1.19","2700","","","","40","","","","","","","","sizeS.png","2100","40",""
"html-keyboard-response","630","1776053","0.0-51.19-2.19","null","","","","","","","null","","","","","","","",""
"image-selector-fb","631","1779774","0.0-51.20-0.20","3213","pics2/FR5.jpg,pics2/FR4.jpg","","","","","","","true","1","","","heartS.png","","",""
"image-slider-2AFC","632","1782604","0.0-51.20-1.20","2829","","","","22","","","","","","","","heartS.png","2292","22",""
"html-keyboard-response","633","1783307","0.0-51.20-2.20","null","","","","","","","null","","","","","","","",""
"image-selector-fb","634","1786318","0.0-51.21-0.21","null","pics2/FR6.jpg,pics2/FR4.jpg","","","","","","","false","null","","","noS.png","","",""
"image-slider-2AFC","635","1791327","0.0-51.21-1.21","null","","","","null","","","","","","","","heartS.png","","",""
"html-keyboard-response","636","1792080","0.0-51.21-2.21","null","","","","","","","null","","","","","","","",""
"image-selector-fb","637","1795094","0.0-51.22-0.22","null","pics2/SA4.jpg,pics2/SW5.jpg","","","","","","","false","null","","","noS.png","","",""
"image-slider-2AFC","638","1798963","0.0-51.22-1.22","3867","","","","53","","","","","","","","sizeS.png","2626","53",""
"html-keyboard-response","639","1799818","0.0-51.22-2.22","null","","","","","","","null","","","","","","","",""
"image-selector-fb","640","1803281","0.0-51.23-0.23","2959","pics2/FR6.jpg,pics2/FR5.jpg","","","","","","","false","0","","","heartS.png","","",""
"image-slider-2AFC","641","1808284","0.0-51.23-1.23","null","","","","null","","","","","","","","heartS.png","4242","26",""
"html-keyboard-response","642","1808988","0.0-51.23-2.23","null","","","","","","","null","","","","","","","",""
"image-selector-fb","643","1811995","0.0-51.24-0.24","null","pics2/SA3.jpg,pics2/SW4.jpg","","","","","","","false","null","","","noS.png","","",""
"image-slider-2AFC","644","1815298","0.0-51.24-1.24","3302","","","","40","","","","","","","","sizeS.png","2763","40",""
"html-keyboard-response","645","1816105","0.0-51.24-2.24","null","","","","","","","null","","","","","","","",""
"image-selector-fb","646","1819316","0.0-51.25-0.25","2700","pics2/SW2.jpg,pics2/SW5.jpg","","","","","","","false","0","","","sizeS.png","","",""
"image-slider-2AFC","647","1822468","0.0-51.25-1.25","3151","","","","-29","","","","","","","","sizeS.png","2519","-29",""
"html-keyboard-response","648","1823328","0.0-51.25-2.25","null","","","","","","","null","","","","","","","",""
"image-selector-fb","649","1826650","0.0-51.26-0.26","2818","pics2/FR3.jpg,pics2/SA4.jpg","","","","","","","true","1","","","heartS.png","","",""
"image-slider-2AFC","650","1830949","0.0-51.26-1.26","4297","","","","-37","","","","","","","","sizeS.png","3672","-37",""
"html-keyboard-response","651","1831810","0.0-51.26-2.26","null","","","","","","","null","","","","","","","",""
"image-selector-fb","652","1834816","0.0-51.27-0.27","null","pics2/SW2.jpg,pics2/SA1.jpg","","","","","","","false","null","","","noS.png","","",""
"image-slider-2AFC","653","1837839","0.0-51.27-1.27","3021","","","","-40","","","","","","","","heartS.png","2395","-40",""
"html-keyboard-response","654","1838695","0.0-51.27-2.27","null","","","","","","","null","","","","","","","",""
"image-selector-fb","655","1840432","0.0-51.28-0.28","1232","pics2/FR5.jpg,pics2/SA1.jpg","","","","","","","true","1","","","heartS.png","","",""
"image-slider-2AFC","656","1844151","0.0-51.28-1.28","3715","","","","-52","","","","","","","","sizeS.png","3000","-52",""
"html-keyboard-response","657","1844859","0.0-51.28-2.28","null","","","","","","","null","","","","","","","",""
"image-selector-fb","658","1848182","0.0-51.29-0.29","2818","pics2/SW5.jpg,pics2/FR1.jpg","","","","","","","true","1","","","sizeS.png","","",""
"image-slider-2AFC","659","1850401","0.0-51.29-1.29","2217","","","","26","","","","","","","","heartS.png","1714","26",""
"html-keyboard-response","660","1851109","0.0-51.29-2.29","null","","","","","","","null","","","","","","","",""
"image-selector-fb","661","1852962","0.0-51.30-0.30","1349","pics2/SA4.jpg,pics2/SW2.jpg","","","","","","","true","1","","","heartS.png","","",""
"image-slider-2AFC","662","1856523","0.0-51.30-1.30","3558","","","","-29","","","","","","","","sizeS.png","2924","-29",""
"html-keyboard-response","663","1857380","0.0-51.30-2.30","null","","","","","","","null","","","","","","","",""
"image-selector-fb","664","1860059","0.0-51.31-0.31","2170","pics2/SA3.jpg,pics2/SW5.jpg","","","","","","","false","0","","","heartS.png","","",""
"image-slider-2AFC","665","1862959","0.0-51.31-1.31","2897","","","","-33","","","","","","","","sizeS.png","2334","-33",""
"html-keyboard-response","666","1863662","0.0-51.31-2.31","null","","","","","","","null","","","","","","","",""
"image-selector-fb","667","1866885","0.0-51.32-0.32","2715","pics2/SA4.jpg,pics2/FR1.jpg","","","","","","","true","1","","","sizeS.png","","",""
"image-slider-2AFC","668","1871888","0.0-51.32-1.32","null","","","","null","","","","","","","","sizeS.png","","",""
"html-keyboard-response","669","1872594","0.0-51.32-2.32","null","","","","","","","null","","","","","","","",""
"image-selector-fb","670","1874688","0.0-51.33-0.33","1585","pics2/FR4.jpg,pics2/FR5.jpg","","","","","","","false","0","","","sizeS.png","","",""
"image-slider-2AFC","671","1878149","0.0-51.33-1.33","3459","","","","-30","","","","","","","","heartS.png","2859","-30",""
"html-keyboard-response","672","1878856","0.0-51.33-2.33","null","","","","","","","null","","","","","","","",""
"image-selector-fb","673","1881571","0.0-51.34-0.34","2210","pics2/SA3.jpg,pics2/SA4.jpg","","","","","","","false","0","","","heartS.png","","",""
"image-slider-2AFC","674","1884351","0.0-51.34-1.34","2776","","","","-29","","","","","","","","sizeS.png","1998","-29",""
"html-keyboard-response","675","1885209","0.0-51.34-2.34","null","","","","","","","null","","","","","","","",""
"image-selector-fb","676","1888217","0.0-51.35-0.35","null","pics2/FR6.jpg,pics2/FR5.jpg","","","","","","","false","null","","","noS.png","","",""
"image-slider-2AFC","677","1890651","0.0-51.35-1.35","2432","","","","39","","","","","","","","heartS.png","1857","39",""
"html-keyboard-response","678","1891511","0.0-51.35-2.35","null","","","","","","","null","","","","","","","",""
"image-selector-fb","679","1894525","0.0-51.36-0.36","null","pics2/FR5.jpg,pics2/SA1.jpg","","","","","","","false","null","","","noS.png","","",""
"image-slider-2AFC","680","1898588","0.0-51.36-1.36","4061","","","","-51","","","","","","","","sizeS.png","3422","-51",""
"html-keyboard-response","681","1899445","0.0-51.36-2.36","null","","","","","","","null","","","","","","","",""
"image-selector-fb","682","1902458","0.0-51.37-0.37","null","pics2/SW5.jpg,pics2/FR4.jpg","","","","","","","false","null","","","noS.png","","",""
"image-slider-2AFC","683","1905249","0.0-51.37-1.37","2788","","","","43","","","","","","","","sizeS.png","1972","43",""
"html-keyboard-response","684","1905955","0.0-51.37-2.37","null","","","","","","","null","","","","","","","",""
"image-selector-fb","685","1907800","0.0-51.38-0.38","1338","pics2/SA1.jpg,pics2/FR4.jpg","","","","","","","false","0","","","sizeS.png","","",""
"image-slider-2AFC","686","1910193","0.0-51.38-1.38","2392","","","","27","","","","","","","","sizeS.png","1791","27",""
"html-keyboard-response","687","1910898","0.0-51.38-2.38","null","","","","","","","null","","","","","","","",""
"image-selector-fb","688","1913301","0.0-51.39-0.39","1899","pics2/FR4.jpg,pics2/SW2.jpg","","","","","","","true","1","","","sizeS.png","","",""
"image-slider-2AFC","689","1916284","0.0-51.39-1.39","2980","","","","-43","","","","","","","","sizeS.png","2324","-43",""
"html-keyboard-response","690","1917091","0.0-51.39-2.39","null","","","","","","","null","","","","","","","",""
"image-selector-fb","691","1919025","0.0-51.40-0.40","1430","pics2/FR5.jpg,pics2/SW2.jpg","","","","","","","true","1","","","sizeS.png","","",""
"image-slider-2AFC","692","1922626","0.0-51.40-1.40","3599","","","","30","","","","","","","","heartS.png","3082","30",""
"html-keyboard-response","693","1923483","0.0-51.40-2.40","null","","","","","","","null","","","","","","","",""
"image-selector-fb","694","1926012","0.0-51.41-0.41","2024","pics2/SA1.jpg,pics2/SW4.jpg","","","","","","","false","0","","","sizeS.png","","",""
"image-slider-2AFC","695","1928868","0.0-51.41-1.41","2854","","","","27","","","","","","","","heartS.png","2334","27",""
"html-keyboard-response","696","1929722","0.0-51.41-2.41","null","","","","","","","null","","","","","","","",""
"image-selector-fb","697","1932871","0.0-51.42-0.42","2645","pics2/SW4.jpg,pics2/FR3.jpg","","","","","","","true","1","","","sizeS.png","","",""
"image-slider-2AFC","698","1937423","0.0-51.42-1.42","4550","","","","-28","","","","","","","","heartS.png","4012","-28",""
"html-keyboard-response","699","1938281","0.0-51.42-2.42","null","","","","","","","null","","","","","","","",""
"image-selector-fb","700","1941288","0.0-51.43-0.43","null","pics2/SA3.jpg,pics2/SA4.jpg","","","","","","","false","null","","","noS.png","","",""
"image-slider-2AFC","701","1944795","0.0-51.43-1.43","3504","","","","30","","","","","","","","heartS.png","2911","30",""
"html-keyboard-response","702","1945601","0.0-51.43-2.43","null","","","","","","","null","","","","","","","",""
"image-selector-fb","703","1948612","0.0-51.44-0.44","null","pics2/FR6.jpg,pics2/SA3.jpg","","","","","","","false","null","","","noS.png","","",""
"image-slider-2AFC","704","1951098","0.0-51.44-1.44","2484","","","","-30","","","","","","","","heartS.png","1883","-30",""
"html-keyboard-response","705","1951952","0.0-51.44-2.44","null","","","","","","","null","","","","","","","",""
"image-selector-fb","706","1953426","0.0-51.45-0.45","965","pics2/SW4.jpg,pics2/SA3.jpg","","","","","","","false","0","","","sizeS.png","","",""
"image-slider-2AFC","707","1956752","0.0-51.45-1.45","3323","","","","-28","","","","","","","","sizeS.png","2727","-28",""
"html-keyboard-response","708","1957454","0.0-51.45-2.45","null","","","","","","","null","","","","","","","",""
"image-selector-fb","709","1959890","0.0-51.46-0.46","1929","pics2/SW2.jpg,pics2/FR6.jpg","","","","","","","false","0","","","sizeS.png","","",""
"image-slider-2AFC","710","1963531","0.0-51.46-1.46","3638","","","","33","","","","","","","","heartS.png","3054","33",""
