"trial_type","trial_index","time_elapsed","internal_node_id","rt","stimulus","button_pressed","success","response","cat","value","key_press","correct","image_click","first_click_rt","first_click_val","symbol","all_click_rt","all_click_val","view_history"
"pavlovia","0","10","0.0-0.0","","","","","","","","","","","","","","","",""
"html-button-response","1","2235","0.0-1.0","2220","<div style='width: 700px; font-size: 150%'><font size='40'>  Welcome to our study!</font><br><br><br> <small> Our experiment is about <i>decision making</i>. You will choose and rate different food items, such as these: <br><br> <div><img src='food_combo2.png', height = '400px'></img></div>","0","","","","","","","","","","","","",""
"html-button-response","2","17255","0.0-2.0","15010","<div style='width: 700px; font-size: 150%'><br><br><br><small> <u><i>This is a multi-part study.</i></u><br><br> In the first part you will rate 24 food items twice.<br><br><div><img src=""rat1.png"" style=""width: 25%""></img></div><br>In the second part (longest) you will make repeated choices and judgements concerning the food items.<br><br><div><img src=""mainx.png"" style=""width: 50%""></img></div><br>In the third and final part, you will rate the items again and answer few short questionnaires.<br><br><div><img src=""rat2.png"" style=""width: 50%""></img></div><br><br>","0","","","","","","","","","","","","",""
"fullscreen","3","26659","0.0-3.0","","","","true","","","","","","","","","","","",""
"html-button-response","4","30835","0.0-4.0","4173","<div style='width: 900px; font-size: 150%;' <font size='20%'> In the first part of the task you will use the mouse to rate food items on <i>2 scales</i> </font></div><br><br><div style='width: 900px'><div style='float: left; width: 50%; margin-right:2.5em'><img src='heartS.png'></img><p class='small' style='text-align: justify'>When you see the heart cue you will rate food items in terms of how much like them/would like to eat them <i>right now</i>. You will rate them on a continuous scale from left (strong dislike) to right (strong liking). Before submitting your rating, try imagining how the item tastes and how much you desire it.<br><br></p></div><div ><img src='sizeS.png'></img><p class='small' style='text-align: justify'>When you see the size cue, you will rate the same food items in terms of their size. The scale goes from left (tiny) to right (very large). You should assess picture size <i><u>relative</i></u> to the white background. <b>Remember:</b> rate the size of the picture, <u>not</u> the size of the item in real life. </p></div><div style='width: 900px'><br><br><b><i>Notice:</b> by starting the rating you agree that your sumbission might be rejected at an early stage and the experiment might end, if your size ratings are not at least modestly related to objective sizes, or if you repeat the same value ratings too many times. If you don't agree, please exit by closing the browser window. </i><br><br><br>","0","","","","","","","","","","","","",""
"html-button-response","5","32640","0.0-5.0","1803","<div><img src='heartS.png'></img></div><br><div style='text-align: justify; width: 700px'>Using the mouse, rate the <b><i>likeness</b></i> of the food items (how much you like them/would like to eat them <i>right now</i>). Far right-end of the scale indicates an item you <i>like a lot</i>. Far left-end indicates an item you <i>dislike a lot</i>. Think about each answer.   <ul><li>Try <b><i>not</b></i> to give identical rating to different items.</li><li>Use the whole scale, and <b><i>not</b></i> just the extremes</ul></div><br>","0","","","","","","","","","","","","",""
"image-slider-response","6","39628","0.0-6.0-0.0-0.0","6977","pics2/FR4.jpg","","","87","FR","","","","","","","","","",""
"image-slider-response","7","45574","0.0-6.0-0.0-0.1","5737","pics2/VE1.jpg","","","68","VE","","","","","","","","","",""
"image-slider-response","8","48600","0.0-6.0-0.0-0.2","2821","pics2/FR2.jpg","","","100","FR","","","","","","","","","",""
"image-slider-response","9","52858","0.0-6.0-0.0-0.3","4054","pics2/FR6.jpg","","","100","FR","","","","","","","","","",""
"image-slider-response","10","57015","0.0-6.0-0.0-0.4","3953","pics2/SW2.jpg","","","100","SW","","","","","","","","","",""
"image-slider-response","11","60583","0.0-6.0-0.0-0.5","3363","pics2/SA5.jpg","","","91","SA","","","","","","","","","",""
"image-slider-response","12","65480","0.0-6.0-0.0-0.6","4693","pics2/VE2.jpg","","","71","VE","","","","","","","","","",""
"image-slider-response","13","68598","0.0-6.0-0.0-0.7","2913","pics2/SW5.jpg","","","86","SW","","","","","","","","","",""
"image-slider-response","14","71000","0.0-6.0-0.0-0.8","2197","pics2/SW6.jpg","","","78","SW","","","","","","","","","",""
"image-slider-response","15","74181","0.0-6.0-0.0-0.9","2978","pics2/FR3.jpg","","","95","FR","","","","","","","","","",""
"image-slider-response","16","76564","0.0-6.0-0.0-0.10","2179","pics2/SW3.jpg","","","96","SW","","","","","","","","","",""
"image-slider-response","17","79398","0.0-6.0-0.0-0.11","2629","pics2/VE3.jpg","","","70","VE","","","","","","","","","",""
"image-slider-response","18","83312","0.0-6.0-0.0-0.12","3710","pics2/FR5.jpg","","","95","FR","","","","","","","","","",""
"image-slider-response","19","85639","0.0-6.0-0.0-0.13","2124","pics2/VE4.jpg","","","98","VE","","","","","","","","","",""
"image-slider-response","20","87806","0.0-6.0-0.0-0.14","1963","pics2/VE5.jpg","","","81","VE","","","","","","","","","",""
"image-slider-response","21","90612","0.0-6.0-0.0-0.15","2604","pics2/SW1.jpg","","","94","SW","","","","","","","","","",""
"image-slider-response","22","92898","0.0-6.0-0.0-0.16","2080","pics2/FR1.jpg","","","92","FR","","","","","","","","","",""
"image-slider-response","23","95114","0.0-6.0-0.0-0.17","2013","pics2/SA4.jpg","","","80","SA","","","","","","","","","",""
"image-slider-response","24","97664","0.0-6.0-0.0-0.18","2345","pics2/VE6.jpg","","","8","VE","","","","","","","","","",""
"image-slider-response","25","100122","0.0-6.0-0.0-0.19","2254","pics2/SA6.jpg","","","79","SA","","","","","","","","","",""
"image-slider-response","26","102548","0.0-6.0-0.0-0.20","2222","pics2/SA2.jpg","","","78","SA","","","","","","","","","",""
"image-slider-response","27","105330","0.0-6.0-0.0-0.21","2577","pics2/SA1.jpg","","","62","SA","","","","","","","","","",""
"image-slider-response","28","107631","0.0-6.0-0.0-0.22","2097","pics2/SW4.jpg","","","87","SW","","","","","","","","","",""
"image-slider-response","29","109788","0.0-6.0-0.0-0.23","1953","pics2/SA3.jpg","","","87","SA","","","","","","","","","",""
"html-button-response","30","111352","0.0-7.0","1360","<div style='width: 900px;'> <font size = 6><b> End of the first rating</b><br><br>","0","","","","","","","","","","","","",""
"html-button-response","31","119494","0.0-9.0","8139","<div ><img src='sizeS.png'></img></div><br><div style='text-align: justify; width: 700px'> Using the mouse, rate the <b><i>size</b></i> of the food items <b><i> relative to the white background.</b></i> Right-end of the scale indicates a <i>very large item</i>, which covers a large portion of the white rectangle. Left-end indicates a <i>very tiny</i> item which covers a tiny portion of the white rectangle.<br><br><i><u>Remember</i></u>: everything that is not the white background also contributes to item size (e.g. packing, plates, ect.)<br><br> Please keep in mind that if the accuracy of ratings do not allign well with actual sizes, the experiment will end.  As a result it will be consider incomplete and therefore no payment would be made. Good luck!<br><br></div><br>","0","","","","","","","","","","","","",""
"html-button-response","32","122976","0.0-10.0","3478","<div ><img src='sizeS.png'></img></div><br><b><font size=6>Examples of items that you might encounter</b><br><div style='width: 750px;'><div style='width: 33.33%; float:left'><br><br><br><i>Large Item</i><br><br><img src='large.jpg', width=200px></img></div><div style='float:right'><br><br><br><i>Small Item</i><br><br><img src='small.jpg', width=200px></img></div><div ><br><br><br><i>Medium Item</i><br><br><img src='med.jpg', width=200px></img></div></div><br><br>","0","","","","","","","","","","","","",""
"image-slider-response","33","127311","0.0-11.0-0.0-0.0","4331","pics2/VE5.jpg","","","87","null","","","","","","","","","",""
"image-slider-response","34","132045","0.0-11.0-0.0-0.1","4530","pics2/VE1.jpg","","","52","null","","","","","","","","","",""
"image-slider-response","35","135620","0.0-11.0-0.0-0.2","3370","pics2/VE2.jpg","","","40","null","","","","","","","","","",""
"image-slider-response","36","138045","0.0-11.0-0.0-0.3","2220","pics2/SA4.jpg","","","96","null","","","","","","","","","",""
"image-slider-response","37","141975","0.0-11.0-0.0-0.4","3727","pics2/SW2.jpg","","","35","null","","","","","","","","","",""
"image-slider-response","38","145794","0.0-11.0-0.0-0.5","3615","pics2/VE4.jpg","","","43","null","","","","","","","","","",""
"image-slider-response","39","148511","0.0-11.0-0.0-0.6","2512","pics2/FR3.jpg","","","73","null","","","","","","","","","",""
"image-slider-response","40","151044","0.0-11.0-0.0-0.7","2329","pics2/FR6.jpg","","","66","null","","","","","","","","","",""
"image-slider-response","41","154143","0.0-11.0-0.0-0.8","2895","pics2/SW4.jpg","","","74","null","","","","","","","","","",""
"image-slider-response","42","157637","0.0-11.0-0.0-0.9","3288","pics2/SW3.jpg","","","55","null","","","","","","","","","",""
"image-slider-response","43","159977","0.0-11.0-0.0-0.10","2135","pics2/SW6.jpg","","","35","null","","","","","","","","","",""
"image-slider-response","44","162920","0.0-11.0-0.0-0.11","2738","pics2/SA2.jpg","","","34","null","","","","","","","","","",""
"image-slider-response","45","165079","0.0-11.0-0.0-0.12","1956","pics2/SW5.jpg","","","70","null","","","","","","","","","",""
"image-slider-response","46","166833","0.0-11.0-0.0-0.13","1551","pics2/SA6.jpg","","","50","null","","","","","","","","","",""
"image-slider-response","47","169276","0.0-11.0-0.0-0.14","2238","pics2/VE3.jpg","","","37","null","","","","","","","","","",""
"image-slider-response","48","172225","0.0-11.0-0.0-0.15","2745","pics2/FR1.jpg","","","65","null","","","","","","","","","",""
"image-slider-response","49","175168","0.0-11.0-0.0-0.16","2738","pics2/FR5.jpg","","","39","null","","","","","","","","","",""
"image-slider-response","50","177602","0.0-11.0-0.0-0.17","2230","pics2/SA3.jpg","","","72","null","","","","","","","","","",""
"image-slider-response","51","180476","0.0-11.0-0.0-0.18","2670","pics2/SW1.jpg","","","22","null","","","","","","","","","",""
"image-slider-response","52","183476","0.0-11.0-0.0-0.19","2796","pics2/SA5.jpg","","","27","null","","","","","","","","","",""
"image-slider-response","53","186159","0.0-11.0-0.0-0.20","2475","pics2/VE6.jpg","","","9","null","","","","","","","","","",""
"image-slider-response","54","189733","0.0-11.0-0.0-0.21","3370","pics2/FR4.jpg","","","66","null","","","","","","","","","",""
"image-slider-response","55","192084","0.0-11.0-0.0-0.22","2146","pics2/FR2.jpg","","","69","null","","","","","","","","","",""
"image-slider-response","56","195476","0.0-11.0-0.0-0.23","3188","pics2/SA1.jpg","","","64","null","","","","","","","","","",""
"html-button-response","57","197049","0.0-12.0","1369","<div style='width: 900px;'> <font size = 6><b> End of the second rating</b><br><br>","0","","","","","","","","","","","","",""
"html-button-response","58","202655","0.0-13.0","5605","<div style='width: 900px;'>Now please rate the items for the second time. <br><br>This is not a memory test - you don't need to be consistent with your previous ratings. Just as before, try to make accurate judgements.<br><br>","0","","","","","","","","","","","","",""
"html-button-response","59","210004","0.0-14.0","7346","<div><img src='heartS.png'></img></div><br><div style='text-align: justify; width: 700px'>Using the mouse, rate the <b><i>likeness</b></i> of the food items (how much you like them/would like to eat them <i>right now</i>). Far right-end of the scale indicates an item you <i>like a lot</i>. Far left-end indicates an item you <i>dislike a lot</i>. Think about each answer.   <ul><li>Try <b><i>not</b></i> to give identical rating to different items.</li><li>Use the whole scale, and <b><i>not</b></i> just the extremes</ul></div><br>","0","","","","","","","","","","","","",""
"image-slider-response","60","213524","0.0-15.0-0.0-0.0","3516","pics2/SA5.jpg","","","62","SA","","","","","","","","","",""
"image-slider-response","61","216582","0.0-15.0-0.0-0.1","2853","pics2/SW2.jpg","","","82","SW","","","","","","","","","",""
"image-slider-response","62","219373","0.0-15.0-0.0-0.2","2586","pics2/FR5.jpg","","","57","FR","","","","","","","","","",""
"image-slider-response","63","223984","0.0-15.0-0.0-0.3","4406","pics2/VE6.jpg","","","2","VE","","","","","","","","","",""
"image-slider-response","64","230254","0.0-15.0-0.0-0.4","6067","pics2/FR3.jpg","","","98","FR","","","","","","","","","",""
"image-slider-response","65","233837","0.0-15.0-0.0-0.5","3379","pics2/SW4.jpg","","","88","SW","","","","","","","","","",""
"image-slider-response","66","237315","0.0-15.0-0.0-0.6","3274","pics2/VE1.jpg","","","60","VE","","","","","","","","","",""
"image-slider-response","67","239798","0.0-15.0-0.0-0.7","2278","pics2/FR4.jpg","","","63","FR","","","","","","","","","",""
"image-slider-response","68","242232","0.0-15.0-0.0-0.8","2229","pics2/SA3.jpg","","","95","SA","","","","","","","","","",""
"image-slider-response","69","245164","0.0-15.0-0.0-0.9","2729","pics2/VE2.jpg","","","74","VE","","","","","","","","","",""
"image-slider-response","70","247390","0.0-15.0-0.0-0.10","2021","pics2/VE3.jpg","","","77","VE","","","","","","","","","",""
"image-slider-response","71","249631","0.0-15.0-0.0-0.11","2037","pics2/FR6.jpg","","","70","FR","","","","","","","","","",""
"image-slider-response","72","252015","0.0-15.0-0.0-0.12","2180","pics2/SW3.jpg","","","89","SW","","","","","","","","","",""
"image-slider-response","73","254322","0.0-15.0-0.0-0.13","2103","pics2/FR2.jpg","","","89","FR","","","","","","","","","",""
"image-slider-response","74","257454","0.0-15.0-0.0-0.14","2928","pics2/SA2.jpg","","","77","SA","","","","","","","","","",""
"image-slider-response","75","259621","0.0-15.0-0.0-0.15","1963","pics2/SW5.jpg","","","62","SW","","","","","","","","","",""
"image-slider-response","76","262214","0.0-15.0-0.0-0.16","2390","pics2/FR1.jpg","","","64","FR","","","","","","","","","",""
"image-slider-response","77","264654","0.0-15.0-0.0-0.17","2235","pics2/SA1.jpg","","","41","SA","","","","","","","","","",""
"image-slider-response","78","267346","0.0-15.0-0.0-0.18","2488","pics2/VE4.jpg","","","82","VE","","","","","","","","","",""
"image-slider-response","79","269572","0.0-15.0-0.0-0.19","2022","pics2/VE5.jpg","","","68","VE","","","","","","","","","",""
"image-slider-response","80","271763","0.0-15.0-0.0-0.20","1988","pics2/SW1.jpg","","","81","SW","","","","","","","","","",""
"image-slider-response","81","279021","0.0-15.0-0.0-0.21","7052","pics2/SA4.jpg","","","93","SA","","","","","","","","","",""
"image-slider-response","82","281247","0.0-15.0-0.0-0.22","2021","pics2/SA6.jpg","","","62","SA","","","","","","","","","",""
"image-slider-response","83","284387","0.0-15.0-0.0-0.23","2936","pics2/SW6.jpg","","","59","SW","","","","","","","","","",""
"call-function","84","284606","0.0-16.0","","","","","","","","","","","","","","","",""
"call-function","85","284610","0.0-17.0","","","","","","","","","","","","","","","",""
"html-button-response","86","285841","0.0-18.0","1229","<div style='width: 900px;'> <font size = 6><b> End of the first rating</b><br><br>","0","","","","","","","","","","","","",""
"html-button-response","87","306352","0.0-19.0","20509","<div ><img src='sizeS.png'></img></div><br><div style='text-align: justify; width: 700px'> Using the mouse, rate the <b><i>size</b></i> of the food items <b><i> relative to the white background.</b></i> Right-end of the scale indicates a <i>very large item</i>, which covers a large portion of the white rectangle. Left-end indicates a <i>very tiny</i> item which covers a tiny portion of the white rectangle.<br><br><i><u>Remember</i></u>: everything that is not the white background also contributes to item size (e.g. packing, plates, ect.)<br><br> Please keep in mind that if the accuracy of ratings do not allign well with actual sizes, the experiment will end.  As a result it will be consider incomplete and therefore no payment would be made. Good luck!<br><br></div><br>","0","","","","","","","","","","","","",""
"image-slider-response","88","309386","0.0-20.0-0.0-0.0","3031","pics2/SW2.jpg","","","87","null","","","","","","","","","",""
"image-slider-response","89","313119","0.0-20.0-0.0-0.1","3529","pics2/SA2.jpg","","","29","null","","","","","","","","","",""
"image-slider-response","90","317111","0.0-20.0-0.0-0.2","3789","pics2/VE2.jpg","","","68","null","","","","","","","","","",""
"image-slider-response","91","319985","0.0-20.0-0.0-0.3","2670","pics2/SA3.jpg","","","71","null","","","","","","","","","",""
"image-slider-response","92","322578","0.0-20.0-0.0-0.4","2389","pics2/FR6.jpg","","","32","null","","","","","","","","","",""
"image-slider-response","93","326535","0.0-20.0-0.0-0.5","3753","pics2/SW1.jpg","","","93","null","","","","","","","","","",""
"image-slider-response","94","328961","0.0-20.0-0.0-0.6","2222","pics2/FR1.jpg","","","63","null","","","","","","","","","",""
"image-slider-response","95","332227","0.0-20.0-0.0-0.7","3062","pics2/VE3.jpg","","","68","null","","","","","","","","","",""
"image-slider-response","96","334878","0.0-20.0-0.0-0.8","2446","pics2/VE5.jpg","","","34","null","","","","","","","","","",""
"image-slider-response","97","337618","0.0-20.0-0.0-0.9","2536","pics2/VE4.jpg","","","46","null","","","","","","","","","",""
"image-slider-response","98","339994","0.0-20.0-0.0-0.10","2172","pics2/SW4.jpg","","","70","null","","","","","","","","","",""
"image-slider-response","99","342420","0.0-20.0-0.0-0.11","2223","pics2/SA1.jpg","","","97","null","","","","","","","","","",""
"image-slider-response","100","345267","0.0-20.0-0.0-0.12","2644","pics2/VE6.jpg","","","20","null","","","","","","","","","",""
"image-slider-response","101","348250","0.0-20.0-0.0-0.13","2778","pics2/FR3.jpg","","","70","null","","","","","","","","","",""
"image-slider-response","102","350391","0.0-20.0-0.0-0.14","1938","pics2/SA5.jpg","","","67","null","","","","","","","","","",""
"image-slider-response","103","352734","0.0-20.0-0.0-0.15","2140","pics2/SW3.jpg","","","95","null","","","","","","","","","",""
"image-slider-response","104","355134","0.0-20.0-0.0-0.16","2196","pics2/SW6.jpg","","","36","null","","","","","","","","","",""
"image-slider-response","105","357402","0.0-20.0-0.0-0.17","2065","pics2/FR2.jpg","","","70","null","","","","","","","","","",""
"image-slider-response","106","359743","0.0-20.0-0.0-0.18","2137","pics2/SA6.jpg","","","17","null","","","","","","","","","",""
"image-slider-response","107","364150","0.0-20.0-0.0-0.19","4204","pics2/VE1.jpg","","","36","null","","","","","","","","","",""
"image-slider-response","108","366692","0.0-20.0-0.0-0.20","2337","pics2/SA4.jpg","","","6","null","","","","","","","","","",""
"image-slider-response","109","369691","0.0-20.0-0.0-0.21","2796","pics2/FR5.jpg","","","81","null","","","","","","","","","",""
"image-slider-response","110","373483","0.0-20.0-0.0-0.22","3587","pics2/SW5.jpg","","","100","null","","","","","","","","","",""
"image-slider-response","111","376532","0.0-20.0-0.0-0.23","2845","pics2/FR4.jpg","","","58","null","","","","","","","","","",""
"call-function","112","376739","0.0-21.0","","","","","","","","","","","","","","","",""
"html-button-response","113","377883","0.0-22.0","1142","<div style='width: 900px;'> <font size = 6><b> End of the second rating</b><br><br>","0","","","","","","","","","","","","",""
"pavlovia","114","377905","0.0-23.0","","","","","","","","","","","","","","","",""
"html-keyboard-response","115","382910","0.0-24.0","null","<div style='width: 700px;'> <font size=6><b>SHORT BREAK</font></b><br><br><i> Please wait 5 seconds to continue</i></div> ","","","","","","null","","","","","","","",""
"pavlovia","116","382913","0.0-25.0","","","","","","","","","","","","","","","",""
"html-button-response","117","395113","0.0-26.0","12199","<div style='width: 700px;'>In the main part of the study, you will be choosing between 2 items. When it's time to choose,  this symbol will appear: <br><br><img src='chooseS.png'></img><br><br>Below, a cue will signify the type of choice: </div><br><div style='width: 700px;'><div style='float: left; width: 50%'><img src='heartS.png'></img><p class='small'>Heart cue means you should choose the item you <b><i>prefer</b></i> more.</p></div><div class='float: right; width:50%'><img src='sizeS.png'></img><p class='small'>Size cue means you should choose the <b><i>larger</b></i> item. </p></div></div><br><div style='width: 700px;'>When you click, a green square will appear around the item you chose.<br></div><div><br>","0","","","","","","","","","","","","",""
"image-selector-fb-tut","118","400521","0.0-27.0","4398","0232.jpg,0123.jpg","","","","","","","false","0","","","","","",""
"image-selector-fb-tut","119","404671","0.0-28.0","3142","0232.jpg,0123.jpg","","","","","","","true","1","","","","","",""
"html-button-response","120","407721","0.0-29.0","3048","<div style='width: 900px;'>Your choices should be both <b><i>fast and accurate</b></i>. <br><br>You will have <i>4 seconds</i> to make each choice, which should be enough consider the options and click on one of the items.<br><br>","0","","","","","","","","","","","","",""
"html-button-response","121","410446","0.0-30.0","2723","<div style='width: 900px;'>Additionally, on some choice trials you will see the <b><i>no-choice cue</b></i>: <br><br><img src='noS.png'></img> <br><br>This cue means you can't make any choice. You can examine the items, but  can't click on any of them. Just wait patiently for the cue to dissapear.<br><br>","0","","","","","","","","","","","","",""
"image-selector-fb-tut","122","412458","0.0-31.0","null","0232.jpg,0123.jpg","","","","","","","false","null","","","","","",""
"html-button-response","123","415047","0.0-32.0","2586","<div style='width: 900px;'>After each choice the items will remain on the screen and you will see this symbol: <br><br><img src='judgeS.png'></img> <br><br>This means you should rate<b> the magnitude of the difference</b> between the items using a scale: </div><br><div style='width: 900px; '><div style='float: left; width: 50%; margin-right: 2.5em; align-self:left'><img src='heartS.png'></img><p class='small' style = 'text-align: justify;'>Heart cue means you should rate <b>how much you prefer</b> one of the items over the other. Moving the scale indicator to the left means you prefer the left one; moving it to the right - right one. The more you prefer one of them, the more towards that side you should move the scale indicator. </p></div><div class='float: right; width: 50%; margin-left: 2.5em;'><img src='sizeS.png'></img><p class='small' style='text-align: justify'>Size cue means you should rate <b>how much larger</b> is one of the items over the other. Moving the scale indicator to the left means you think the left is larger; moving it to the right - right one. The greater the difference in size, the more towards that side you should move the scale indicator.</div><br>","0","","","","","","","","","","","","",""
"image-slider-2AFC-tut","124","421947","0.0-33.0","6895","","","","92","","","","","","5657","92","","","",""
"image-slider-2AFC-tut","125","425290","0.0-34.0","3340","","","","21","","","","","","2393","21","","","",""
"html-button-response","126","434336","0.0-35.0","9044","<br><br><font size = 36><b> Examples </b></font><br><br><i> 1) I would like to eat some croissants a <b>lot more</b> than doritos right now:</i><br><img src='ex1.PNG', width='62%'></img><br><br><br><i> 2) I would like to eat some doritos a <b>bit more</b> than croissants right now, but just slightly:</i><br><img src='ex2.PNG' width='62%'></img>","0","","","","","","","","","","","","",""
"html-button-response","127","437019","0.0-36.0","2681","<div style='width: 900px;'><i>Now you know everything you need to do the task!</i> <br><br>Let's start by doing a <b>short training</b>, so you'll get used to how it works. </div><br>","0","","","","","","","","","","","","",""
"image-selector-fb","128","440029","0.0-37.0-0.0","null","pics2/SA1.jpg,pics2/VE2.jpg","","","","","","","false","null","","","noS.png","","",""
"image-slider-2AFC","129","445036","0.0-37.0-1.0","null","","","","null","","","","","","","","sizeS.png","","",""
"html-keyboard-response","130","445889","0.0-37.0-2.0","null","","","","","","","null","","","","","","","",""
"image-selector-fb","131","448899","0.0-37.1-0.1","null","pics2/FR4.jpg,pics2/SW5.jpg","","","","","","","false","null","","","noS.png","","",""
"image-slider-2AFC","132","453902","0.0-37.1-1.1","null","","","","null","","","","","","","","sizeS.png","3965,4868","54,4",""
"html-keyboard-response","133","454655","0.0-37.1-2.1","null","","","","","","","null","","","","","","","",""
"image-selector-fb","134","458243","0.0-37.2-0.2","3079","pics2/SA1.jpg,pics2/VE6.jpg","","","","","","","false","0","","","heartS.png","","",""
"image-slider-2AFC","135","463249","0.0-37.2-1.2","null","","","","null","","","","","","","","heartS.png","2974","44",""
"html-keyboard-response","136","464103","0.0-37.2-2.2","null","","","","","","","null","","","","","","","",""
"image-selector-fb","137","467111","0.0-37.3-0.3","null","pics2/VE1.jpg,pics2/VE2.jpg","","","","","","","false","null","","","noS.png","","",""
"image-slider-2AFC","138","471803","0.0-37.3-1.3","4688","","","","-39","","","","","","","","heartS.png","3718","-39",""
"html-keyboard-response","139","472655","0.0-37.3-2.3","null","","","","","","","null","","","","","","","",""
"image-selector-fb","140","476008","0.0-37.4-0.4","2846","pics2/SW6.jpg,pics2/FR4.jpg","","","","","","","false","0","","","heartS.png","","",""
"image-slider-2AFC","141","478810","0.0-37.4-1.4","2799","","","","58","","","","","","","","sizeS.png","1855","58",""
"html-keyboard-response","142","479514","0.0-37.4-2.4","null","","","","","","","null","","","","","","","",""
"image-selector-fb","143","483067","0.0-37.5-0.5","3045","pics2/SA6.jpg,pics2/SW5.jpg","","","","","","","true","1","","","sizeS.png","","",""
"image-slider-2AFC","144","486601","0.0-37.5-1.5","3531","","","","70","","","","","","","","sizeS.png","2743","70",""
"html-keyboard-response","145","487355","0.0-37.5-2.5","null","","","","","","","null","","","","","","","",""
"image-selector-fb","146","490082","0.0-37.6-0.6","2221","pics2/SW6.jpg,pics2/VE1.jpg","","","","","","","false","0","","","heartS.png","","",""
"image-slider-2AFC","147","493484","0.0-37.6-1.6","3400","","","","61","","","","","","","","sizeS.png","2478","61",""
"html-keyboard-response","148","494238","0.0-37.6-2.6","null","","","","","","","null","","","","","","","",""
"image-selector-fb","149","497247","0.0-37.7-0.7","2504","pics2/SA5.jpg,pics2/SW5.jpg","","","","","","","true","1","","","heartS.png","","",""
"image-slider-2AFC","150","500084","0.0-37.7-1.7","2834","","","","66","","","","","","","","heartS.png","2056","66",""
"html-keyboard-response","151","500937","0.0-37.7-2.7","null","","","","","","","null","","","","","","","",""
"image-selector-fb","152","503944","0.0-37.8-0.8","null","pics2/VE3.jpg,pics2/FR4.jpg","","","","","","","false","null","","","noS.png","","",""
"image-slider-2AFC","153","507857","0.0-37.8-1.8","3910","","","","-43","","","","","","","","sizeS.png","2739","-43",""
"html-keyboard-response","154","508611","0.0-37.8-2.8","null","","","","","","","null","","","","","","","",""
"image-selector-fb","155","511631","0.0-37.9-0.9","2514","pics2/SA6.jpg,pics2/VE3.jpg","","","","","","","true","1","","","sizeS.png","","",""
"image-slider-2AFC","156","514675","0.0-37.9-1.9","3041","","","","67","","","","","","","","sizeS.png","2309","67",""
"html-keyboard-response","157","515479","0.0-37.9-2.9","null","","","","","","","null","","","","","","","",""
"image-selector-fb","158","517981","0.0-37.10-0.10","1996","pics2/SA5.jpg,pics2/SA1.jpg","","","","","","","true","1","","","heartS.png","","",""
"image-slider-2AFC","159","520425","0.0-37.10-1.10","2441","","","","54","","","","","","","","sizeS.png","1401","54",""
"html-keyboard-response","160","521227","0.0-37.10-2.10","null","","","","","","","null","","","","","","","",""
"image-selector-fb","161","524596","0.0-37.11-0.11","2861","pics2/SA6.jpg,pics2/VE6.jpg","","","","","","","true","1","","","sizeS.png","","",""
"image-slider-2AFC","162","527640","0.0-37.11-1.11","3040","","","","-57","","","","","","","","heartS.png","1560","-57",""
"html-keyboard-response","163","528493","0.0-37.11-2.11","null","","","","","","","null","","","","","","","",""
"html-button-response","164","530789","0.0-38.0","2293","<i><font size=10>Good job!</font></i> <br><br>Before we begin, you have a chance to review the rules, in case something was not clear.<br><br>","0","","","","","","","","","","","","",""
"instructions","165","535625","0.0-39.0","4833","","","","","","","","","","","","","","","[{""page_index"":0,""viewing_time"":2148},{""page_index"":1,""viewing_time"":1508},{""page_index"":2,""viewing_time"":1176}]"
"html-button-response","166","543573","0.0-40.0","7947","<div style='width: 900px;'> <font size='40'>Great! Now you're ready to begin</font><br><br>The main part of the experiment will consist of <u>3 blocks</u>. Each block consists of 66 decisions and judgements. You will have time for a short break between blocks.<br><br><br><i><u>Do your best to respond within the time limit.</u></i><br><br><i> Press the button to start the experiment<br><br></i>","0","","","","","","","","","","","","",""
"image-selector-fb","167","547104","0.0-41.0-0.0","3024","pics2/SW1.jpg,pics2/VE4.jpg","","","","","","","false","0","","","sizeS.png","","",""
"image-slider-2AFC","168","549924","0.0-41.0-1.0","2817","","","","-42","","","","","","","","heartS.png","1985","-42",""
"html-keyboard-response","169","550728","0.0-41.0-2.0","null","","","","","","","null","","","","","","","",""
"image-selector-fb","170","554471","0.0-41.1-0.1","3236","pics2/FR1.jpg,pics2/SW1.jpg","","","","","","","true","1","","","heartS.png","","",""
"image-slider-2AFC","171","556890","0.0-41.1-1.1","2415","","","","62","","","","","","","","sizeS.png","1717","62",""
"html-keyboard-response","172","557693","0.0-41.1-2.1","null","","","","","","","null","","","","","","","",""
"image-selector-fb","173","560678","0.0-41.2-0.2","2478","pics2/SW4.jpg,pics2/FR1.jpg","","","","","","","true","1","","","heartS.png","","",""
"image-slider-2AFC","174","564365","0.0-41.2-1.2","3683","","","","42","","","","","","","","sizeS.png","2902","42",""
"html-keyboard-response","175","565068","0.0-41.2-2.2","null","","","","","","","null","","","","","","","",""
"image-selector-fb","176","568185","0.0-41.3-0.3","2611","pics2/SW2.jpg,pics2/SA2.jpg","","","","","","","false","0","","","sizeS.png","","",""
"image-slider-2AFC","177","571256","0.0-41.3-1.3","3068","","","","-49","","","","","","","","sizeS.png","2169","-49",""
"html-keyboard-response","178","572060","0.0-41.3-2.3","null","","","","","","","null","","","","","","","",""
"image-selector-fb","179","574844","0.0-41.4-0.4","2276","pics2/SW1.jpg,pics2/SW4.jpg","","","","","","","false","0","","","sizeS.png","","",""
"image-slider-2AFC","180","577756","0.0-41.4-1.4","2909","","","","-54","","","","","","","","sizeS.png","2077","-54",""
"html-keyboard-response","181","578510","0.0-41.4-2.4","null","","","","","","","null","","","","","","","",""
"image-selector-fb","182","580444","0.0-41.5-0.5","1428","pics2/VE4.jpg,pics2/SW3.jpg","","","","","","","true","1","","","sizeS.png","","",""
"image-slider-2AFC","183","583198","0.0-41.5-1.5","2751","","","","49","","","","","","","","sizeS.png","1920","49",""
"html-keyboard-response","184","583901","0.0-41.5-2.5","null","","","","","","","null","","","","","","","",""
"image-selector-fb","185","586908","0.0-41.6-0.6","null","pics2/SA2.jpg,pics2/FR2.jpg","","","","","","","false","null","","","noS.png","","",""
"image-slider-2AFC","186","590263","0.0-41.6-1.6","3352","","","","54","","","","","","","","heartS.png","2509","54",""
"html-keyboard-response","187","591017","0.0-41.6-2.6","null","","","","","","","null","","","","","","","",""
"image-selector-fb","188","594285","0.0-41.7-0.7","2761","pics2/SA3.jpg,pics2/FR6.jpg","","","","","","","false","0","","","heartS.png","","",""
"image-slider-2AFC","189","596621","0.0-41.7-1.7","2334","","","","-63","","","","","","","","heartS.png","1468","-63",""
"html-keyboard-response","190","597374","0.0-41.7-2.7","null","","","","","","","null","","","","","","","",""
"image-selector-fb","191","600976","0.0-41.8-0.8","3095","pics2/FR6.jpg,pics2/FR1.jpg","","","","","","","true","1","","","sizeS.png","","",""
"image-slider-2AFC","192","604313","0.0-41.8-1.8","3333","","","","37","","","","","","","","heartS.png","2502","37",""
"html-keyboard-response","193","605066","0.0-41.8-2.8","null","","","","","","","null","","","","","","","",""
"image-selector-fb","194","608225","0.0-41.9-0.9","2652","pics2/FR3.jpg,pics2/SA3.jpg","","","","","","","true","1","","","sizeS.png","","",""
"image-slider-2AFC","195","611395","0.0-41.9-1.9","3167","","","","43","","","","","","","","sizeS.png","2352","43",""
"html-keyboard-response","196","612199","0.0-41.9-2.9","null","","","","","","","null","","","","","","","",""
"image-selector-fb","197","615205","0.0-41.10-0.10","null","pics2/FR1.jpg,pics2/SA4.jpg","","","","","","","false","null","","","noS.png","","",""
"image-slider-2AFC","198","617570","0.0-41.10-1.10","2362","","","","47","","","","","","","","heartS.png","1539","47",""
"html-keyboard-response","199","618324","0.0-41.10-2.10","null","","","","","","","null","","","","","","","",""
"image-selector-fb","200","620700","0.0-41.11-0.11","1870","pics2/FR2.jpg,pics2/SW4.jpg","","","","","","","true","1","","","heartS.png","","",""
"image-slider-2AFC","201","623187","0.0-41.11-1.11","2485","","","","50","","","","","","","","sizeS.png","1419","50",""
"html-keyboard-response","202","623891","0.0-41.11-2.11","null","","","","","","","null","","","","","","","",""
"image-selector-fb","203","626307","0.0-41.12-0.12","1910","pics2/SW3.jpg,pics2/SA2.jpg","","","","","","","false","0","","","heartS.png","","",""
"image-slider-2AFC","204","628670","0.0-41.12-1.12","2359","","","","-60","","","","","","","","heartS.png","1361","-60",""
"html-keyboard-response","205","629374","0.0-41.12-2.12","null","","","","","","","null","","","","","","","",""
"image-selector-fb","206","631392","0.0-41.13-0.13","1512","pics2/FR1.jpg,pics2/FR3.jpg","","","","","","","true","1","","","heartS.png","","",""
"image-slider-2AFC","207","633547","0.0-41.13-1.13","2153","","","","60","","","","","","","","sizeS.png","1198","60",""
"html-keyboard-response","208","634301","0.0-41.13-2.13","null","","","","","","","null","","","","","","","",""
"image-selector-fb","209","637308","0.0-41.14-0.14","null","pics2/SW2.jpg,pics2/SW3.jpg","","","","","","","false","null","","","noS.png","","",""
"image-slider-2AFC","210","640112","0.0-41.14-1.14","2792","","","","62","","","","","","","","sizeS.png","1923","62",""
"html-keyboard-response","211","640866","0.0-41.14-2.14","null","","","","","","","null","","","","","","","",""
"image-selector-fb","212","643876","0.0-41.15-0.15","null","pics2/VE4.jpg,pics2/SW3.jpg","","","","","","","false","null","","","noS.png","","",""
"image-slider-2AFC","213","646036","0.0-41.15-1.15","2156","","","","64","","","","","","","","heartS.png","1340","64",""
"html-keyboard-response","214","646739","0.0-41.15-2.15","null","","","","","","","null","","","","","","","",""
"image-selector-fb","215","649747","0.0-41.16-0.16","null","pics2/VE4.jpg,pics2/FR2.jpg","","","","","","","false","null","","","noS.png","","",""
"image-slider-2AFC","216","653011","0.0-41.16-1.16","3260","","","","60","","","","","","","","sizeS.png","2486","60",""
"html-keyboard-response","217","653714","0.0-41.16-2.16","null","","","","","","","null","","","","","","","",""
"image-selector-fb","218","656432","0.0-41.17-0.17","2212","pics2/FR6.jpg,pics2/SW4.jpg","","","","","","","true","1","","","sizeS.png","","",""
"image-slider-2AFC","219","660196","0.0-41.17-1.17","3760","","","","47","","","","","","","","heartS.png","2888","47",""
"html-keyboard-response","220","661000","0.0-41.17-2.17","null","","","","","","","null","","","","","","","",""
"image-selector-fb","221","663790","0.0-41.18-0.18","2282","pics2/SW4.jpg,pics2/VE4.jpg","","","","","","","false","0","","","sizeS.png","","",""
"image-slider-2AFC","222","666444","0.0-41.18-1.18","2651","","","","-33","","","","","","","","heartS.png","1802","-33",""
"html-keyboard-response","223","667251","0.0-41.18-2.18","null","","","","","","","null","","","","","","","",""
"image-selector-fb","224","669206","0.0-41.19-0.19","1448","pics2/SW2.jpg,pics2/SA4.jpg","","","","","","","false","0","","","heartS.png","","",""
"image-slider-2AFC","225","672434","0.0-41.19-1.19","3224","","","","-14","","","","","","","","heartS.png","2418","-14",""
"html-keyboard-response","226","673287","0.0-41.19-2.19","null","","","","","","","null","","","","","","","",""
"image-selector-fb","227","676295","0.0-41.20-0.20","null","pics2/SA2.jpg,pics2/SA3.jpg","","","","","","","false","null","","","noS.png","","",""
"image-slider-2AFC","228","678826","0.0-41.20-1.20","2527","","","","55","","","","","","","","sizeS.png","1728","55",""
"html-keyboard-response","229","679529","0.0-41.20-2.20","null","","","","","","","null","","","","","","","",""
"image-selector-fb","230","682537","0.0-41.21-0.21","null","pics2/VE4.jpg,pics2/SW1.jpg","","","","","","","false","null","","","noS.png","","",""
"image-slider-2AFC","231","684467","0.0-41.21-1.21","1926","","","","52","","","","","","","","heartS.png","1139","52",""
"html-keyboard-response","232","685172","0.0-41.21-2.21","null","","","","","","","null","","","","","","","",""
"image-selector-fb","233","687122","0.0-41.22-0.22","1442","pics2/FR6.jpg,pics2/SA2.jpg","","","","","","","true","1","","","sizeS.png","","",""
"image-slider-2AFC","234","689492","0.0-41.22-1.22","2367","","","","38","","","","","","","","sizeS.png","1561","38",""
"html-keyboard-response","235","690295","0.0-41.22-2.22","null","","","","","","","null","","","","","","","",""
"image-selector-fb","236","693303","0.0-41.23-0.23","null","pics2/SA2.jpg,pics2/FR3.jpg","","","","","","","false","null","","","noS.png","","",""
"image-slider-2AFC","237","695333","0.0-41.23-1.23","2026","","","","49","","","","","","","","sizeS.png","1178","49",""
"html-keyboard-response","238","696136","0.0-41.23-2.23","null","","","","","","","null","","","","","","","",""
"image-selector-fb","239","699137","0.0-41.24-0.24","2495","pics2/FR2.jpg,pics2/SW2.jpg","","","","","","","true","1","","","heartS.png","","",""
"image-slider-2AFC","240","700909","0.0-41.24-1.24","1768","","","","48","","","","","","","","sizeS.png","903","48",""
"html-keyboard-response","241","701613","0.0-41.24-2.24","null","","","","","","","null","","","","","","","",""
"image-selector-fb","242","705046","0.0-41.25-0.25","2924","pics2/SW2.jpg,pics2/FR2.jpg","","","","","","","false","0","","","sizeS.png","","",""
"image-slider-2AFC","243","706999","0.0-41.25-1.25","1950","","","","-19","","","","","","","","sizeS.png","1310","-19",""
"html-keyboard-response","244","707703","0.0-41.25-2.25","null","","","","","","","null","","","","","","","",""
"image-selector-fb","245","709763","0.0-41.26-0.26","1553","pics2/SA2.jpg,pics2/FR3.jpg","","","","","","","true","1","","","heartS.png","","",""
"image-slider-2AFC","246","711207","0.0-41.26-1.26","1443","","","","41","","","","","","","","sizeS.png","678","41",""
"html-keyboard-response","247","711911","0.0-41.26-2.26","null","","","","","","","null","","","","","","","",""
"image-selector-fb","248","713570","0.0-41.27-0.27","1153","pics2/SA4.jpg,pics2/SW3.jpg","","","","","","","false","0","","","sizeS.png","","",""
"image-slider-2AFC","249","715165","0.0-41.27-1.27","1592","","","","-49","","","","","","","","sizeS.png","643","-49",""
"html-keyboard-response","250","715869","0.0-41.27-2.27","null","","","","","","","null","","","","","","","",""
"image-selector-fb","251","717932","0.0-41.28-0.28","1554","pics2/SW1.jpg,pics2/SA4.jpg","","","","","","","true","1","","","heartS.png","","",""
"image-slider-2AFC","252","719308","0.0-41.28-1.28","1372","","","","38","","","","","","","","sizeS.png","608","38",""
"html-keyboard-response","253","720161","0.0-41.28-2.28","null","","","","","","","null","","","","","","","",""
"image-selector-fb","254","721853","0.0-41.29-0.29","1184","pics2/FR3.jpg,pics2/FR2.jpg","","","","","","","false","0","","","sizeS.png","","",""
"image-slider-2AFC","255","723698","0.0-41.29-1.29","1842","","","","-15","","","","","","","","sizeS.png","1052","-15",""
"html-keyboard-response","256","724501","0.0-41.29-2.29","null","","","","","","","null","","","","","","","",""
"image-selector-fb","257","726353","0.0-41.30-0.30","1345","pics2/SA2.jpg,pics2/SA4.jpg","","","","","","","true","1","","","heartS.png","","",""
"image-slider-2AFC","258","728157","0.0-41.30-1.30","1800","","","","64","","","","","","","","heartS.png","978","64",""
"html-keyboard-response","259","728961","0.0-41.30-2.30","null","","","","","","","null","","","","","","","",""
"image-selector-fb","260","731969","0.0-41.31-0.31","null","pics2/FR2.jpg,pics2/SW3.jpg","","","","","","","false","null","","","noS.png","","",""
"image-slider-2AFC","261","734755","0.0-41.31-1.31","2783","","","","51","","","","","","","","sizeS.png","2010","51",""
"html-keyboard-response","262","735509","0.0-41.31-2.31","null","","","","","","","null","","","","","","","",""
"image-selector-fb","263","737644","0.0-41.32-0.32","1625","pics2/FR3.jpg,pics2/SA2.jpg","","","","","","","false","0","","","sizeS.png","","",""
"image-slider-2AFC","264","739639","0.0-41.32-1.32","1992","","","","-58","","","","","","","","sizeS.png","1049","-58",""
"html-keyboard-response","265","740343","0.0-41.32-2.32","null","","","","","","","null","","","","","","","",""
"image-selector-fb","266","742444","0.0-41.33-0.33","1594","pics2/FR2.jpg,pics2/SA3.jpg","","","","","","","true","1","","","heartS.png","","",""
"image-slider-2AFC","267","744622","0.0-41.33-1.33","2175","","","","43","","","","","","","","heartS.png","1419","43",""
"html-keyboard-response","268","745475","0.0-41.33-2.33","null","","","","","","","null","","","","","","","",""
"image-selector-fb","269","747234","0.0-41.34-0.34","1253","pics2/SA4.jpg,pics2/SW1.jpg","","","","","","","false","0","","","sizeS.png","","",""
"image-slider-2AFC","270","750714","0.0-41.34-1.34","3476","","","","-62","","","","","","","","heartS.png","2696","-62",""
"html-keyboard-response","271","751567","0.0-41.34-2.34","null","","","","","","","null","","","","","","","",""
"image-selector-fb","272","754576","0.0-41.35-0.35","null","pics2/FR6.jpg,pics2/SA3.jpg","","","","","","","false","null","","","noS.png","","",""
"image-slider-2AFC","273","758147","0.0-41.35-1.35","3567","","","","44","","","","","","","","heartS.png","2752","44",""
"html-keyboard-response","274","758900","0.0-41.35-2.35","null","","","","","","","null","","","","","","","",""
"image-selector-fb","275","761908","0.0-41.36-0.36","null","pics2/FR3.jpg,pics2/SA3.jpg","","","","","","","false","null","","","noS.png","","",""
"image-slider-2AFC","276","764487","0.0-41.36-1.36","2575","","","","-54","","","","","","","","sizeS.png","1762","-54",""
"html-keyboard-response","277","765291","0.0-41.36-2.36","null","","","","","","","null","","","","","","","",""
"image-selector-fb","278","768298","0.0-41.37-0.37","null","pics2/SA2.jpg,pics2/SW1.jpg","","","","","","","false","null","","","noS.png","","",""
"image-slider-2AFC","279","771205","0.0-41.37-1.37","2900","","","","18","","","","","","","","sizeS.png","2069","18",""
"html-keyboard-response","280","771959","0.0-41.37-2.37","null","","","","","","","null","","","","","","","",""
"image-selector-fb","281","774969","0.0-41.38-0.38","null","pics2/FR6.jpg,pics2/SA4.jpg","","","","","","","false","null","","","noS.png","","",""
"image-slider-2AFC","282","778128","0.0-41.38-1.38","3156","","","","57","","","","","","","","sizeS.png","1235","57",""
"html-keyboard-response","283","778831","0.0-41.38-2.38","null","","","","","","","null","","","","","","","",""
"image-selector-fb","284","781550","0.0-41.39-0.39","2211","pics2/FR3.jpg,pics2/FR1.jpg","","","","","","","false","0","","","sizeS.png","","",""
"image-slider-2AFC","285","784154","0.0-41.39-1.39","2601","","","","-56","","","","","","","","heartS.png","1082","-56",""
"html-keyboard-response","286","784907","0.0-41.39-2.39","null","","","","","","","null","","","","","","","",""
"image-selector-fb","287","788000","0.0-41.40-0.40","2585","pics2/SW2.jpg,pics2/SW1.jpg","","","","","","","false","0","","","heartS.png","","",""
"image-slider-2AFC","288","791103","0.0-41.40-1.40","3099","","","","-58","","","","","","","","sizeS.png","1585,2327","53,-58",""
"html-keyboard-response","289","791956","0.0-41.40-2.40","null","","","","","","","null","","","","","","","",""
"image-selector-fb","290","794174","0.0-41.41-0.41","1711","pics2/SW2.jpg,pics2/FR6.jpg","","","","","","","false","0","","","heartS.png","","",""
"image-slider-2AFC","291","796156","0.0-41.41-1.41","1978","","","","-55","","","","","","","","heartS.png","1219","-55",""
"html-keyboard-response","292","796861","0.0-41.41-2.41","null","","","","","","","null","","","","","","","",""
"image-selector-fb","293","798683","0.0-41.42-0.42","1314","pics2/SW1.jpg,pics2/SA2.jpg","","","","","","","false","0","","","sizeS.png","","",""
"image-slider-2AFC","294","800970","0.0-41.42-1.42","2284","","","","-43","","","","","","","","heartS.png","1009","-43",""
"html-keyboard-response","295","801723","0.0-41.42-2.42","null","","","","","","","null","","","","","","","",""
"image-selector-fb","296","804807","0.0-41.43-0.43","2579","pics2/FR1.jpg,pics2/SA2.jpg","","","","","","","false","0","","","sizeS.png","","",""
"image-slider-2AFC","297","807960","0.0-41.43-1.43","3150","","","","-54","","","","","","","","sizeS.png","2356","-54",""
"html-keyboard-response","298","808814","0.0-41.43-2.43","null","","","","","","","null","","","","","","","",""
"image-selector-fb","299","811083","0.0-41.44-0.44","1757","pics2/SA4.jpg,pics2/FR1.jpg","","","","","","","false","0","","","sizeS.png","","",""
"image-slider-2AFC","300","813186","0.0-41.44-1.44","2099","","","","-54","","","","","","","","sizeS.png","1226","-54",""
"html-keyboard-response","301","813990","0.0-41.44-2.44","null","","","","","","","null","","","","","","","",""
"image-selector-fb","302","815989","0.0-41.45-0.45","1494","pics2/FR3.jpg,pics2/SW1.jpg","","","","","","","false","0","","","sizeS.png","","",""
"image-slider-2AFC","303","817742","0.0-41.45-1.45","1749","","","","-43","","","","","","","","sizeS.png","811","-43",""
"html-keyboard-response","304","818595","0.0-41.45-2.45","null","","","","","","","null","","","","","","","",""
"image-selector-fb","305","820756","0.0-41.46-0.46","1654","pics2/SA2.jpg,pics2/SW4.jpg","","","","","","","true","1","","","heartS.png","","",""
"image-slider-2AFC","306","823160","0.0-41.46-1.46","2400","","","","39","","","","","","","","heartS.png","1628","39",""
"html-keyboard-response","307","824013","0.0-41.46-2.46","null","","","","","","","null","","","","","","","",""
"image-selector-fb","308","827021","0.0-41.47-0.47","null","pics2/FR2.jpg,pics2/FR6.jpg","","","","","","","false","null","","","noS.png","","",""
"image-slider-2AFC","309","829560","0.0-41.47-1.47","2536","","","","-59","","","","","","","","heartS.png","1704","-59",""
"html-keyboard-response","310","830414","0.0-41.47-2.47","null","","","","","","","null","","","","","","","",""
"image-selector-fb","311","832039","0.0-41.48-0.48","1117","pics2/SW2.jpg,pics2/FR1.jpg","","","","","","","false","0","","","heartS.png","","",""
"image-slider-2AFC","312","833960","0.0-41.48-1.48","1917","","","","-44","","","","","","","","heartS.png","1135","-44",""
"html-keyboard-response","313","834813","0.0-41.48-2.48","null","","","","","","","null","","","","","","","",""
"image-selector-fb","314","837381","0.0-41.49-0.49","2061","pics2/VE4.jpg,pics2/FR2.jpg","","","","","","","false","0","","","sizeS.png","","",""
"image-slider-2AFC","315","842385","0.0-41.49-1.49","null","","","","null","","","","","","","","heartS.png","2227","50",""
"html-keyboard-response","316","843189","0.0-41.49-2.49","null","","","","","","","null","","","","","","","",""
"image-selector-fb","317","846197","0.0-41.50-0.50","null","pics2/SW1.jpg,pics2/SA4.jpg","","","","","","","false","null","","","noS.png","","",""
"image-slider-2AFC","318","848776","0.0-41.50-1.50","2575","","","","54","","","","","","","","heartS.png","1871","54",""
"html-keyboard-response","319","849580","0.0-41.50-2.50","null","","","","","","","null","","","","","","","",""
"image-selector-fb","320","851656","0.0-41.51-0.51","1568","pics2/SW4.jpg,pics2/FR6.jpg","","","","","","","false","0","","","heartS.png","","",""
"image-slider-2AFC","321","854284","0.0-41.51-1.51","2624","","","","-52","","","","","","","","sizeS.png","1908","-52",""
"html-keyboard-response","322","854987","0.0-41.51-2.51","null","","","","","","","null","","","","","","","",""
"image-selector-fb","323","857696","0.0-41.52-0.52","2196","pics2/FR1.jpg,pics2/FR2.jpg","","","","","","","true","1","","","sizeS.png","","",""
"image-slider-2AFC","324","860599","0.0-41.52-1.52","2900","","","","46","","","","","","","","sizeS.png","836","46",""
"html-keyboard-response","325","861453","0.0-41.52-2.52","null","","","","","","","null","","","","","","","",""
"image-selector-fb","326","863246","0.0-41.53-0.53","1286","pics2/SA3.jpg,pics2/FR1.jpg","","","","","","","false","0","","","heartS.png","","",""
"image-slider-2AFC","327","865250","0.0-41.53-1.53","2000","","","","-44","","","","","","","","heartS.png","1168","-44",""
"html-keyboard-response","328","866103","0.0-41.53-2.53","null","","","","","","","null","","","","","","","",""
"image-selector-fb","329","869671","0.0-41.54-0.54","3062","pics2/FR1.jpg,pics2/FR6.jpg","","","","","","","true","1","","","heartS.png","","",""
"image-slider-2AFC","330","871433","0.0-41.54-1.54","1759","","","","41","","","","","","","","heartS.png","938","41",""
"html-keyboard-response","331","872188","0.0-41.54-2.54","null","","","","","","","null","","","","","","","",""
"image-selector-fb","332","873871","0.0-41.55-0.55","1175","pics2/SW2.jpg,pics2/VE4.jpg","","","","","","","false","0","","","heartS.png","","",""
"image-slider-2AFC","333","876016","0.0-41.55-1.55","2142","","","","-52","","","","","","","","sizeS.png","885","-52",""
"html-keyboard-response","334","876721","0.0-41.55-2.55","null","","","","","","","null","","","","","","","",""
"image-selector-fb","335","879037","0.0-41.56-0.56","1809","pics2/VE4.jpg,pics2/FR1.jpg","","","","","","","false","0","","","heartS.png","","",""
"image-slider-2AFC","336","882498","0.0-41.56-1.56","3457","","","","-45","","","","","","","","sizeS.png","1202","-45",""
"html-keyboard-response","337","883351","0.0-41.56-2.56","null","","","","","","","null","","","","","","","",""
"image-selector-fb","338","885857","0.0-41.57-0.57","1998","pics2/SA2.jpg,pics2/FR2.jpg","","","","","","","false","0","","","sizeS.png","","",""
"image-slider-2AFC","339","888365","0.0-41.57-1.57","2504","","","","39","","","","","","","","sizeS.png","1738","39",""
"html-keyboard-response","340","889219","0.0-41.57-2.57","null","","","","","","","null","","","","","","","",""
"image-selector-fb","341","891103","0.0-41.58-0.58","1376","pics2/FR1.jpg,pics2/SW4.jpg","","","","","","","true","1","","","sizeS.png","","",""
"image-slider-2AFC","342","893915","0.0-41.58-1.58","2809","","","","55","","","","","","","","heartS.png","2068","55",""
"html-keyboard-response","343","894769","0.0-41.58-2.58","null","","","","","","","null","","","","","","","",""
"image-selector-fb","344","896586","0.0-41.59-0.59","1310","pics2/SW3.jpg,pics2/VE4.jpg","","","","","","","false","0","","","heartS.png","","",""
"image-slider-2AFC","345","898498","0.0-41.59-1.59","1908","","","","-50","","","","","","","","heartS.png","1135","-50",""
"html-keyboard-response","346","899352","0.0-41.59-2.59","null","","","","","","","null","","","","","","","",""
"image-selector-fb","347","902360","0.0-41.60-0.60","null","pics2/SA3.jpg,pics2/SW1.jpg","","","","","","","false","null","","","noS.png","","",""
"image-slider-2AFC","348","904231","0.0-41.60-1.60","1867","","","","-56","","","","","","","","heartS.png","989","-56",""
"html-keyboard-response","349","904936","0.0-41.60-2.60","null","","","","","","","null","","","","","","","",""
"image-selector-fb","350","907945","0.0-41.61-0.61","null","pics2/SW1.jpg,pics2/SW3.jpg","","","","","","","false","null","","","noS.png","","",""
"image-slider-2AFC","351","911106","0.0-41.61-1.61","3157","","","","-59","","","","","","","","sizeS.png","2284","-59",""
"html-keyboard-response","352","911809","0.0-41.61-2.61","null","","","","","","","null","","","","","","","",""
"image-selector-fb","353","914061","0.0-41.62-0.62","1739","pics2/SW1.jpg,pics2/FR1.jpg","","","","","","","false","0","","","sizeS.png","","",""
"image-slider-2AFC","354","915964","0.0-41.62-1.62","1899","","","","-59","","","","","","","","sizeS.png","1008","-59",""
"html-keyboard-response","355","916667","0.0-41.62-2.62","null","","","","","","","null","","","","","","","",""
"image-selector-fb","356","919675","0.0-41.63-0.63","null","pics2/SW4.jpg,pics2/FR6.jpg","","","","","","","false","null","","","noS.png","","",""
"image-slider-2AFC","357","922289","0.0-41.63-1.63","2610","","","","56","","","","","","","","sizeS.png","1728","56",""
"html-keyboard-response","358","923142","0.0-41.63-2.63","null","","","","","","","null","","","","","","","",""
"image-selector-fb","359","926154","0.0-41.64-0.64","null","pics2/VE4.jpg,pics2/SW2.jpg","","","","","","","false","null","","","noS.png","","",""
"image-slider-2AFC","360","928930","0.0-41.64-1.64","2772","","","","43","","","","","","","","sizeS.png","1915","43",""
"html-keyboard-response","361","929784","0.0-41.64-2.64","null","","","","","","","null","","","","","","","",""
"image-selector-fb","362","932792","0.0-41.65-0.65","null","pics2/VE4.jpg,pics2/SA4.jpg","","","","","","","false","null","","","noS.png","","",""
"image-slider-2AFC","363","934947","0.0-41.65-1.65","2151","","","","52","","","","","","","","sizeS.png","1277","52",""
"html-keyboard-response","364","935750","0.0-41.65-2.65","null","","","","","","","null","","","","","","","",""
"pavlovia","365","935792","0.0-42.0","","","","","","","","","","","","","","","",""
"html-keyboard-response","366","940795","0.0-43.0","null","<div style='width: 700px;'> <font size=6><b>SHORT BREAK</font></b><br><br><i> Please wait 5 seconds to continue</i></div> ","","","","","","null","","","","","","","",""
"pavlovia","367","940799","0.0-44.0","","","","","","","","","","","","","","","",""
"html-button-response","368","945502","0.0-45.0","4702","<div style='width: 700px;'> <font size=6><b>BLOCK 2</font></b><br><br>Press the button whenever you feel ready to start the second block (there are 3 in total)</div>","0","","","","","","","","","","","","",""
"image-selector-fb","369","948076","0.0-46.0-0.0","2067","pics2/SA4.jpg,pics2/SW4.jpg","","","","","","","false","0","","","sizeS.png","","",""
"image-slider-2AFC","370","950546","0.0-46.0-1.0","2466","","","","46","","","","","","","","sizeS.png","1675","46",""
"html-keyboard-response","371","951354","0.0-46.0-2.0","null","","","","","","","null","","","","","","","",""
"image-selector-fb","372","953466","0.0-46.1-0.1","1604","pics2/SW1.jpg,pics2/FR3.jpg","","","","","","","true","1","","","heartS.png","","",""
"image-slider-2AFC","373","955620","0.0-46.1-1.1","2150","","","","25","","","","","","","","heartS.png","1411","25",""
"html-keyboard-response","374","956373","0.0-46.1-2.1","null","","","","","","","null","","","","","","","",""
"image-selector-fb","375","957741","0.0-46.2-0.2","860","pics2/SW1.jpg,pics2/FR6.jpg","","","","","","","false","0","","","heartS.png","","",""
"image-slider-2AFC","376","960103","0.0-46.2-1.2","2358","","","","-22","","","","","","","","sizeS.png","1526","-22",""
"html-keyboard-response","377","960856","0.0-46.2-2.2","null","","","","","","","null","","","","","","","",""
"image-selector-fb","378","962423","0.0-46.3-0.3","1060","pics2/SA3.jpg,pics2/SA4.jpg","","","","","","","false","0","","","heartS.png","","",""
"image-slider-2AFC","379","963951","0.0-46.3-1.3","1524","","","","49","","","","","","","","heartS.png","753","49",""
"html-keyboard-response","380","964654","0.0-46.3-2.3","null","","","","","","","null","","","","","","","",""
"image-selector-fb","381","966407","0.0-46.4-0.4","1242","pics2/VE4.jpg,pics2/SA3.jpg","","","","","","","false","0","","","heartS.png","","",""
"image-slider-2AFC","382","967828","0.0-46.4-1.4","1416","","","","55","","","","","","","","heartS.png","601","55",""
"html-keyboard-response","383","968682","0.0-46.4-2.4","null","","","","","","","null","","","","","","","",""
"image-selector-fb","384","970432","0.0-46.5-0.5","1243","pics2/SW3.jpg,pics2/SW2.jpg","","","","","","","false","0","","","heartS.png","","",""
"image-slider-2AFC","385","973311","0.0-46.5-1.5","2876","","","","-46","","","","","","","","sizeS.png","2120","-46",""
"html-keyboard-response","386","974014","0.0-46.5-2.5","null","","","","","","","null","","","","","","","",""
"image-selector-fb","387","975506","0.0-46.6-0.6","986","pics2/FR6.jpg,pics2/SW2.jpg","","","","","","","false","0","","","sizeS.png","","",""
"image-slider-2AFC","388","978301","0.0-46.6-1.6","2792","","","","29","","","","","","","","heartS.png","2053","29",""
"html-keyboard-response","389","979005","0.0-46.6-2.6","null","","","","","","","null","","","","","","","",""
"image-selector-fb","390","980615","0.0-46.7-0.7","1099","pics2/FR3.jpg,pics2/VE4.jpg","","","","","","","false","0","","","sizeS.png","","",""
"image-slider-2AFC","391","982485","0.0-46.7-1.7","1866","","","","-48","","","","","","","","sizeS.png","1043","-48",""
"html-keyboard-response","392","983339","0.0-46.7-2.7","null","","","","","","","null","","","","","","","",""
"image-selector-fb","393","984790","0.0-46.8-0.8","944","pics2/FR3.jpg,pics2/FR6.jpg","","","","","","","false","0","","","heartS.png","","",""
"image-slider-2AFC","394","986627","0.0-46.8-1.8","1833","","","","-40","","","","","","","","heartS.png","1160","-40",""
"html-keyboard-response","395","987331","0.0-46.8-2.8","null","","","","","","","null","","","","","","","",""
"image-selector-fb","396","988939","0.0-46.9-0.9","1101","pics2/SW2.jpg,pics2/FR3.jpg","","","","","","","false","0","","","heartS.png","","",""
"image-slider-2AFC","397","991595","0.0-46.9-1.9","2652","","","","-41","","","","","","","","sizeS.png","1510","-41",""
"html-keyboard-response","398","992448","0.0-46.9-2.9","null","","","","","","","null","","","","","","","",""
"image-selector-fb","399","994055","0.0-46.10-0.10","1101","pics2/FR2.jpg,pics2/SW3.jpg","","","","","","","false","0","","","heartS.png","","",""
"image-slider-2AFC","400","995805","0.0-46.10-1.10","1743","","","","-40","","","","","","","","sizeS.png","908","-40",""
"html-keyboard-response","401","996559","0.0-46.10-2.10","null","","","","","","","null","","","","","","","",""
"image-selector-fb","402","998281","0.0-46.11-0.11","1213","pics2/SA3.jpg,pics2/SW2.jpg","","","","","","","false","0","","","sizeS.png","","",""
"image-slider-2AFC","403","999917","0.0-46.11-1.11","1632","","","","-43","","","","","","","","heartS.png","893","-43",""
"html-keyboard-response","404","1000669","0.0-46.11-2.11","null","","","","","","","null","","","","","","","",""
"image-selector-fb","405","1002564","0.0-46.12-0.12","1388","pics2/SA2.jpg,pics2/SW3.jpg","","","","","","","true","1","","","sizeS.png","","",""
"image-slider-2AFC","406","1004010","0.0-46.12-1.12","1442","","","","67","","","","","","","","heartS.png","577","67",""
"html-keyboard-response","407","1004813","0.0-46.12-2.12","null","","","","","","","null","","","","","","","",""
"image-selector-fb","408","1006238","0.0-46.13-0.13","917","pics2/SW3.jpg,pics2/SW1.jpg","","","","","","","false","0","","","heartS.png","","",""
"image-slider-2AFC","409","1007608","0.0-46.13-1.13","1367","","","","-46","","","","","","","","heartS.png","504","-46",""
"html-keyboard-response","410","1008362","0.0-46.13-2.13","null","","","","","","","null","","","","","","","",""
"image-selector-fb","411","1009730","0.0-46.14-0.14","862","pics2/SA2.jpg,pics2/SW2.jpg","","","","","","","false","0","","","heartS.png","","",""
"image-slider-2AFC","412","1012558","0.0-46.14-1.14","2824","","","","-40","","","","","","","","heartS.png","2085","-40",""
"html-keyboard-response","413","1013312","0.0-46.14-2.14","null","","","","","","","null","","","","","","","",""
"image-selector-fb","414","1014850","0.0-46.15-0.15","1028","pics2/VE4.jpg,pics2/FR3.jpg","","","","","","","false","0","","","heartS.png","","",""
"image-slider-2AFC","415","1016258","0.0-46.15-1.15","1403","","","","40","","","","","","","","heartS.png","614","40",""
"html-keyboard-response","416","1017112","0.0-46.15-2.15","null","","","","","","","null","","","","","","","",""
"image-selector-fb","417","1020123","0.0-46.16-0.16","null","pics2/FR3.jpg,pics2/SW3.jpg","","","","","","","false","null","","","noS.png","","",""
"image-slider-2AFC","418","1021609","0.0-46.16-1.16","1482","","","","50","","","","","","","","sizeS.png","700","50",""
"html-keyboard-response","419","1022312","0.0-46.16-2.16","null","","","","","","","null","","","","","","","",""
"image-selector-fb","420","1025321","0.0-46.17-0.17","null","pics2/SW4.jpg,pics2/SA4.jpg","","","","","","","false","null","","","noS.png","","",""
"image-slider-2AFC","421","1028348","0.0-46.17-1.17","3024","","","","51","","","","","","","","sizeS.png","1089","51",""
"html-keyboard-response","422","1029202","0.0-46.17-2.17","null","","","","","","","null","","","","","","","",""
"image-selector-fb","423","1031229","0.0-46.18-0.18","1518","pics2/VE4.jpg,pics2/FR6.jpg","","","","","","","false","0","","","heartS.png","","",""
"image-slider-2AFC","424","1032658","0.0-46.18-1.18","1426","","","","-41","","","","","","","","sizeS.png","603","-41",""
"html-keyboard-response","425","1033461","0.0-46.18-2.18","null","","","","","","","null","","","","","","","",""
"image-selector-fb","426","1036472","0.0-46.19-0.19","null","pics2/SW2.jpg,pics2/SA4.jpg","","","","","","","false","null","","","noS.png","","",""
"image-slider-2AFC","427","1040006","0.0-46.19-1.19","3529","","","","-48","","","","","","","","heartS.png","2724","-48",""
"html-keyboard-response","428","1040710","0.0-46.19-2.19","null","","","","","","","null","","","","","","","",""
"image-selector-fb","429","1043719","0.0-46.20-0.20","null","pics2/FR1.jpg,pics2/VE4.jpg","","","","","","","false","null","","","noS.png","","",""
"image-slider-2AFC","430","1045365","0.0-46.20-1.20","1642","","","","44","","","","","","","","heartS.png","943","44",""
"html-keyboard-response","431","1046219","0.0-46.20-2.20","null","","","","","","","null","","","","","","","",""
"image-selector-fb","432","1047828","0.0-46.21-0.21","1102","pics2/VE4.jpg,pics2/SW4.jpg","","","","","","","false","0","","","heartS.png","","",""
"image-slider-2AFC","433","1049223","0.0-46.21-1.21","1392","","","","41","","","","","","","","sizeS.png","552","41",""
"html-keyboard-response","434","1050077","0.0-46.21-2.21","null","","","","","","","null","","","","","","","",""
"image-selector-fb","435","1051489","0.0-46.22-0.22","905","pics2/VE4.jpg,pics2/SA2.jpg","","","","","","","false","0","","","sizeS.png","","",""
"image-slider-2AFC","436","1052898","0.0-46.22-1.22","1405","","","","50","","","","","","","","heartS.png","623","50",""
"html-keyboard-response","437","1053702","0.0-46.22-2.22","null","","","","","","","null","","","","","","","",""
"image-selector-fb","438","1055078","0.0-46.23-0.23","867","pics2/SA2.jpg,pics2/FR6.jpg","","","","","","","false","0","","","heartS.png","","",""
"image-slider-2AFC","439","1058130","0.0-46.23-1.23","3048","","","","-61","","","","","","","","heartS.png","2251","-61",""
"html-keyboard-response","440","1058934","0.0-46.23-2.23","null","","","","","","","null","","","","","","","",""
"image-selector-fb","441","1060286","0.0-46.24-0.24","845","pics2/FR1.jpg,pics2/SW2.jpg","","","","","","","false","0","","","sizeS.png","","",""
"image-slider-2AFC","442","1061923","0.0-46.24-1.24","1634","","","","44","","","","","","","","heartS.png","877","44",""
"html-keyboard-response","443","1062727","0.0-46.24-2.24","null","","","","","","","null","","","","","","","",""
"image-selector-fb","444","1065734","0.0-46.25-0.25","null","pics2/SW4.jpg,pics2/FR3.jpg","","","","","","","false","null","","","noS.png","","",""
"image-slider-2AFC","445","1068462","0.0-46.25-1.25","2725","","","","-67","","","","","","","","heartS.png","1979","-67",""
"html-keyboard-response","446","1069219","0.0-46.25-2.25","null","","","","","","","null","","","","","","","",""
"image-selector-fb","447","1072230","0.0-46.26-0.26","null","pics2/FR2.jpg,pics2/SW2.jpg","","","","","","","false","null","","","noS.png","","",""
"image-slider-2AFC","448","1073772","0.0-46.26-1.26","1538","","","","43","","","","","","","","heartS.png","825","43",""
"html-keyboard-response","449","1074576","0.0-46.26-2.26","null","","","","","","","null","","","","","","","",""
"image-selector-fb","450","1077585","0.0-46.27-0.27","null","pics2/VE4.jpg,pics2/SW4.jpg","","","","","","","false","null","","","noS.png","","",""
"image-slider-2AFC","451","1079800","0.0-46.27-1.27","2211","","","","20","","","","","","","","heartS.png","1402","20",""
"html-keyboard-response","452","1080604","0.0-46.27-2.27","null","","","","","","","null","","","","","","","",""
"image-selector-fb","453","1083619","0.0-46.28-0.28","null","pics2/FR6.jpg,pics2/SW2.jpg","","","","","","","false","null","","","noS.png","","",""
"image-slider-2AFC","454","1086154","0.0-46.28-1.28","2532","","","","62","","","","","","","","sizeS.png","1592","62",""
"html-keyboard-response","455","1087008","0.0-46.28-2.28","null","","","","","","","null","","","","","","","",""
"image-selector-fb","456","1090016","0.0-46.29-0.29","null","pics2/SA3.jpg,pics2/SA4.jpg","","","","","","","false","null","","","noS.png","","",""
"image-slider-2AFC","457","1091713","0.0-46.29-1.29","1693","","","","-66","","","","","","","","sizeS.png","795","-66",""
"html-keyboard-response","458","1092566","0.0-46.29-2.29","null","","","","","","","null","","","","","","","",""
"image-selector-fb","459","1095575","0.0-46.30-0.30","null","pics2/FR2.jpg,pics2/FR3.jpg","","","","","","","false","null","","","noS.png","","",""
"image-slider-2AFC","460","1097279","0.0-46.30-1.30","1700","","","","49","","","","","","","","sizeS.png","879","49",""
"html-keyboard-response","461","1098082","0.0-46.30-2.30","null","","","","","","","null","","","","","","","",""
"image-selector-fb","462","1101093","0.0-46.31-0.31","null","pics2/FR1.jpg,pics2/SW1.jpg","","","","","","","false","null","","","noS.png","","",""
"image-slider-2AFC","463","1102889","0.0-46.31-1.31","1792","","","","72","","","","","","","","sizeS.png","860","72",""
"html-keyboard-response","464","1103692","0.0-46.31-2.31","null","","","","","","","null","","","","","","","",""
"image-selector-fb","465","1106701","0.0-46.32-0.32","null","pics2/FR3.jpg,pics2/SW2.jpg","","","","","","","false","null","","","noS.png","","",""
"image-slider-2AFC","466","1109111","0.0-46.32-1.32","2407","","","","53","","","","","","","","heartS.png","1592","53",""
"html-keyboard-response","467","1109915","0.0-46.32-2.32","null","","","","","","","null","","","","","","","",""
"image-selector-fb","468","1112923","0.0-46.33-0.33","null","pics2/FR3.jpg,pics2/SW1.jpg","","","","","","","false","null","","","noS.png","","",""
"image-slider-2AFC","469","1117927","0.0-46.33-1.33","null","","","","null","","","","","","","","sizeS.png","","",""
"html-keyboard-response","470","1118784","0.0-46.33-2.33","null","","","","","","","null","","","","","","","",""
"image-selector-fb","471","1120717","0.0-46.34-0.34","1424","pics2/SA2.jpg,pics2/SW1.jpg","","","","","","","false","0","","","heartS.png","","",""
"image-slider-2AFC","472","1122137","0.0-46.34-1.34","1416","","","","51","","","","","","","","sizeS.png","568","51",""
"html-keyboard-response","473","1122840","0.0-46.34-2.34","null","","","","","","","null","","","","","","","",""
"image-selector-fb","474","1125849","0.0-46.35-0.35","null","pics2/SA4.jpg,pics2/SW3.jpg","","","","","","","false","null","","","noS.png","","",""
"image-slider-2AFC","475","1127572","0.0-46.35-1.35","1719","","","","57","","","","","","","","heartS.png","827","57",""
"html-keyboard-response","476","1128276","0.0-46.35-2.35","null","","","","","","","null","","","","","","","",""
"image-selector-fb","477","1129991","0.0-46.36-0.36","1207","pics2/SW4.jpg,pics2/SA3.jpg","","","","","","","true","1","","","heartS.png","","",""
"image-slider-2AFC","478","1131378","0.0-46.36-1.36","1383","","","","61","","","","","","","","heartS.png","561","61",""
"html-keyboard-response","479","1132081","0.0-46.36-2.36","null","","","","","","","null","","","","","","","",""
"image-selector-fb","480","1133633","0.0-46.37-0.37","1044","pics2/SW4.jpg,pics2/SW1.jpg","","","","","","","true","1","","","heartS.png","","",""
"image-slider-2AFC","481","1135136","0.0-46.37-1.37","1499","","","","64","","","","","","","","heartS.png","577","64",""
"html-keyboard-response","482","1135990","0.0-46.37-2.37","null","","","","","","","null","","","","","","","",""
"image-selector-fb","483","1139001","0.0-46.38-0.38","null","pics2/VE4.jpg,pics2/SA3.jpg","","","","","","","false","null","","","noS.png","","",""
"image-slider-2AFC","484","1142969","0.0-46.38-1.38","3965","","","","52","","","","","","","","heartS.png","3113","52",""
"html-keyboard-response","485","1143773","0.0-46.38-2.38","null","","","","","","","null","","","","","","","",""
"image-selector-fb","486","1145816","0.0-46.39-0.39","1534","pics2/SA3.jpg,pics2/VE4.jpg","","","","","","","false","0","","","sizeS.png","","",""
"image-slider-2AFC","487","1148252","0.0-46.39-1.39","2432","","","","-26","","","","","","","","sizeS.png","1618","-26",""
"html-keyboard-response","488","1149055","0.0-46.39-2.39","null","","","","","","","null","","","","","","","",""
"image-selector-fb","489","1152063","0.0-46.40-0.40","null","pics2/FR1.jpg,pics2/FR2.jpg","","","","","","","false","null","","","noS.png","","",""
"image-slider-2AFC","490","1154334","0.0-46.40-1.40","2267","","","","54","","","","","","","","heartS.png","1461","54",""
"html-keyboard-response","491","1155037","0.0-46.40-2.40","null","","","","","","","null","","","","","","","",""
"image-selector-fb","492","1156952","0.0-46.41-0.41","1407","pics2/FR2.jpg,pics2/SA2.jpg","","","","","","","false","0","","","heartS.png","","",""
"image-slider-2AFC","493","1158560","0.0-46.41-1.41","1604","","","","43","","","","","","","","heartS.png","628","43",""
"html-keyboard-response","494","1159314","0.0-46.41-2.41","null","","","","","","","null","","","","","","","",""
"image-selector-fb","495","1161497","0.0-46.42-0.42","1674","pics2/SA3.jpg,pics2/SW4.jpg","","","","","","","false","0","","","sizeS.png","","",""
"image-slider-2AFC","496","1164184","0.0-46.42-1.42","2684","","","","-18","","","","","","","","heartS.png","1702","-18",""
"html-keyboard-response","497","1165037","0.0-46.42-2.42","null","","","","","","","null","","","","","","","",""
"image-selector-fb","498","1166714","0.0-46.43-0.43","1169","pics2/SA4.jpg,pics2/FR3.jpg","","","","","","","true","1","","","heartS.png","","",""
"image-slider-2AFC","499","1168418","0.0-46.43-1.43","1701","","","","43","","","","","","","","heartS.png","710","43",""
"html-keyboard-response","500","1169272","0.0-46.43-2.43","null","","","","","","","null","","","","","","","",""
"image-selector-fb","501","1172280","0.0-46.44-0.44","null","pics2/SA3.jpg,pics2/SW2.jpg","","","","","","","false","null","","","noS.png","","",""
"image-slider-2AFC","502","1175217","0.0-46.44-1.44","2933","","","","-22","","","","","","","","sizeS.png","1968","-22",""
"html-keyboard-response","503","1176021","0.0-46.44-2.44","null","","","","","","","null","","","","","","","",""
"image-selector-fb","504","1178092","0.0-46.45-0.45","1561","pics2/SW1.jpg,pics2/SW3.jpg","","","","","","","true","1","","","sizeS.png","","",""
"image-slider-2AFC","505","1181866","0.0-46.45-1.45","3770","","","","94","","","","","","","","sizeS.png","1606","94",""
"html-keyboard-response","506","1182570","0.0-46.45-2.45","null","","","","","","","null","","","","","","","",""
"image-selector-fb","507","1184680","0.0-46.46-0.46","1602","pics2/SA3.jpg,pics2/SW1.jpg","","","","","","","false","0","","","heartS.png","","",""
"image-slider-2AFC","508","1186225","0.0-46.46-1.46","1541","","","","-18","","","","","","","","sizeS.png","688","-18",""
"html-keyboard-response","509","1186936","0.0-46.46-2.46","null","","","","","","","null","","","","","","","",""
"image-selector-fb","510","1188513","0.0-46.47-0.47","1070","pics2/SW2.jpg,pics2/SA3.jpg","","","","","","","false","0","","","heartS.png","","",""
"image-slider-2AFC","511","1189984","0.0-46.47-1.47","1466","","","","47","","","","","","","","sizeS.png","667","47",""
"html-keyboard-response","512","1190836","0.0-46.47-2.47","null","","","","","","","null","","","","","","","",""
"image-selector-fb","513","1193803","0.0-46.48-0.48","2459","pics2/FR1.jpg,pics2/SW3.jpg","","","","","","","true","1","","","sizeS.png","","",""
"image-slider-2AFC","514","1195533","0.0-46.48-1.48","1727","","","","58","","","","","","","","heartS.png","902","58",""
"html-keyboard-response","515","1196237","0.0-46.48-2.48","null","","","","","","","null","","","","","","","",""
"image-selector-fb","516","1197979","0.0-46.49-0.49","1236","pics2/VE4.jpg,pics2/SW1.jpg","","","","","","","true","1","","","heartS.png","","",""
"image-slider-2AFC","517","1199342","0.0-46.49-1.49","1355","","","","45","","","","","","","","heartS.png","615","45",""
"html-keyboard-response","518","1200196","0.0-46.49-2.49","null","","","","","","","null","","","","","","","",""
"image-selector-fb","519","1201904","0.0-46.50-0.50","1202","pics2/SW4.jpg,pics2/SW2.jpg","","","","","","","true","1","","","sizeS.png","","",""
"image-slider-2AFC","520","1203390","0.0-46.50-1.50","1483","","","","41","","","","","","","","sizeS.png","710","41",""
"html-keyboard-response","521","1204243","0.0-46.50-2.50","null","","","","","","","null","","","","","","","",""
"image-selector-fb","522","1207252","0.0-46.51-0.51","null","pics2/SA2.jpg,pics2/VE4.jpg","","","","","","","false","null","","","noS.png","","",""
"image-slider-2AFC","523","1210966","0.0-46.51-1.51","3710","","","","55","","","","","","","","heartS.png","2833","55",""
"html-keyboard-response","524","1211819","0.0-46.51-2.51","null","","","","","","","null","","","","","","","",""
"image-selector-fb","525","1213788","0.0-46.52-0.52","1458","pics2/SW3.jpg,pics2/FR1.jpg","","","","","","","false","0","","","heartS.png","","",""
"image-slider-2AFC","526","1215349","0.0-46.52-1.52","1558","","","","-52","","","","","","","","sizeS.png","877","-52",""
"html-keyboard-response","527","1216153","0.0-46.52-2.52","null","","","","","","","null","","","","","","","",""
"image-selector-fb","528","1219163","0.0-46.53-0.53","null","pics2/FR3.jpg,pics2/SA4.jpg","","","","","","","false","null","","","noS.png","","",""
"image-slider-2AFC","529","1222206","0.0-46.53-1.53","3040","","","","-70","","","","","","","","heartS.png","2236","-70",""
"html-keyboard-response","530","1223010","0.0-46.53-2.53","null","","","","","","","null","","","","","","","",""
"image-selector-fb","531","1224677","0.0-46.54-0.54","1159","pics2/SA2.jpg,pics2/FR1.jpg","","","","","","","false","0","","","heartS.png","","",""
"image-slider-2AFC","532","1226446","0.0-46.54-1.54","1766","","","","-62","","","","","","","","heartS.png","876","-62",""
"html-keyboard-response","533","1227200","0.0-46.54-2.54","null","","","","","","","null","","","","","","","",""
"image-selector-fb","534","1228653","0.0-46.55-0.55","946","pics2/FR6.jpg,pics2/FR2.jpg","","","","","","","false","0","","","sizeS.png","","",""
"image-slider-2AFC","535","1230239","0.0-46.55-1.55","1583","","","","39","","","","","","","","sizeS.png","693","39",""
"html-keyboard-response","536","1231093","0.0-46.55-2.55","null","","","","","","","null","","","","","","","",""
"image-selector-fb","537","1234101","0.0-46.56-0.56","null","pics2/SW4.jpg,pics2/FR2.jpg","","","","","","","false","null","","","noS.png","","",""
"image-slider-2AFC","538","1235864","0.0-46.56-1.56","1759","","","","43","","","","","","","","sizeS.png","929","43",""
"html-keyboard-response","539","1236668","0.0-46.56-2.56","null","","","","","","","null","","","","","","","",""
"image-selector-fb","540","1239678","0.0-46.57-0.57","null","pics2/SA2.jpg,pics2/SW3.jpg","","","","","","","false","null","","","noS.png","","",""
"image-slider-2AFC","541","1241181","0.0-46.57-1.57","1499","","","","58","","","","","","","","sizeS.png","784","58",""
"html-keyboard-response","542","1242035","0.0-46.57-2.57","null","","","","","","","null","","","","","","","",""
"image-selector-fb","543","1243635","0.0-46.58-0.58","1093","pics2/FR3.jpg,pics2/SW4.jpg","","","","","","","false","0","","","sizeS.png","","",""
"image-slider-2AFC","544","1245682","0.0-46.58-1.58","2042","","","","46","","","","","","","","heartS.png","1213","46",""
"html-keyboard-response","545","1246389","0.0-46.58-2.58","null","","","","","","","null","","","","","","","",""
"image-selector-fb","546","1249398","0.0-46.59-0.59","null","pics2/FR1.jpg,pics2/SA2.jpg","","","","","","","false","null","","","noS.png","","",""
"image-slider-2AFC","547","1250888","0.0-46.59-1.59","1486","","","","51","","","","","","","","sizeS.png","762","51",""
"html-keyboard-response","548","1251592","0.0-46.59-2.59","null","","","","","","","null","","","","","","","",""
"image-selector-fb","549","1253135","0.0-46.60-0.60","1035","pics2/FR2.jpg,pics2/SW1.jpg","","","","","","","false","0","","","heartS.png","","",""
"image-slider-2AFC","550","1254613","0.0-46.60-1.60","1475","","","","38","","","","","","","","heartS.png","776","38",""
"html-keyboard-response","551","1255367","0.0-46.60-2.60","null","","","","","","","null","","","","","","","",""
"image-selector-fb","552","1259043","0.0-46.61-0.61","3168","pics2/SA2.jpg,pics2/SA3.jpg","","","","","","","true","1","","","heartS.png","","",""
"image-slider-2AFC","553","1261463","0.0-46.61-1.61","2416","","","","18","","","","","","","","sizeS.png","1545","18",""
"html-keyboard-response","554","1262217","0.0-46.61-2.61","null","","","","","","","null","","","","","","","",""
"image-selector-fb","555","1263709","0.0-46.62-0.62","983","pics2/FR2.jpg,pics2/FR6.jpg","","","","","","","true","1","","","heartS.png","","",""
"image-slider-2AFC","556","1265254","0.0-46.62-1.62","1541","","","","50","","","","","","","","sizeS.png","425,647","41,50",""
"html-keyboard-response","557","1265957","0.0-46.62-2.62","null","","","","","","","null","","","","","","","",""
"image-selector-fb","558","1267683","0.0-46.63-0.63","1219","pics2/SW1.jpg,pics2/FR2.jpg","","","","","","","false","0","","","sizeS.png","","",""
"image-slider-2AFC","559","1268996","0.0-46.63-1.63","1306","","","","33","","","","","","","","heartS.png","558","33",""
"html-keyboard-response","560","1269800","0.0-46.63-2.63","null","","","","","","","null","","","","","","","",""
"image-selector-fb","561","1271424","0.0-46.64-0.64","1116","pics2/SA3.jpg,pics2/SA2.jpg","","","","","","","false","0","","","sizeS.png","","",""
"image-slider-2AFC","562","1274412","0.0-46.64-1.64","2984","","","","-19","","","","","","","","sizeS.png","2229","-19",""
"html-keyboard-response","563","1275265","0.0-46.64-2.64","null","","","","","","","null","","","","","","","",""
"image-selector-fb","564","1278280","0.0-46.65-0.65","null","pics2/SW4.jpg,pics2/SW1.jpg","","","","","","","false","null","","","noS.png","","",""
"image-slider-2AFC","565","1281695","0.0-46.65-1.65","3411","","","","-26","","","","","","","","heartS.png","2504","-26",""
"html-keyboard-response","566","1282449","0.0-46.65-2.65","null","","","","","","","null","","","","","","","",""
"pavlovia","567","1282483","0.0-47.0","","","","","","","","","","","","","","","",""
"html-keyboard-response","568","1287485","0.0-48.0","null","<div style='width: 700px;'> <font size=6><b>SHORT BREAK</font></b><br><br><i> Please wait 5 seconds to continue</i></div> ","","","","","","null","","","","","","","",""
"pavlovia","569","1287488","0.0-49.0","","","","","","","","","","","","","","","",""
"html-button-response","570","1299015","0.0-50.0","11525","<div style='width: 700px;'> <font size=6><b>BLOCK 3</font></b><br><br>Press the button whenever you feel ready to start the third and final block</div>","0","","","","","","","","","","","","",""
"image-selector-fb","571","1302018","0.0-51.0-0.0","2485","pics2/FR1.jpg,pics2/VE4.jpg","","","","","","","false","0","","","sizeS.png","","",""
"image-slider-2AFC","572","1304109","0.0-51.0-1.0","2084","","","","-59","","","","","","","","sizeS.png","769,1380","44,-59",""
"html-keyboard-response","573","1304815","0.0-51.0-2.0","null","","","","","","","null","","","","","","","",""
"image-selector-fb","574","1307829","0.0-51.1-0.1","null","pics2/FR2.jpg,pics2/SA4.jpg","","","","","","","false","null","","","noS.png","","",""
"image-slider-2AFC","575","1310778","0.0-51.1-1.1","2946","","","","49","","","","","","","","heartS.png","1840","49",""
"html-keyboard-response","576","1311533","0.0-51.1-2.1","null","","","","","","","null","","","","","","","",""
"image-selector-fb","577","1313224","0.0-51.2-0.2","1182","pics2/FR1.jpg,pics2/SA4.jpg","","","","","","","true","1","","","heartS.png","","",""
"image-slider-2AFC","578","1316086","0.0-51.2-1.2","2858","","","","55","","","","","","","","heartS.png","2063","55",""
"html-keyboard-response","579","1316840","0.0-51.2-2.2","null","","","","","","","null","","","","","","","",""
"image-selector-fb","580","1318548","0.0-51.3-0.3","1200","pics2/FR3.jpg,pics2/SW2.jpg","","","","","","","false","0","","","sizeS.png","","",""
"image-slider-2AFC","581","1320327","0.0-51.3-1.3","1775","","","","-45","","","","","","","","heartS.png","943","-45",""
"html-keyboard-response","582","1321030","0.0-51.3-2.3","null","","","","","","","null","","","","","","","",""
"image-selector-fb","583","1322789","0.0-51.4-0.4","1251","pics2/FR2.jpg,pics2/SA4.jpg","","","","","","","true","1","","","heartS.png","","",""
"image-slider-2AFC","584","1324401","0.0-51.4-1.4","1608","","","","57","","","","","","","","sizeS.png","793","57",""
"html-keyboard-response","585","1325255","0.0-51.4-2.4","null","","","","","","","null","","","","","","","",""
"image-selector-fb","586","1327431","0.0-51.5-0.5","1668","pics2/SW4.jpg,pics2/FR3.jpg","","","","","","","true","1","","","heartS.png","","",""
"image-slider-2AFC","587","1329967","0.0-51.5-1.5","2533","","","","47","","","","","","","","heartS.png","1751","47",""
"html-keyboard-response","588","1330672","0.0-51.5-2.5","null","","","","","","","null","","","","","","","",""
"image-selector-fb","589","1333681","0.0-51.6-0.6","null","pics2/SW4.jpg,pics2/SW3.jpg","","","","","","","false","null","","","noS.png","","",""
"image-slider-2AFC","590","1335317","0.0-51.6-1.6","1631","","","","52","","","","","","","","heartS.png","867","52",""
"html-keyboard-response","591","1336171","0.0-51.6-2.6","null","","","","","","","null","","","","","","","",""
"image-selector-fb","592","1339180","0.0-51.7-0.7","null","pics2/SA2.jpg,pics2/SA4.jpg","","","","","","","false","null","","","noS.png","","",""
"image-slider-2AFC","593","1343316","0.0-51.7-1.7","4133","","","","46","","","","","","","","heartS.png","3370","46",""
"html-keyboard-response","594","1344120","0.0-51.7-2.7","null","","","","","","","null","","","","","","","",""
"image-selector-fb","595","1345788","0.0-51.8-0.8","1160","pics2/SA3.jpg,pics2/SW3.jpg","","","","","","","false","0","","","sizeS.png","","",""
"image-slider-2AFC","596","1347767","0.0-51.8-1.8","1974","","","","51","","","","","","","","heartS.png","1175","51",""
"html-keyboard-response","597","1348521","0.0-51.8-2.8","null","","","","","","","null","","","","","","","",""
"image-selector-fb","598","1350538","0.0-51.9-0.9","1508","pics2/SW4.jpg,pics2/SA2.jpg","","","","","","","false","0","","","sizeS.png","","",""
"image-slider-2AFC","599","1352392","0.0-51.9-1.9","1850","","","","-52","","","","","","","","heartS.png","1054","-52",""
"html-keyboard-response","600","1353196","0.0-51.9-2.9","null","","","","","","","null","","","","","","","",""
"image-selector-fb","601","1354996","0.0-51.10-0.10","1292","pics2/FR6.jpg,pics2/SW3.jpg","","","","","","","true","1","","","sizeS.png","","",""
"image-slider-2AFC","602","1357749","0.0-51.10-1.10","2744","","","","34","","","","","","","","heartS.png","1872","34",""
"html-keyboard-response","603","1358453","0.0-51.10-2.10","null","","","","","","","null","","","","","","","",""
"image-selector-fb","604","1360128","0.0-51.11-0.11","1166","pics2/FR1.jpg,pics2/SA3.jpg","","","","","","","true","1","","","sizeS.png","","",""
"image-slider-2AFC","605","1361633","0.0-51.11-1.11","1501","","","","47","","","","","","","","sizeS.png","686","47",""
"html-keyboard-response","606","1362337","0.0-51.11-2.11","null","","","","","","","null","","","","","","","",""
"image-selector-fb","607","1365346","0.0-51.12-0.12","null","pics2/FR1.jpg,pics2/SW3.jpg","","","","","","","false","null","","","noS.png","","",""
"image-slider-2AFC","608","1366875","0.0-51.12-1.12","1524","","","","68","","","","","","","","sizeS.png","693","68",""
"html-keyboard-response","609","1367728","0.0-51.12-2.12","null","","","","","","","null","","","","","","","",""
"image-selector-fb","610","1370737","0.0-51.13-0.13","null","pics2/SA2.jpg,pics2/FR6.jpg","","","","","","","false","null","","","noS.png","","",""
"image-slider-2AFC","611","1372324","0.0-51.13-1.13","1583","","","","67","","","","","","","","heartS.png","768","67",""
"html-keyboard-response","612","1373028","0.0-51.13-2.13","null","","","","","","","null","","","","","","","",""
"image-selector-fb","613","1374929","0.0-51.14-0.14","1393","pics2/FR6.jpg,pics2/SA3.jpg","","","","","","","true","1","","","sizeS.png","","",""
"image-slider-2AFC","614","1376407","0.0-51.14-1.14","1474","","","","51","","","","","","","","sizeS.png","667","51",""
"html-keyboard-response","615","1377161","0.0-51.14-2.14","null","","","","","","","null","","","","","","","",""
"image-selector-fb","616","1378919","0.0-51.15-0.15","1252","pics2/SW3.jpg,pics2/FR3.jpg","","","","","","","true","1","","","heartS.png","","",""
"image-slider-2AFC","617","1380307","0.0-51.15-1.15","1384","","","","53","","","","","","","","heartS.png","561","53",""
"html-keyboard-response","618","1381160","0.0-51.15-2.15","null","","","","","","","null","","","","","","","",""
"image-selector-fb","619","1382937","0.0-51.16-0.16","1269","pics2/SW3.jpg,pics2/SA3.jpg","","","","","","","false","0","","","heartS.png","","",""
"image-slider-2AFC","620","1384823","0.0-51.16-1.16","1883","","","","-56","","","","","","","","heartS.png","559,1168","58,-56",""
"html-keyboard-response","621","1385677","0.0-51.16-2.16","null","","","","","","","null","","","","","","","",""
"image-selector-fb","622","1387311","0.0-51.17-0.17","1128","pics2/SA4.jpg,pics2/FR2.jpg","","","","","","","false","0","","","sizeS.png","","",""
"image-slider-2AFC","623","1388989","0.0-51.17-1.17","1674","","","","-57","","","","","","","","heartS.png","669","-57",""
"html-keyboard-response","624","1389742","0.0-51.17-2.17","null","","","","","","","null","","","","","","","",""
"image-selector-fb","625","1392751","0.0-51.18-0.18","null","pics2/FR6.jpg,pics2/SW1.jpg","","","","","","","false","null","","","noS.png","","",""
"image-slider-2AFC","626","1394765","0.0-51.18-1.18","2010","","","","50","","","","","","","","heartS.png","1288","50",""
"html-keyboard-response","627","1395519","0.0-51.18-2.18","null","","","","","","","null","","","","","","","",""
"image-selector-fb","628","1397177","0.0-51.19-0.19","1151","pics2/SW1.jpg,pics2/SW2.jpg","","","","","","","true","1","","","sizeS.png","","",""
"image-slider-2AFC","629","1398572","0.0-51.19-1.19","1392","","","","49","","","","","","","","sizeS.png","595","49",""
"html-keyboard-response","630","1399276","0.0-51.19-2.19","null","","","","","","","null","","","","","","","",""
"image-selector-fb","631","1401302","0.0-51.20-0.20","1519","pics2/FR3.jpg,pics2/SA4.jpg","","","","","","","true","1","","","sizeS.png","","",""
"image-slider-2AFC","632","1402747","0.0-51.20-1.20","1441","","","","43","","","","","","","","heartS.png","660","43",""
"html-keyboard-response","633","1403600","0.0-51.20-2.20","null","","","","","","","null","","","","","","","",""
"image-selector-fb","634","1405261","0.0-51.21-0.21","1153","pics2/SW4.jpg,pics2/SW3.jpg","","","","","","","false","0","","","sizeS.png","","",""
"image-slider-2AFC","635","1406572","0.0-51.21-1.21","1308","","","","-64","","","","","","","","sizeS.png","458","-64",""
"html-keyboard-response","636","1407276","0.0-51.21-2.21","null","","","","","","","null","","","","","","","",""
"image-selector-fb","637","1408894","0.0-51.22-0.22","1111","pics2/FR6.jpg,pics2/VE4.jpg","","","","","","","true","1","","","sizeS.png","","",""
"image-slider-2AFC","638","1410289","0.0-51.22-1.22","1392","","","","30","","","","","","","","sizeS.png","674","30",""
"html-keyboard-response","639","1411142","0.0-51.22-2.22","null","","","","","","","null","","","","","","","",""
"image-selector-fb","640","1412968","0.0-51.23-0.23","1319","pics2/SW4.jpg,pics2/FR2.jpg","","","","","","","true","1","","","sizeS.png","","",""
"image-slider-2AFC","641","1414322","0.0-51.23-1.23","1350","","","","48","","","","","","","","heartS.png","552","48",""
"html-keyboard-response","642","1415126","0.0-51.23-2.23","null","","","","","","","null","","","","","","","",""
"image-selector-fb","643","1416702","0.0-51.24-0.24","1069","pics2/FR2.jpg,pics2/FR1.jpg","","","","","","","true","1","","","heartS.png","","",""
"image-slider-2AFC","644","1418522","0.0-51.24-1.24","1816","","","","36","","","","","","","","sizeS.png","1101","36",""
"html-keyboard-response","645","1419226","0.0-51.24-2.24","null","","","","","","","null","","","","","","","",""
"image-selector-fb","646","1422234","0.0-51.25-0.25","null","pics2/SW4.jpg,pics2/SA3.jpg","","","","","","","false","null","","","noS.png","","",""
"image-slider-2AFC","647","1425829","0.0-51.25-1.25","3590","","","","50","","","","","","","","heartS.png","2576","50",""
"html-keyboard-response","648","1426533","0.0-51.25-2.25","null","","","","","","","null","","","","","","","",""
"image-selector-fb","649","1428184","0.0-51.26-0.26","1143","pics2/FR2.jpg,pics2/FR3.jpg","","","","","","","true","1","","","heartS.png","","",""
"image-slider-2AFC","650","1431254","0.0-51.26-1.26","3066","","","","44","","","","","","","","heartS.png","2276","44",""
"html-keyboard-response","651","1432108","0.0-51.26-2.26","null","","","","","","","null","","","","","","","",""
"image-selector-fb","652","1435117","0.0-51.27-0.27","null","pics2/FR2.jpg,pics2/SA3.jpg","","","","","","","false","null","","","noS.png","","",""
"image-slider-2AFC","653","1437977","0.0-51.27-1.27","2856","","","","51","","","","","","","","sizeS.png","1992","51",""
"html-keyboard-response","654","1438831","0.0-51.27-2.27","null","","","","","","","null","","","","","","","",""
"image-selector-fb","655","1441840","0.0-51.28-0.28","null","pics2/SA3.jpg,pics2/SW3.jpg","","","","","","","false","null","","","noS.png","","",""
"image-slider-2AFC","656","1444111","0.0-51.28-1.28","2268","","","","38","","","","","","","","heartS.png","1386","38",""
"html-keyboard-response","657","1444815","0.0-51.28-2.28","null","","","","","","","null","","","","","","","",""
"image-selector-fb","658","1447824","0.0-51.29-0.29","null","pics2/SW4.jpg,pics2/SW2.jpg","","","","","","","false","null","","","noS.png","","",""
"image-slider-2AFC","659","1449320","0.0-51.29-1.29","1493","","","","43","","","","","","","","sizeS.png","720","43",""
"html-keyboard-response","660","1450124","0.0-51.29-2.29","null","","","","","","","null","","","","","","","",""
"image-selector-fb","661","1452182","0.0-51.30-0.30","1551","pics2/SA4.jpg,pics2/SA3.jpg","","","","","","","false","0","","","sizeS.png","","",""
"image-slider-2AFC","662","1453877","0.0-51.30-1.30","1691","","","","-23","","","","","","","","heartS.png","901","-23",""
"html-keyboard-response","663","1454731","0.0-51.30-2.30","null","","","","","","","null","","","","","","","",""
"image-selector-fb","664","1457739","0.0-51.31-0.31","null","pics2/FR6.jpg,pics2/SW3.jpg","","","","","","","false","null","","","noS.png","","",""
"image-slider-2AFC","665","1460836","0.0-51.31-1.31","3093","","","","58","","","","","","","","heartS.png","2171","58",""
"html-keyboard-response","666","1461690","0.0-51.31-2.31","null","","","","","","","null","","","","","","","",""
"image-selector-fb","667","1464697","0.0-51.32-0.32","null","pics2/FR1.jpg,pics2/SW4.jpg","","","","","","","false","null","","","noS.png","","",""
"image-slider-2AFC","668","1467286","0.0-51.32-1.32","2585","","","","40","","","","","","","","sizeS.png","1805","40",""
"html-keyboard-response","669","1468140","0.0-51.32-2.32","null","","","","","","","null","","","","","","","",""
"image-selector-fb","670","1469749","0.0-51.33-0.33","1102","pics2/FR2.jpg,pics2/VE4.jpg","","","","","","","false","0","","","heartS.png","","",""
"image-slider-2AFC","671","1471285","0.0-51.33-1.33","1533","","","","-19","","","","","","","","heartS.png","726","-19",""
"html-keyboard-response","672","1472089","0.0-51.33-2.33","null","","","","","","","null","","","","","","","",""
"image-selector-fb","673","1474256","0.0-51.34-0.34","1660","pics2/SA3.jpg,pics2/FR3.jpg","","","","","","","true","1","","","heartS.png","","",""
"image-slider-2AFC","674","1475743","0.0-51.34-1.34","1483","","","","50","","","","","","","","sizeS.png","627","50",""
"html-keyboard-response","675","1476596","0.0-51.34-2.34","null","","","","","","","null","","","","","","","",""
"image-selector-fb","676","1479604","0.0-51.35-0.35","null","pics2/FR1.jpg,pics2/SW2.jpg","","","","","","","false","null","","","noS.png","","",""
"image-slider-2AFC","677","1481535","0.0-51.35-1.35","1927","","","","53","","","","","","","","heartS.png","1203","53",""
"html-keyboard-response","678","1482289","0.0-51.35-2.35","null","","","","","","","null","","","","","","","",""
"image-selector-fb","679","1484089","0.0-51.36-0.36","1294","pics2/VE4.jpg,pics2/SW2.jpg","","","","","","","true","1","","","sizeS.png","","",""
"image-slider-2AFC","680","1485485","0.0-51.36-1.36","1391","","","","60","","","","","","","","sizeS.png","626","60",""
"html-keyboard-response","681","1486288","0.0-51.36-2.36","null","","","","","","","null","","","","","","","",""
"image-selector-fb","682","1488014","0.0-51.37-0.37","1218","pics2/SA4.jpg,pics2/FR6.jpg","","","","","","","false","0","","","heartS.png","","",""
"image-slider-2AFC","683","1489410","0.0-51.37-1.37","1392","","","","57","","","","","","","","sizeS.png","662","57",""
"html-keyboard-response","684","1490214","0.0-51.37-2.37","null","","","","","","","null","","","","","","","",""
"image-selector-fb","685","1493222","0.0-51.38-0.38","null","pics2/FR2.jpg,pics2/SW1.jpg","","","","","","","false","null","","","noS.png","","",""
"image-slider-2AFC","686","1495925","0.0-51.38-1.38","2700","","","","-51","","","","","","","","sizeS.png","1935","-51",""
"html-keyboard-response","687","1496729","0.0-51.38-2.38","null","","","","","","","null","","","","","","","",""
"image-selector-fb","688","1498605","0.0-51.39-0.39","1370","pics2/VE4.jpg,pics2/SA4.jpg","","","","","","","true","1","","","heartS.png","","",""
"image-slider-2AFC","689","1501175","0.0-51.39-1.39","2566","","","","-50","","","","","","","","sizeS.png","1735","-50",""
"html-keyboard-response","690","1502028","0.0-51.39-2.39","null","","","","","","","null","","","","","","","",""
"image-selector-fb","691","1504263","0.0-51.40-0.40","1728","pics2/SA2.jpg,pics2/VE4.jpg","","","","","","","true","1","","","heartS.png","","",""
"image-slider-2AFC","692","1506775","0.0-51.40-1.40","2508","","","","50","","","","","","","","sizeS.png","1636","50",""
"html-keyboard-response","693","1507579","0.0-51.40-2.40","null","","","","","","","null","","","","","","","",""
"image-selector-fb","694","1509811","0.0-51.41-0.41","1727","pics2/FR6.jpg,pics2/SA4.jpg","","","","","","","true","1","","","sizeS.png","","",""
"image-slider-2AFC","695","1512075","0.0-51.41-1.41","2259","","","","59","","","","","","","","heartS.png","1411","59",""
"html-keyboard-response","696","1512779","0.0-51.41-2.41","null","","","","","","","null","","","","","","","",""
"image-selector-fb","697","1515787","0.0-51.42-0.42","null","pics2/FR1.jpg,pics2/FR6.jpg","","","","","","","false","null","","","noS.png","","",""
"image-slider-2AFC","698","1517858","0.0-51.42-1.42","2067","","","","63","","","","","","","","heartS.png","1219","63",""
"html-keyboard-response","699","1518612","0.0-51.42-2.42","null","","","","","","","null","","","","","","","",""
"image-selector-fb","700","1521620","0.0-51.43-0.43","null","pics2/VE4.jpg,pics2/FR3.jpg","","","","","","","false","null","","","noS.png","","",""
"image-slider-2AFC","701","1524283","0.0-51.43-1.43","2659","","","","55","","","","","","","","heartS.png","1819","55",""
"html-keyboard-response","702","1525086","0.0-51.43-2.43","null","","","","","","","null","","","","","","","",""
"image-selector-fb","703","1526929","0.0-51.44-0.44","1336","pics2/SW3.jpg,pics2/FR2.jpg","","","","","","","false","0","","","sizeS.png","","",""
"image-slider-2AFC","704","1528866","0.0-51.44-1.44","1933","","","","-54","","","","","","","","heartS.png","1126","-54",""
"html-keyboard-response","705","1529718","0.0-51.44-2.44","null","","","","","","","null","","","","","","","",""
"image-selector-fb","706","1532727","0.0-51.45-0.45","null","pics2/FR3.jpg,pics2/FR6.jpg","","","","","","","false","null","","","noS.png","","",""
"image-slider-2AFC","707","1534511","0.0-51.45-1.45","1780","","","","-47","","","","","","","","heartS.png","1010","-47",""
"html-keyboard-response","708","1535365","0.0-51.45-2.45","null","","","","","","","null","","","","","","","",""
"image-selector-fb","709","1538373","0.0-51.46-0.46","null","pics2/SW2.jpg,pics2/SW1.jpg","","","","","","","false","null","","","noS.png","","",""
"image-slider-2AFC","710","1540407","0.0-51.46-1.46","2030","","","","-21","","","","","","","","sizeS.png","1257","-21",""
"html-keyboard-response","711","1541211","0.0-51.46-2.46","null","","","","","","","null","","","","","","","",""
