"trial_type","trial_index","time_elapsed","internal_node_id","rt","stimulus","button_pressed","success","response","cat","value","key_press","correct","image_click","first_click_rt","first_click_val","symbol","all_click_rt","all_click_val","view_history"
"pavlovia","0","44","0.0-0.0","","","","","","","","","","","","","","","",""
"html-button-response","1","4410","0.0-1.0","4361","<div style='width: 700px; font-size: 150%'><font size='40'>  Welcome to our study!</font><br><br><br> <small> Our experiment is about <i>decision making</i>. You will choose and rate different food items, such as these: <br><br> <div><img src='food_combo2.png', height = '400px'></img></div>","0","","","","","","","","","","","","",""
"html-button-response","2","15387","0.0-2.0","10973","<div style='width: 700px; font-size: 150%'><br><br><br><small> <u><i>This is a multi-part study.</i></u><br><br> In the first part you will rate 24 food items twice.<br><br><div><img src=""rat1.png"" style=""width: 25%""></img></div><br>In the second part (longest) you will make repeated choices and judgements concerning the food items.<br><br><div><img src=""mainx.png"" style=""width: 50%""></img></div><br>In the third and final part, you will rate the items again and answer few short questionnaires.<br><br><div><img src=""rat2.png"" style=""width: 50%""></img></div><br><br>","0","","","","","","","","","","","","",""
"fullscreen","3","19932","0.0-3.0","","","","true","","","","","","","","","","","",""
"html-button-response","4","36360","0.0-4.0","16425","<div style='width: 900px; font-size: 150%;' <font size='20%'> In the first part of the task you will use the mouse to rate food items on <i>2 scales</i> </font></div><br><br><div style='width: 900px'><div style='float: left; width: 50%; margin-right:2.5em'><img src='heartS.png'></img><p class='small' style='text-align: justify'>When you see the heart cue you will rate food items in terms of how much like them/would like to eat them <i>right now</i>. You will rate them on a continuous scale from left (strong dislike) to right (strong liking). Before submitting your rating, try imagining how the item tastes and how much you desire it.<br><br></p></div><div ><img src='sizeS.png'></img><p class='small' style='text-align: justify'>When you see the size cue, you will rate the same food items in terms of their size. The scale goes from left (tiny) to right (very large). You should assess picture size <i><u>relative</i></u> to the white background. <b>Remember:</b> rate the size of the picture, <u>not</u> the size of the item in real life. </p></div><div style='width: 900px'><br><br><b><i>Notice:</b> by starting the rating you agree that your sumbission might be rejected at an early stage and the experiment might end, if your size ratings are not at least modestly related to objective sizes, or if you repeat the same value ratings too many times. If you don't agree, please exit by closing the browser window. </i><br><br><br>","0","","","","","","","","","","","","",""
"html-button-response","5","43635","0.0-5.0","7270","<div><img src='heartS.png'></img></div><br><div style='text-align: justify; width: 700px'>Using the mouse, rate the <b><i>likeness</b></i> of the food items (how much you like them/would like to eat them <i>right now</i>). Far right-end of the scale indicates an item you <i>like a lot</i>. Far left-end indicates an item you <i>dislike a lot</i>. Think about each answer.   <ul><li>Try <b><i>not</b></i> to give identical rating to different items.</li><li>Use the whole scale, and <b><i>not</b></i> just the extremes</ul></div><br>","0","","","","","","","","","","","","",""
"image-slider-response","6","50823","0.0-6.0-0.0-0.0","7179","pics2/SW4.jpg","","","88","SW","","","","","","","","","",""
"image-slider-response","7","56547","0.0-6.0-0.0-0.1","5509","pics2/SA5.jpg","","","5","SA","","","","","","","","","",""
"image-slider-response","8","60498","0.0-6.0-0.0-0.2","3729","pics2/VE2.jpg","","","53","VE","","","","","","","","","",""
"image-slider-response","9","64705","0.0-6.0-0.0-0.3","3975","pics2/SA3.jpg","","","58","SA","","","","","","","","","",""
"image-slider-response","10","69078","0.0-6.0-0.0-0.4","4161","pics2/SA1.jpg","","","37","SA","","","","","","","","","",""
"image-slider-response","11","75642","0.0-6.0-0.0-0.5","6358","pics2/VE5.jpg","","","52","VE","","","","","","","","","",""
"image-slider-response","12","79066","0.0-6.0-0.0-0.6","3189","pics2/FR4.jpg","","","18","FR","","","","","","","","","",""
"image-slider-response","13","83013","0.0-6.0-0.0-0.7","3733","pics2/FR5.jpg","","","93","FR","","","","","","","","","",""
"image-slider-response","14","86527","0.0-6.0-0.0-0.8","3307","pics2/SA6.jpg","","","71","SA","","","","","","","","","",""
"image-slider-response","15","89801","0.0-6.0-0.0-0.9","3058","pics2/VE1.jpg","","","37","VE","","","","","","","","","",""
"image-slider-response","16","94304","0.0-6.0-0.0-0.10","4285","pics2/FR6.jpg","","","83","FR","","","","","","","","","",""
"image-slider-response","17","99618","0.0-6.0-0.0-0.11","5093","pics2/SW1.jpg","","","98","SW","","","","","","","","","",""
"image-slider-response","18","102413","0.0-6.0-0.0-0.12","2560","pics2/VE4.jpg","","","47","VE","","","","","","","","","",""
"image-slider-response","19","106383","0.0-6.0-0.0-0.13","3756","pics2/SA4.jpg","","","77","SA","","","","","","","","","",""
"image-slider-response","20","109616","0.0-6.0-0.0-0.14","3022","pics2/FR2.jpg","","","74","FR","","","","","","","","","",""
"image-slider-response","21","112747","0.0-6.0-0.0-0.15","2922","pics2/SW6.jpg","","","60","SW","","","","","","","","","",""
"image-slider-response","22","116233","0.0-6.0-0.0-0.16","3267","pics2/VE6.jpg","","","94","VE","","","","","","","","","",""
"image-slider-response","23","121007","0.0-6.0-0.0-0.17","4558","pics2/FR1.jpg","","","100","FR","","","","","","","","","",""
"image-slider-response","24","124383","0.0-6.0-0.0-0.18","3157","pics2/SW3.jpg","","","91","SW","","","","","","","","","",""
"image-slider-response","25","127219","0.0-6.0-0.0-0.19","2616","pics2/SA2.jpg","","","69","SA","","","","","","","","","",""
"image-slider-response","26","130208","0.0-6.0-0.0-0.20","2768","pics2/SW5.jpg","","","84","SW","","","","","","","","","",""
"image-slider-response","27","132813","0.0-6.0-0.0-0.21","2395","pics2/SW2.jpg","","","56","SW","","","","","","","","","",""
"image-slider-response","28","135728","0.0-6.0-0.0-0.22","2691","pics2/VE3.jpg","","","76","VE","","","","","","","","","",""
"image-slider-response","29","138833","0.0-6.0-0.0-0.23","2869","pics2/FR3.jpg","","","100","FR","","","","","","","","","",""
"html-button-response","30","140641","0.0-7.0","1600","<div style='width: 900px;'> <font size = 6><b> End of the first rating</b><br><br>","0","","","","","","","","","","","","",""
"html-button-response","31","146246","0.0-9.0","5600","<div ><img src='sizeS.png'></img></div><br><div style='text-align: justify; width: 700px'> Using the mouse, rate the <b><i>size</b></i> of the food items <b><i> relative to the white background.</b></i> Right-end of the scale indicates a <i>very large item</i>, which covers a large portion of the white rectangle. Left-end indicates a <i>very tiny</i> item which covers a tiny portion of the white rectangle.<br><br><i><u>Remember</i></u>: everything that is not the white background also contributes to item size (e.g. packing, plates, ect.)<br><br> Please keep in mind that if the accuracy of ratings do not allign well with actual sizes, the experiment will end.  As a result it will be consider incomplete and therefore no payment would be made. Good luck!<br><br></div><br>","0","","","","","","","","","","","","",""
"html-button-response","32","150123","0.0-10.0","3872","<div ><img src='sizeS.png'></img></div><br><b><font size=6>Examples of items that you might encounter</b><br><div style='width: 750px;'><div style='width: 33.33%; float:left'><br><br><br><i>Large Item</i><br><br><img src='large.jpg', width=200px></img></div><div style='float:right'><br><br><br><i>Small Item</i><br><br><img src='small.jpg', width=200px></img></div><div ><br><br><br><i>Medium Item</i><br><br><img src='med.jpg', width=200px></img></div></div><br><br>","0","","","","","","","","","","","","",""
"image-slider-response","33","154843","0.0-11.0-0.0-0.0","4713","pics2/SA6.jpg","","","83","null","","","","","","","","","",""
"image-slider-response","34","158340","0.0-11.0-0.0-0.1","3271","pics2/VE4.jpg","","","100","null","","","","","","","","","",""
"image-slider-response","35","162001","0.0-11.0-0.0-0.2","3446","pics2/SA1.jpg","","","91","null","","","","","","","","","",""
"image-slider-response","36","165169","0.0-11.0-0.0-0.3","2957","pics2/VE5.jpg","","","66","null","","","","","","","","","",""
"image-slider-response","37","167825","0.0-11.0-0.0-0.4","2440","pics2/SW2.jpg","","","46","null","","","","","","","","","",""
"image-slider-response","38","170868","0.0-11.0-0.0-0.5","2829","pics2/FR1.jpg","","","79","null","","","","","","","","","",""
"image-slider-response","39","174950","0.0-11.0-0.0-0.6","3875","pics2/SW3.jpg","","","99","null","","","","","","","","","",""
"image-slider-response","40","177677","0.0-11.0-0.0-0.7","2516","pics2/SW4.jpg","","","40","null","","","","","","","","","",""
"image-slider-response","41","180332","0.0-11.0-0.0-0.8","2435","pics2/FR2.jpg","","","47","null","","","","","","","","","",""
"image-slider-response","42","183436","0.0-11.0-0.0-0.9","2883","pics2/SA4.jpg","","","62","null","","","","","","","","","",""
"image-slider-response","43","185721","0.0-11.0-0.0-0.10","2074","pics2/FR5.jpg","","","39","null","","","","","","","","","",""
"image-slider-response","44","188726","0.0-11.0-0.0-0.11","2794","pics2/SA5.jpg","","","23","null","","","","","","","","","",""
"image-slider-response","45","191775","0.0-11.0-0.0-0.12","2829","pics2/VE2.jpg","","","8","null","","","","","","","","","",""
"image-slider-response","46","194640","0.0-11.0-0.0-0.13","2644","pics2/VE1.jpg","","","40","null","","","","","","","","","",""
"image-slider-response","47","197483","0.0-11.0-0.0-0.14","2623","pics2/FR3.jpg","","","31","null","","","","","","","","","",""
"image-slider-response","48","199797","0.0-11.0-0.0-0.15","2096","pics2/VE3.jpg","","","51","null","","","","","","","","","",""
"image-slider-response","49","202614","0.0-11.0-0.0-0.16","2605","pics2/SW6.jpg","","","70","null","","","","","","","","","",""
"image-slider-response","50","205541","0.0-11.0-0.0-0.17","2708","pics2/SA2.jpg","","","100","null","","","","","","","","","",""
"image-slider-response","51","208207","0.0-11.0-0.0-0.18","2460","pics2/SW1.jpg","","","100","null","","","","","","","","","",""
"image-slider-response","52","211658","0.0-11.0-0.0-0.19","3215","pics2/SA3.jpg","","","6","null","","","","","","","","","",""
"image-slider-response","53","214274","0.0-11.0-0.0-0.20","2396","pics2/FR6.jpg","","","21","null","","","","","","","","","",""
"image-slider-response","54","216955","0.0-11.0-0.0-0.21","2471","pics2/FR4.jpg","","","13","null","","","","","","","","","",""
"image-slider-response","55","219571","0.0-11.0-0.0-0.22","2401","pics2/VE6.jpg","","","60","null","","","","","","","","","",""
"image-slider-response","56","223021","0.0-11.0-0.0-0.23","3241","pics2/SW5.jpg","","","13","null","","","","","","","","","",""
"html-button-response","57","224625","0.0-12.0","1394","<div style='width: 900px;'> <font size = 6><b> End of the second rating</b><br><br>","0","","","","","","","","","","","","",""
"html-button-response","58","229593","0.0-13.0","4965","<div style='width: 900px;'>Now please rate the items for the second time. <br><br>This is not a memory test - you don't need to be consistent with your previous ratings. Just as before, try to make accurate judgements.<br><br>","0","","","","","","","","","","","","",""
"html-button-response","59","231818","0.0-14.0","2222","<div><img src='heartS.png'></img></div><br><div style='text-align: justify; width: 700px'>Using the mouse, rate the <b><i>likeness</b></i> of the food items (how much you like them/would like to eat them <i>right now</i>). Far right-end of the scale indicates an item you <i>like a lot</i>. Far left-end indicates an item you <i>dislike a lot</i>. Think about each answer.   <ul><li>Try <b><i>not</b></i> to give identical rating to different items.</li><li>Use the whole scale, and <b><i>not</b></i> just the extremes</ul></div><br>","0","","","","","","","","","","","","",""
"image-slider-response","60","238065","0.0-15.0-0.0-0.0","6241","pics2/SA5.jpg","","","23","SA","","","","","","","","","",""
"image-slider-response","61","242335","0.0-15.0-0.0-0.1","4050","pics2/SW3.jpg","","","76","SW","","","","","","","","","",""
"image-slider-response","62","247026","0.0-15.0-0.0-0.2","4485","pics2/SA1.jpg","","","30","SA","","","","","","","","","",""
"image-slider-response","63","251792","0.0-15.0-0.0-0.3","4559","pics2/VE6.jpg","","","95","VE","","","","","","","","","",""
"image-slider-response","64","255547","0.0-15.0-0.0-0.4","3537","pics2/VE5.jpg","","","44","VE","","","","","","","","","",""
"image-slider-response","65","260095","0.0-15.0-0.0-0.5","4332","pics2/SW6.jpg","","","67","SW","","","","","","","","","",""
"image-slider-response","66","262891","0.0-15.0-0.0-0.6","2581","pics2/FR6.jpg","","","59","FR","","","","","","","","","",""
"image-slider-response","67","266740","0.0-15.0-0.0-0.7","3636","pics2/FR4.jpg","","","9","FR","","","","","","","","","",""
"image-slider-response","68","270152","0.0-15.0-0.0-0.8","3197","pics2/FR2.jpg","","","89","FR","","","","","","","","","",""
"image-slider-response","69","272864","0.0-15.0-0.0-0.9","2505","pics2/SA6.jpg","","","65","SA","","","","","","","","","",""
"image-slider-response","70","275448","0.0-15.0-0.0-0.10","2372","pics2/SA3.jpg","","","58","SA","","","","","","","","","",""
"image-slider-response","71","278797","0.0-15.0-0.0-0.11","3139","pics2/FR3.jpg","","","92","FR","","","","","","","","","",""
"image-slider-response","72","281720","0.0-15.0-0.0-0.12","2688","pics2/VE1.jpg","","","34","VE","","","","","","","","","",""
"image-slider-response","73","285435","0.0-15.0-0.0-0.13","3482","pics2/SW4.jpg","","","92","SW","","","","","","","","","",""
"image-slider-response","74","288663","0.0-15.0-0.0-0.14","2992","pics2/SA4.jpg","","","65","SA","","","","","","","","","",""
"image-slider-response","75","291236","0.0-15.0-0.0-0.15","2350","pics2/VE4.jpg","","","32","VE","","","","","","","","","",""
"image-slider-response","76","294118","0.0-15.0-0.0-0.16","2674","pics2/VE2.jpg","","","66","VE","","","","","","","","","",""
"image-slider-response","77","296504","0.0-15.0-0.0-0.17","2162","pics2/SW2.jpg","","","58","SW","","","","","","","","","",""
"image-slider-response","78","299112","0.0-15.0-0.0-0.18","2393","pics2/SW1.jpg","","","96","SW","","","","","","","","","",""
"image-slider-response","79","301253","0.0-15.0-0.0-0.19","1930","pics2/VE3.jpg","","","64","VE","","","","","","","","","",""
"image-slider-response","80","303460","0.0-15.0-0.0-0.20","1993","pics2/FR1.jpg","","","43","FR","","","","","","","","","",""
"image-slider-response","81","306112","0.0-15.0-0.0-0.21","2441","pics2/SA2.jpg","","","67","SA","","","","","","","","","",""
"image-slider-response","82","310710","0.0-15.0-0.0-0.22","4387","pics2/FR5.jpg","","","85","FR","","","","","","","","","",""
"image-slider-response","83","313661","0.0-15.0-0.0-0.23","2744","pics2/SW5.jpg","","","99","SW","","","","","","","","","",""
"call-function","84","313897","0.0-16.0","","","","","","","","","","","","","","","",""
"call-function","85","313921","0.0-17.0","","","","","","","","","","","","","","","",""
"html-button-response","86","315366","0.0-18.0","1443","<div style='width: 900px;'> <font size = 6><b> End of the first rating</b><br><br>","0","","","","","","","","","","","","",""
"html-button-response","87","318567","0.0-19.0","3198","<div ><img src='sizeS.png'></img></div><br><div style='text-align: justify; width: 700px'> Using the mouse, rate the <b><i>size</b></i> of the food items <b><i> relative to the white background.</b></i> Right-end of the scale indicates a <i>very large item</i>, which covers a large portion of the white rectangle. Left-end indicates a <i>very tiny</i> item which covers a tiny portion of the white rectangle.<br><br><i><u>Remember</i></u>: everything that is not the white background also contributes to item size (e.g. packing, plates, ect.)<br><br> Please keep in mind that if the accuracy of ratings do not allign well with actual sizes, the experiment will end.  As a result it will be consider incomplete and therefore no payment would be made. Good luck!<br><br></div><br>","0","","","","","","","","","","","","",""
"image-slider-response","88","322412","0.0-20.0-0.0-0.0","3839","pics2/SW1.jpg","","","100","null","","","","","","","","","",""
"image-slider-response","89","325300","0.0-20.0-0.0-0.1","2671","pics2/SA5.jpg","","","2","null","","","","","","","","","",""
"image-slider-response","90","327739","0.0-20.0-0.0-0.2","2209","pics2/VE3.jpg","","","30","null","","","","","","","","","",""
"image-slider-response","91","330049","0.0-20.0-0.0-0.3","2103","pics2/FR2.jpg","","","44","null","","","","","","","","","",""
"image-slider-response","92","333390","0.0-20.0-0.0-0.4","3124","pics2/VE6.jpg","","","41","null","","","","","","","","","",""
"image-slider-response","93","336868","0.0-20.0-0.0-0.5","3265","pics2/FR6.jpg","","","3","null","","","","","","","","","",""
"image-slider-response","94","340062","0.0-20.0-0.0-0.6","2978","pics2/SW2.jpg","","","57","null","","","","","","","","","",""
"image-slider-response","95","342424","0.0-20.0-0.0-0.7","2143","pics2/SW6.jpg","","","74","null","","","","","","","","","",""
"image-slider-response","96","345696","0.0-20.0-0.0-0.8","3058","pics2/SA6.jpg","","","83","null","","","","","","","","","",""
"image-slider-response","97","349608","0.0-20.0-0.0-0.9","3694","pics2/SA4.jpg","","","77","null","","","","","","","","","",""
"image-slider-response","98","352750","0.0-20.0-0.0-0.10","2919","pics2/VE4.jpg","","","32","null","","","","","","","","","",""
"image-slider-response","99","355405","0.0-20.0-0.0-0.11","2445","pics2/FR5.jpg","","","8","null","","","","","","","","","",""
"image-slider-response","100","358283","0.0-20.0-0.0-0.12","2663","pics2/FR4.jpg","","","2","null","","","","","","","","","",""
"image-slider-response","101","360496","0.0-20.0-0.0-0.13","1995","pics2/VE2.jpg","","","12","null","","","","","","","","","",""
"image-slider-response","102","362708","0.0-20.0-0.0-0.14","1996","pics2/SA3.jpg","","","22","null","","","","","","","","","",""
"image-slider-response","103","365198","0.0-20.0-0.0-0.15","2280","pics2/FR3.jpg","","","5","null","","","","","","","","","",""
"image-slider-response","104","368500","0.0-20.0-0.0-0.16","3080","pics2/VE1.jpg","","","16","null","","","","","","","","","",""
"image-slider-response","105","371068","0.0-20.0-0.0-0.17","2343","pics2/SW5.jpg","","","4","null","","","","","","","","","",""
"image-slider-response","106","373850","0.0-20.0-0.0-0.18","2564","pics2/FR1.jpg","","","78","null","","","","","","","","","",""
"image-slider-response","107","376286","0.0-20.0-0.0-0.19","2229","pics2/SW4.jpg","","","52","null","","","","","","","","","",""
"image-slider-response","108","378481","0.0-20.0-0.0-0.20","1964","pics2/VE5.jpg","","","60","null","","","","","","","","","",""
"image-slider-response","109","383412","0.0-20.0-0.0-0.21","4705","pics2/SA2.jpg","","","86","null","","","","","","","","","",""
"image-slider-response","110","386438","0.0-20.0-0.0-0.22","2817","pics2/SA1.jpg","","","87","null","","","","","","","","","",""
"image-slider-response","111","389253","0.0-20.0-0.0-0.23","2591","pics2/SW3.jpg","","","96","null","","","","","","","","","",""
"call-function","112","389469","0.0-21.0","","","","","","","","","","","","","","","",""
"html-button-response","113","390897","0.0-22.0","1426","<div style='width: 900px;'> <font size = 6><b> End of the second rating</b><br><br>","0","","","","","","","","","","","","",""
"pavlovia","114","390919","0.0-23.0","","","","","","","","","","","","","","","",""
"html-keyboard-response","115","395937","0.0-24.0","null","<div style='width: 700px;'> <font size=6><b>SHORT BREAK</font></b><br><br><i> Please wait 5 seconds to continue</i></div> ","","","","","","null","","","","","","","",""
"pavlovia","116","395941","0.0-25.0","","","","","","","","","","","","","","","",""
"html-button-response","117","411293","0.0-26.0","15348","<div style='width: 700px;'>In the main part of the study, you will be choosing between 2 items. When it's time to choose,  this symbol will appear: <br><br><img src='chooseS.png'></img><br><br>Below, a cue will signify the type of choice: </div><br><div style='width: 700px;'><div style='float: left; width: 50%'><img src='heartS.png'></img><p class='small'>Heart cue means you should choose the item you <b><i>prefer</b></i> more.</p></div><div class='float: right; width:50%'><img src='sizeS.png'></img><p class='small'>Size cue means you should choose the <b><i>larger</b></i> item. </p></div></div><br><div style='width: 700px;'>When you click, a green square will appear around the item you chose.<br></div><div><br>","0","","","","","","","","","","","","",""
"image-selector-fb-tut","118","417775","0.0-27.0","5468","0232.jpg,0123.jpg","","","","","","","true","1","","","","","",""
"image-selector-fb-tut","119","422158","0.0-28.0","3376","0232.jpg,0123.jpg","","","","","","","true","1","","","","","",""
"html-button-response","120","425981","0.0-29.0","3821","<div style='width: 900px;'>Your choices should be both <b><i>fast and accurate</b></i>. <br><br>You will have <i>4 seconds</i> to make each choice, which should be enough consider the options and click on one of the items.<br><br>","0","","","","","","","","","","","","",""
"html-button-response","121","429486","0.0-30.0","3502","<div style='width: 900px;'>Additionally, on some choice trials you will see the <b><i>no-choice cue</b></i>: <br><br><img src='noS.png'></img> <br><br>This cue means you can't make any choice. You can examine the items, but  can't click on any of them. Just wait patiently for the cue to dissapear.<br><br>","0","","","","","","","","","","","","",""
"image-selector-fb-tut","122","431509","0.0-31.0","null","0232.jpg,0123.jpg","","","","","","","false","null","","","","","",""
"html-button-response","123","435704","0.0-32.0","4189","<div style='width: 900px;'>After each choice the items will remain on the screen and you will see this symbol: <br><br><img src='judgeS.png'></img> <br><br>This means you should rate<b> the magnitude of the difference</b> between the items using a scale: </div><br><div style='width: 900px; '><div style='float: left; width: 50%; margin-right: 2.5em; align-self:left'><img src='heartS.png'></img><p class='small' style = 'text-align: justify;'>Heart cue means you should rate <b>how much you prefer</b> one of the items over the other. Moving the scale indicator to the left means you prefer the left one; moving it to the right - right one. The more you prefer one of them, the more towards that side you should move the scale indicator. </p></div><div class='float: right; width: 50%; margin-left: 2.5em;'><img src='sizeS.png'></img><p class='small' style='text-align: justify'>Size cue means you should rate <b>how much larger</b> is one of the items over the other. Moving the scale indicator to the left means you think the left is larger; moving it to the right - right one. The greater the difference in size, the more towards that side you should move the scale indicator.</div><br>","0","","","","","","","","","","","","",""
"image-slider-2AFC-tut","124","441887","0.0-33.0","6177","","","","67","","","","","","5408","67","","","",""
"image-slider-2AFC-tut","125","445164","0.0-34.0","3270","","","","51","","","","","","2688","51","","","",""
"html-button-response","126","461534","0.0-35.0","16366","<br><br><font size = 36><b> Examples </b></font><br><br><i> 1) I would like to eat some croissants a <b>lot more</b> than doritos right now:</i><br><img src='ex1.PNG', width='62%'></img><br><br><br><i> 2) I would like to eat some doritos a <b>bit more</b> than croissants right now, but just slightly:</i><br><img src='ex2.PNG' width='62%'></img>","0","","","","","","","","","","","","",""
"html-button-response","127","463510","0.0-36.0","1974","<div style='width: 900px;'><i>Now you know everything you need to do the task!</i> <br><br>Let's start by doing a <b>short training</b>, so you'll get used to how it works. </div><br>","0","","","","","","","","","","","","",""
"image-selector-fb","128","468034","0.0-37.0-0.0","null","pics2/SA2.jpg,pics2/SA1.jpg","","","","","","","false","null","","","sizeS.png","","",""
"image-slider-2AFC","129","468037","0.0-37.0-1.0","null","","","","null","","","","","","","","sizeS.png","","",""
"html-keyboard-response","130","468751","0.0-37.0-2.0","null","","","","","","","null","","","","","","","",""
"image-selector-fb","131","471787","0.0-37.1-0.1","null","pics2/VE4.jpg,pics2/SA5.jpg","","","","","","","false","null","","","noS.png","","",""
"image-slider-2AFC","132","476800","0.0-37.1-1.1","null","","","","null","","","","","","","","sizeS.png","","",""
"html-keyboard-response","133","477620","0.0-37.1-2.1","null","","","","","","","null","","","","","","","",""
"image-selector-fb","134","480661","0.0-37.2-0.2","null","pics2/SW6.jpg,pics2/VE5.jpg","","","","","","","false","null","","","noS.png","","",""
"image-slider-2AFC","135","485661","0.0-37.2-1.2","4991","","","","-73","","","","","","","","heartS.png","4273","-73",""
"html-keyboard-response","136","486392","0.0-37.2-2.2","null","","","","","","","null","","","","","","","",""
"image-selector-fb","137","489748","0.0-37.3-0.3","2842","pics2/SA6.jpg,pics2/VE5.jpg","","","","","","","false","0","","","heartS.png","","",""
"image-slider-2AFC","138","493910","0.0-37.3-1.3","4157","","","","-20","","","","","","","","sizeS.png","3298","-20",""
"html-keyboard-response","139","494641","0.0-37.3-2.3","null","","","","","","","null","","","","","","","",""
"image-selector-fb","140","497661","0.0-37.4-0.4","null","pics2/FR4.jpg,pics2/VE1.jpg","","","","","","","false","null","","","noS.png","","",""
"image-slider-2AFC","141","500889","0.0-37.4-1.4","3219","","","","11","","","","","","","","heartS.png","2514","11",""
"html-keyboard-response","142","501622","0.0-37.4-2.4","null","","","","","","","null","","","","","","","",""
"image-selector-fb","143","505614","0.0-37.5-0.5","3468","pics2/VE2.jpg,pics2/VE1.jpg","","","","","","","false","0","","","heartS.png","","",""
"image-slider-2AFC","144","508707","0.0-37.5-1.5","3082","","","","42","","","","","","","","sizeS.png","2450","42",""
"html-keyboard-response","145","509521","0.0-37.5-2.5","null","","","","","","","null","","","","","","","",""
"image-selector-fb","146","511809","0.0-37.6-0.6","1770","pics2/SA3.jpg,pics2/SW6.jpg","","","","","","","true","1","","","heartS.png","","",""
"image-slider-2AFC","147","516044","0.0-37.6-1.6","4230","","","","54","","","","","","","","heartS.png","2801,3566","2,54",""
"html-keyboard-response","148","516814","0.0-37.6-2.6","null","","","","","","","null","","","","","","","",""
"image-selector-fb","149","518659","0.0-37.7-0.7","1322","pics2/SW2.jpg,pics2/SA3.jpg","","","","","","","false","0","","","sizeS.png","","",""
"image-slider-2AFC","150","522337","0.0-37.7-1.7","3675","","","","-85","","","","","","","","heartS.png","2397","-85",""
"html-keyboard-response","151","523120","0.0-37.7-2.7","null","","","","","","","null","","","","","","","",""
"image-selector-fb","152","525242","0.0-37.8-0.8","1607","pics2/SA2.jpg,pics2/VE4.jpg","","","","","","","false","0","","","sizeS.png","","",""
"image-slider-2AFC","153","528262","0.0-37.8-1.8","3013","","","","-83","","","","","","","","sizeS.png","2339","-83",""
"html-keyboard-response","154","529041","0.0-37.8-2.8","null","","","","","","","null","","","","","","","",""
"image-selector-fb","155","530851","0.0-37.9-0.9","1276","pics2/SW2.jpg,pics2/FR4.jpg","","","","","","","false","0","","","sizeS.png","","",""
"image-slider-2AFC","156","534597","0.0-37.9-1.9","3738","","","","-85","","","","","","","","heartS.png","2874","-85",""
"html-keyboard-response","157","535316","0.0-37.9-2.9","null","","","","","","","null","","","","","","","",""
"image-selector-fb","158","538346","0.0-37.10-0.10","null","pics2/FR4.jpg,pics2/SA1.jpg","","","","","","","false","null","","","noS.png","","",""
"image-slider-2AFC","159","543355","0.0-37.10-1.10","null","","","","null","","","","","","","","heartS.png","4743","2",""
"html-keyboard-response","160","544118","0.0-37.10-2.10","null","","","","","","","null","","","","","","","",""
"image-selector-fb","161","546348","0.0-37.11-0.11","1717","pics2/SA3.jpg,pics2/SA1.jpg","","","","","","","false","0","","","heartS.png","","",""
"image-slider-2AFC","162","548985","0.0-37.11-1.11","2625","","","","-27","","","","","","","","heartS.png","1688","-27",""
"html-keyboard-response","163","549851","0.0-37.11-2.11","null","","","","","","","null","","","","","","","",""
"html-button-response","164","553731","0.0-38.0","3875","<i><font size=10>Good job!</font></i> <br><br>Before we begin, you have a chance to review the rules, in case something was not clear.<br><br>","0","","","","","","","","","","","","",""
"instructions","165","573349","0.0-39.0","19615","","","","","","","","","","","","","","","[{""page_index"":0,""viewing_time"":7058},{""page_index"":1,""viewing_time"":6065},{""page_index"":2,""viewing_time"":6491}]"
"html-button-response","166","579202","0.0-40.0","5849","<div style='width: 900px;'> <font size='40'>Great! Now you're ready to begin</font><br><br>The main part of the experiment will consist of <u>3 blocks</u>. Each block consists of 66 decisions and judgements. You will have time for a short break between blocks.<br><br><br><i><u>Do your best to respond within the time limit.</u></i><br><br><i> Press the button to start the experiment<br><br></i>","0","","","","","","","","","","","","",""
"image-selector-fb","167","582347","0.0-41.0-0.0","2624","pics2/SW1.jpg,pics2/SW4.jpg","","","","","","","false","0","","","sizeS.png","","",""
"image-slider-2AFC","168","585472","0.0-41.0-1.0","3115","","","","-29","","","","","","","","heartS.png","2307","-29",""
"html-keyboard-response","169","586252","0.0-41.0-2.0","null","","","","","","","null","","","","","","","",""
"image-selector-fb","170","588546","0.0-41.1-0.1","1775","pics2/SW1.jpg,pics2/SA4.jpg","","","","","","","false","0","","","sizeS.png","","",""
"image-slider-2AFC","171","591497","0.0-41.1-1.1","2945","","","","-23","","","","","","","","sizeS.png","2156","-23",""
"html-keyboard-response","172","592427","0.0-41.1-2.1","null","","","","","","","null","","","","","","","",""
"image-selector-fb","173","595274","0.0-41.2-0.2","2154","pics2/SW4.jpg,pics2/FR3.jpg","","","","","","","false","0","","","sizeS.png","","",""
"image-slider-2AFC","174","597996","0.0-41.2-1.2","2697","","","","-17","","","","","","","","heartS.png","2073","-17",""
"html-keyboard-response","175","598933","0.0-41.2-2.2","null","","","","","","","null","","","","","","","",""
"image-selector-fb","176","601417","0.0-41.3-0.3","1970","pics2/SW4.jpg,pics2/SW3.jpg","","","","","","","true","1","","","sizeS.png","","",""
"image-slider-2AFC","177","604085","0.0-41.3-1.3","2663","","","","-30","","","","","","","","sizeS.png","1930","-30",""
"html-keyboard-response","178","604966","0.0-41.3-2.3","null","","","","","","","null","","","","","","","",""
"image-selector-fb","179","606972","0.0-41.4-0.4","1498","pics2/FR2.jpg,pics2/SW1.jpg","","","","","","","true","1","","","sizeS.png","","",""
"image-slider-2AFC","180","608522","0.0-41.4-1.4","1544","","","","14","","","","","","","","sizeS.png","995","14",""
"html-keyboard-response","181","609322","0.0-41.4-2.4","null","","","","","","","null","","","","","","","",""
"image-selector-fb","182","611413","0.0-41.5-0.5","1568","pics2/SW4.jpg,pics2/SW1.jpg","","","","","","","true","1","","","heartS.png","","",""
"image-slider-2AFC","183","615044","0.0-41.5-1.5","3626","","","","70","","","","","","","","sizeS.png","1332,2759","14,70",""
"html-keyboard-response","184","615962","0.0-41.5-2.5","null","","","","","","","null","","","","","","","",""
"image-selector-fb","185","619050","0.0-41.6-0.6","null","pics2/VE6.jpg,pics2/SW3.jpg","","","","","","","false","null","","","noS.png","","",""
"image-slider-2AFC","186","622264","0.0-41.6-1.6","3209","","","","23","","","","","","","","sizeS.png","2685","23",""
"html-keyboard-response","187","623173","0.0-41.6-2.6","null","","","","","","","null","","","","","","","",""
"image-selector-fb","188","626237","0.0-41.7-0.7","null","pics2/SW1.jpg,pics2/SW4.jpg","","","","","","","false","null","","","noS.png","","",""
"image-slider-2AFC","189","629155","0.0-41.7-1.7","2913","","","","-69","","","","","","","","sizeS.png","2262","-69",""
"html-keyboard-response","190","630116","0.0-41.7-2.7","null","","","","","","","null","","","","","","","",""
"image-selector-fb","191","632449","0.0-41.8-0.8","1745","pics2/SW4.jpg,pics2/FR2.jpg","","","","","","","false","0","","","heartS.png","","",""
"image-slider-2AFC","192","634743","0.0-41.8-1.8","2290","","","","-67","","","","","","","","heartS.png","1503","-67",""
"html-keyboard-response","193","635573","0.0-41.8-2.8","null","","","","","","","null","","","","","","","",""
"image-selector-fb","194","638656","0.0-41.9-0.9","null","pics2/FR2.jpg,pics2/VE6.jpg","","","","","","","false","null","","","noS.png","","",""
"image-slider-2AFC","195","641012","0.0-41.9-1.9","2351","","","","-37","","","","","","","","heartS.png","1790","-37",""
"html-keyboard-response","196","641890","0.0-41.9-2.9","null","","","","","","","null","","","","","","","",""
"image-selector-fb","197","645092","0.0-41.10-0.10","2690","pics2/FR5.jpg,pics2/FR2.jpg","","","","","","","true","1","","","heartS.png","","",""
"image-slider-2AFC","198","647404","0.0-41.10-1.10","2307","","","","31","","","","","","","","heartS.png","1330","31",""
"html-keyboard-response","199","648219","0.0-41.10-2.10","null","","","","","","","null","","","","","","","",""
"image-selector-fb","200","650120","0.0-41.11-0.11","1383","pics2/FR3.jpg,pics2/VE3.jpg","","","","","","","false","0","","","heartS.png","","",""
"image-slider-2AFC","201","652232","0.0-41.11-1.11","2098","","","","-47","","","","","","","","sizeS.png","1287","-47",""
"html-keyboard-response","202","652990","0.0-41.11-2.11","null","","","","","","","null","","","","","","","",""
"image-selector-fb","203","655772","0.0-41.12-0.12","2259","pics2/VE3.jpg,pics2/FR1.jpg","","","","","","","true","1","","","sizeS.png","","",""
"image-slider-2AFC","204","658192","0.0-41.12-1.12","2416","","","","56","","","","","","","","heartS.png","1570","56",""
"html-keyboard-response","205","659060","0.0-41.12-2.12","null","","","","","","","null","","","","","","","",""
"image-selector-fb","206","662176","0.0-41.13-0.13","null","pics2/FR6.jpg,pics2/FR5.jpg","","","","","","","false","null","","","noS.png","","",""
"image-slider-2AFC","207","666204","0.0-41.13-1.13","4023","","","","46","","","","","","","","sizeS.png","3418","46",""
"html-keyboard-response","208","666999","0.0-41.13-2.13","null","","","","","","","null","","","","","","","",""
"image-selector-fb","209","670046","0.0-41.14-0.14","null","pics2/FR1.jpg,pics2/FR6.jpg","","","","","","","false","null","","","noS.png","","",""
"image-slider-2AFC","210","672592","0.0-41.14-1.14","2542","","","","-30","","","","","","","","heartS.png","1579","-30",""
"html-keyboard-response","211","673415","0.0-41.14-2.14","null","","","","","","","null","","","","","","","",""
"image-selector-fb","212","677829","0.0-41.15-0.15","3905","pics2/VE3.jpg,pics2/VE6.jpg","","","","","","","true","1","","","sizeS.png","","",""
"image-slider-2AFC","213","679404","0.0-41.15-1.15","1570","","","","18","","","","","","","","sizeS.png","1188","18",""
"html-keyboard-response","214","680169","0.0-41.15-2.15","null","","","","","","","null","","","","","","","",""
"image-selector-fb","215","683191","0.0-41.16-0.16","null","pics2/FR6.jpg,pics2/SW3.jpg","","","","","","","false","null","","","noS.png","","",""
"image-slider-2AFC","216","685666","0.0-41.16-1.16","2470","","","","52","","","","","","","","heartS.png","1674","52",""
"html-keyboard-response","217","686487","0.0-41.16-2.16","null","","","","","","","null","","","","","","","",""
"image-selector-fb","218","689528","0.0-41.17-0.17","null","pics2/FR1.jpg,pics2/SW4.jpg","","","","","","","false","null","","","noS.png","","",""
"image-slider-2AFC","219","692403","0.0-41.17-1.17","2869","","","","39","","","","","","","","heartS.png","2119","39",""
"html-keyboard-response","220","693128","0.0-41.17-2.17","null","","","","","","","null","","","","","","","",""
"image-selector-fb","221","696153","0.0-41.18-0.18","null","pics2/FR2.jpg,pics2/VE3.jpg","","","","","","","false","null","","","noS.png","","",""
"image-slider-2AFC","222","699769","0.0-41.18-1.18","3611","","","","47","","","","","","","","sizeS.png","2749","47",""
"html-keyboard-response","223","700480","0.0-41.18-2.18","null","","","","","","","null","","","","","","","",""
"image-selector-fb","224","703543","0.0-41.19-0.19","2553","pics2/FR1.jpg,pics2/SW3.jpg","","","","","","","false","0","","","sizeS.png","","",""
"image-slider-2AFC","225","707236","0.0-41.19-1.19","3689","","","","-25","","","","","","","","sizeS.png","3010","-25",""
"html-keyboard-response","226","708062","0.0-41.19-2.19","null","","","","","","","null","","","","","","","",""
"image-selector-fb","227","711082","0.0-41.20-0.20","null","pics2/VE3.jpg,pics2/SW5.jpg","","","","","","","false","null","","","noS.png","","",""
"image-slider-2AFC","228","716089","0.0-41.20-1.20","null","","","","null","","","","","","","","sizeS.png","2335,4041","-8,-54",""
"html-keyboard-response","229","716956","0.0-41.20-2.20","null","","","","","","","null","","","","","","","",""
"image-selector-fb","230","719986","0.0-41.21-0.21","null","pics2/FR1.jpg,pics2/FR5.jpg","","","","","","","false","null","","","noS.png","","",""
"image-slider-2AFC","231","723727","0.0-41.21-1.21","3736","","","","-53","","","","","","","","sizeS.png","2774","-53",""
"html-keyboard-response","232","724449","0.0-41.21-2.21","null","","","","","","","null","","","","","","","",""
"image-selector-fb","233","727485","0.0-41.22-0.22","null","pics2/FR3.jpg,pics2/SW3.jpg","","","","","","","false","null","","","noS.png","","",""
"image-slider-2AFC","234","730936","0.0-41.22-1.22","3447","","","","64","","","","","","","","sizeS.png","2357","64",""
"html-keyboard-response","235","731807","0.0-41.22-2.22","null","","","","","","","null","","","","","","","",""
"image-selector-fb","236","734442","0.0-41.23-0.23","2125","pics2/FR1.jpg,pics2/SW5.jpg","","","","","","","false","0","","","heartS.png","","",""
"image-slider-2AFC","237","736632","0.0-41.23-1.23","2186","","","","-54","","","","","","","","heartS.png","1252","-54",""
"html-keyboard-response","238","737344","0.0-41.23-2.23","null","","","","","","","null","","","","","","","",""
"image-selector-fb","239","739813","0.0-41.24-0.24","1949","pics2/FR2.jpg,pics2/SA4.jpg","","","","","","","true","1","","","sizeS.png","","",""
"image-slider-2AFC","240","742239","0.0-41.24-1.24","2422","","","","18","","","","","","","","heartS.png","1923","18",""
"html-keyboard-response","241","743010","0.0-41.24-2.24","null","","","","","","","null","","","","","","","",""
"image-selector-fb","242","745194","0.0-41.25-0.25","1669","pics2/FR2.jpg,pics2/SW5.jpg","","","","","","","false","0","","","sizeS.png","","",""
"image-slider-2AFC","243","747185","0.0-41.25-1.25","1987","","","","26","","","","","","","","heartS.png","1343","26",""
"html-keyboard-response","244","747897","0.0-41.25-2.25","null","","","","","","","null","","","","","","","",""
"image-selector-fb","245","749650","0.0-41.26-0.26","1243","pics2/SA4.jpg,pics2/FR6.jpg","","","","","","","false","0","","","sizeS.png","","",""
"image-slider-2AFC","246","752213","0.0-41.26-1.26","2556","","","","-16","","","","","","","","heartS.png","1978","-16",""
"html-keyboard-response","247","752968","0.0-41.26-2.26","null","","","","","","","null","","","","","","","",""
"image-selector-fb","248","755996","0.0-41.27-0.27","null","pics2/FR3.jpg,pics2/SW4.jpg","","","","","","","false","null","","","noS.png","","",""
"image-slider-2AFC","249","760538","0.0-41.27-1.27","4538","","","","40","","","","","","","","sizeS.png","3370","40",""
"html-keyboard-response","250","761263","0.0-41.27-2.27","null","","","","","","","null","","","","","","","",""
"image-selector-fb","251","764286","0.0-41.28-0.28","null","pics2/FR2.jpg,pics2/FR3.jpg","","","","","","","false","null","","","noS.png","","",""
"image-slider-2AFC","252","767336","0.0-41.28-1.28","3046","","","","-22","","","","","","","","sizeS.png","2393","-22",""
"html-keyboard-response","253","768203","0.0-41.28-2.28","null","","","","","","","null","","","","","","","",""
"image-selector-fb","254","771258","0.0-41.29-0.29","null","pics2/FR2.jpg,pics2/SW5.jpg","","","","","","","false","null","","","noS.png","","",""
"image-slider-2AFC","255","774648","0.0-41.29-1.29","3386","","","","-27","","","","","","","","sizeS.png","2732","-27",""
"html-keyboard-response","256","775359","0.0-41.29-2.29","null","","","","","","","null","","","","","","","",""
"image-selector-fb","257","777078","0.0-41.30-0.30","1197","pics2/VE3.jpg,pics2/SW1.jpg","","","","","","","true","1","","","sizeS.png","","",""
"image-slider-2AFC","258","779517","0.0-41.30-1.30","2435","","","","62","","","","","","","","heartS.png","1487","62",""
"html-keyboard-response","259","780343","0.0-41.30-2.30","null","","","","","","","null","","","","","","","",""
"image-selector-fb","260","781994","0.0-41.31-0.31","1139","pics2/SW1.jpg,pics2/FR5.jpg","","","","","","","false","0","","","heartS.png","","",""
"image-slider-2AFC","261","783975","0.0-41.31-1.31","1977","","","","-69","","","","","","","","heartS.png","1157","-69",""
"html-keyboard-response","262","784688","0.0-41.31-2.31","null","","","","","","","null","","","","","","","",""
"image-selector-fb","263","786763","0.0-41.32-0.32","1563","pics2/SW3.jpg,pics2/FR1.jpg","","","","","","","false","0","","","heartS.png","","",""
"image-slider-2AFC","264","788566","0.0-41.32-1.32","1799","","","","-60","","","","","","","","heartS.png","981","-60",""
"html-keyboard-response","265","789338","0.0-41.32-2.32","null","","","","","","","null","","","","","","","",""
"image-selector-fb","266","790971","0.0-41.33-0.33","1118","pics2/FR3.jpg,pics2/SW1.jpg","","","","","","","true","1","","","heartS.png","","",""
"image-slider-2AFC","267","792789","0.0-41.33-1.33","1812","","","","24","","","","","","","","heartS.png","864","24",""
"html-keyboard-response","268","793675","0.0-41.33-2.33","null","","","","","","","null","","","","","","","",""
"image-selector-fb","269","795591","0.0-41.34-0.34","1399","pics2/VE6.jpg,pics2/SW5.jpg","","","","","","","true","1","","","heartS.png","","",""
"image-slider-2AFC","270","796806","0.0-41.34-1.34","1208","","","","13","","","","","","","","heartS.png","690","13",""
"html-keyboard-response","271","797527","0.0-41.34-2.34","null","","","","","","","null","","","","","","","",""
"image-selector-fb","272","799744","0.0-41.35-0.35","1688","pics2/FR5.jpg,pics2/SA4.jpg","","","","","","","true","1","","","sizeS.png","","",""
"image-slider-2AFC","273","800975","0.0-41.35-1.35","1219","","","","36","","","","","","","","heartS.png","708","36",""
"html-keyboard-response","274","801734","0.0-41.35-2.35","null","","","","","","","null","","","","","","","",""
"image-selector-fb","275","804161","0.0-41.36-0.36","1895","pics2/SW5.jpg,pics2/VE6.jpg","","","","","","","true","1","","","sizeS.png","","",""
"image-slider-2AFC","276","806144","0.0-41.36-1.36","1978","","","","-6","","","","","","","","heartS.png","1415","-6",""
"html-keyboard-response","277","806853","0.0-41.36-2.36","null","","","","","","","null","","","","","","","",""
"image-selector-fb","278","809879","0.0-41.37-0.37","null","pics2/FR5.jpg,pics2/SW3.jpg","","","","","","","false","null","","","noS.png","","",""
"image-slider-2AFC","279","814123","0.0-41.37-1.37","4239","","","","79","","","","","","","","sizeS.png","2394,3545","45,79",""
"html-keyboard-response","280","814843","0.0-41.37-2.37","null","","","","","","","null","","","","","","","",""
"image-selector-fb","281","816900","0.0-41.38-0.38","1520","pics2/FR6.jpg,pics2/SA4.jpg","","","","","","","true","1","","","heartS.png","","",""
"image-slider-2AFC","282","818845","0.0-41.38-1.38","1941","","","","85","","","","","","","","sizeS.png","1172","85",""
"html-keyboard-response","283","819683","0.0-41.38-2.38","null","","","","","","","null","","","","","","","",""
"image-selector-fb","284","822030","0.0-41.39-0.39","1838","pics2/FR2.jpg,pics2/FR5.jpg","","","","","","","true","1","","","sizeS.png","","",""
"image-slider-2AFC","285","824078","0.0-41.39-1.39","2043","","","","-20","","","","","","","","sizeS.png","1301","-20",""
"html-keyboard-response","286","824839","0.0-41.39-2.39","null","","","","","","","null","","","","","","","",""
"image-selector-fb","287","827525","0.0-41.40-0.40","2177","pics2/FR6.jpg,pics2/FR3.jpg","","","","","","","true","1","","","sizeS.png","","",""
"image-slider-2AFC","288","831046","0.0-41.40-1.40","3516","","","","47","","","","","","","","sizeS.png","2875","47",""
"html-keyboard-response","289","831763","0.0-41.40-2.40","null","","","","","","","null","","","","","","","",""
"image-selector-fb","290","834784","0.0-41.41-0.41","null","pics2/FR1.jpg,pics2/SW5.jpg","","","","","","","false","null","","","noS.png","","",""
"image-slider-2AFC","291","838428","0.0-41.41-1.41","3640","","","","-51","","","","","","","","sizeS.png","2862","-51",""
"html-keyboard-response","292","839141","0.0-41.41-2.41","null","","","","","","","null","","","","","","","",""
"image-selector-fb","293","842172","0.0-41.42-0.42","null","pics2/SA4.jpg,pics2/FR1.jpg","","","","","","","false","null","","","noS.png","","",""
"image-slider-2AFC","294","845252","0.0-41.42-1.42","3076","","","","88","","","","","","","","sizeS.png","2154","88",""
"html-keyboard-response","295","845987","0.0-41.42-2.42","null","","","","","","","null","","","","","","","",""
"image-selector-fb","296","847695","0.0-41.43-0.43","1197","pics2/FR2.jpg,pics2/FR6.jpg","","","","","","","false","0","","","sizeS.png","","",""
"image-slider-2AFC","297","848936","0.0-41.43-1.43","1237","","","","-18","","","","","","","","sizeS.png","633","-18",""
"html-keyboard-response","298","849749","0.0-41.43-2.43","null","","","","","","","null","","","","","","","",""
"image-selector-fb","299","851563","0.0-41.44-0.44","1304","pics2/FR6.jpg,pics2/SW5.jpg","","","","","","","true","1","","","heartS.png","","",""
"image-slider-2AFC","300","855643","0.0-41.44-1.44","4075","","","","42","","","","","","","","sizeS.png","2965","42",""
"html-keyboard-response","301","856467","0.0-41.44-2.44","null","","","","","","","null","","","","","","","",""
"image-selector-fb","302","859498","0.0-41.45-0.45","null","pics2/FR2.jpg,pics2/FR6.jpg","","","","","","","false","null","","","noS.png","","",""
"image-slider-2AFC","303","863293","0.0-41.45-1.45","3790","","","","-31","","","","","","","","heartS.png","2599","-31",""
"html-keyboard-response","304","864163","0.0-41.45-2.45","null","","","","","","","null","","","","","","","",""
"image-selector-fb","305","866978","0.0-41.46-0.46","2305","pics2/VE3.jpg,pics2/FR5.jpg","","","","","","","true","1","","","heartS.png","","",""
"image-slider-2AFC","306","868206","0.0-41.46-1.46","1221","","","","38","","","","","","","","heartS.png","735","38",""
"html-keyboard-response","307","868971","0.0-41.46-2.46","null","","","","","","","null","","","","","","","",""
"image-selector-fb","308","870625","0.0-41.47-0.47","1144","pics2/VE6.jpg,pics2/FR5.jpg","","","","","","","true","1","","","heartS.png","","",""
"image-slider-2AFC","309","872330","0.0-41.47-1.47","1701","","","","37","","","","","","","","sizeS.png","506","37",""
"html-keyboard-response","310","873140","0.0-41.47-2.47","null","","","","","","","null","","","","","","","",""
"image-selector-fb","311","874798","0.0-41.48-0.48","1150","pics2/FR5.jpg,pics2/FR1.jpg","","","","","","","true","1","","","sizeS.png","","",""
"image-slider-2AFC","312","876808","0.0-41.48-1.48","2007","","","","28","","","","","","","","sizeS.png","980","28",""
"html-keyboard-response","313","877672","0.0-41.48-2.48","null","","","","","","","null","","","","","","","",""
"image-selector-fb","314","879494","0.0-41.49-0.49","1314","pics2/SW5.jpg,pics2/FR3.jpg","","","","","","","true","1","","","sizeS.png","","",""
"image-slider-2AFC","315","881149","0.0-41.49-1.49","1649","","","","17","","","","","","","","heartS.png","1093","17",""
"html-keyboard-response","316","881939","0.0-41.49-2.49","null","","","","","","","null","","","","","","","",""
"image-selector-fb","317","883846","0.0-41.50-0.50","1395","pics2/SW3.jpg,pics2/FR6.jpg","","","","","","","false","0","","","heartS.png","","",""
"image-slider-2AFC","318","885472","0.0-41.50-1.50","1620","","","","-31","","","","","","","","heartS.png","1056","-31",""
"html-keyboard-response","319","886291","0.0-41.50-2.50","null","","","","","","","null","","","","","","","",""
"image-selector-fb","320","888114","0.0-41.51-0.51","1306","pics2/VE6.jpg,pics2/FR2.jpg","","","","","","","true","1","","","heartS.png","","",""
"image-slider-2AFC","321","889425","0.0-41.51-1.51","1306","","","","22","","","","","","","","heartS.png","792","22",""
"html-keyboard-response","322","890295","0.0-41.51-2.51","null","","","","","","","null","","","","","","","",""
"image-selector-fb","323","892235","0.0-41.52-0.52","1420","pics2/FR1.jpg,pics2/SW4.jpg","","","","","","","true","1","","","heartS.png","","",""
"image-slider-2AFC","324","893349","0.0-41.52-1.52","1110","","","","11","","","","","","","","sizeS.png","675","11",""
"html-keyboard-response","325","894060","0.0-41.52-2.52","null","","","","","","","null","","","","","","","",""
"image-selector-fb","326","895785","0.0-41.53-0.53","1217","pics2/FR3.jpg,pics2/SW5.jpg","","","","","","","true","1","","","heartS.png","","",""
"image-slider-2AFC","327","898167","0.0-41.53-1.53","2376","","","","11","","","","","","","","sizeS.png","1847","11",""
"html-keyboard-response","328","898948","0.0-41.53-2.53","null","","","","","","","null","","","","","","","",""
"image-selector-fb","329","902014","0.0-41.54-0.54","null","pics2/FR3.jpg,pics2/VE6.jpg","","","","","","","false","null","","","noS.png","","",""
"image-slider-2AFC","330","904845","0.0-41.54-1.54","2825","","","","42","","","","","","","","sizeS.png","2324","42",""
"html-keyboard-response","331","905715","0.0-41.54-2.54","null","","","","","","","null","","","","","","","",""
"image-selector-fb","332","907409","0.0-41.55-0.55","1184","pics2/SW1.jpg,pics2/SW5.jpg","","","","","","","false","0","","","sizeS.png","","",""
"image-slider-2AFC","333","910890","0.0-41.55-1.55","3478","","","","-69","","","","","","","","sizeS.png","2250","-69",""
"html-keyboard-response","334","911724","0.0-41.55-2.55","null","","","","","","","null","","","","","","","",""
"image-selector-fb","335","913609","0.0-41.56-0.56","1355","pics2/SW3.jpg,pics2/SW1.jpg","","","","","","","true","1","","","heartS.png","","",""
"image-slider-2AFC","336","915468","0.0-41.56-1.56","1851","","","","43","","","","","","","","heartS.png","1081","43",""
"html-keyboard-response","337","916261","0.0-41.56-2.56","null","","","","","","","null","","","","","","","",""
"image-selector-fb","338","917910","0.0-41.57-0.57","1132","pics2/SW4.jpg,pics2/FR6.jpg","","","","","","","false","0","","","sizeS.png","","",""
"image-slider-2AFC","339","920068","0.0-41.57-1.57","2154","","","","-27","","","","","","","","sizeS.png","671","-27",""
"html-keyboard-response","340","920888","0.0-41.57-2.57","null","","","","","","","null","","","","","","","",""
"image-selector-fb","341","923446","0.0-41.58-0.58","2039","pics2/SW4.jpg,pics2/VE6.jpg","","","","","","","true","1","","","sizeS.png","","",""
"image-slider-2AFC","342","924867","0.0-41.58-1.58","1417","","","","-29","","","","","","","","heartS.png","915","-29",""
"html-keyboard-response","343","925685","0.0-41.58-2.58","null","","","","","","","null","","","","","","","",""
"image-selector-fb","344","927778","0.0-41.59-0.59","1577","pics2/FR2.jpg,pics2/SW4.jpg","","","","","","","true","1","","","sizeS.png","","",""
"image-slider-2AFC","345","929180","0.0-41.59-1.59","1398","","","","21","","","","","","","","sizeS.png","934","21",""
"html-keyboard-response","346","929898","0.0-41.59-2.59","null","","","","","","","null","","","","","","","",""
"image-selector-fb","347","931494","0.0-41.60-0.60","1076","pics2/SW3.jpg,pics2/FR5.jpg","","","","","","","false","0","","","heartS.png","","",""
"image-slider-2AFC","348","933260","0.0-41.60-1.60","1762","","","","-50","","","","","","","","heartS.png","648","-50",""
"html-keyboard-response","349","933972","0.0-41.60-2.60","null","","","","","","","null","","","","","","","",""
"image-selector-fb","350","937045","0.0-41.61-0.61","null","pics2/FR1.jpg,pics2/VE3.jpg","","","","","","","false","null","","","noS.png","","",""
"image-slider-2AFC","351","940450","0.0-41.61-1.61","3401","","","","-38","","","","","","","","sizeS.png","2834","-38",""
"html-keyboard-response","352","941261","0.0-41.61-2.61","null","","","","","","","null","","","","","","","",""
"image-selector-fb","353","942854","0.0-41.62-0.62","1066","pics2/FR5.jpg,pics2/SW1.jpg","","","","","","","true","1","","","sizeS.png","","",""
"image-slider-2AFC","354","945126","0.0-41.62-1.62","2267","","","","62","","","","","","","","sizeS.png","1017","62",""
"html-keyboard-response","355","945940","0.0-41.62-2.62","null","","","","","","","null","","","","","","","",""
"image-selector-fb","356","947846","0.0-41.63-0.63","1375","pics2/FR3.jpg,pics2/FR1.jpg","","","","","","","true","1","","","heartS.png","","",""
"image-slider-2AFC","357","951274","0.0-41.63-1.63","3424","","","","34","","","","","","","","heartS.png","2562","34",""
"html-keyboard-response","358","952174","0.0-41.63-2.63","null","","","","","","","null","","","","","","","",""
"image-selector-fb","359","955238","0.0-41.64-0.64","null","pics2/VE3.jpg,pics2/SW3.jpg","","","","","","","false","null","","","noS.png","","",""
"image-slider-2AFC","360","958394","0.0-41.64-1.64","3150","","","","38","","","","","","","","heartS.png","2573","38",""
"html-keyboard-response","361","959284","0.0-41.64-2.64","null","","","","","","","null","","","","","","","",""
"image-selector-fb","362","962346","0.0-41.65-0.65","null","pics2/SW1.jpg,pics2/SW5.jpg","","","","","","","false","null","","","noS.png","","",""
"image-slider-2AFC","363","966629","0.0-41.65-1.65","4279","","","","-65","","","","","","","","heartS.png","2587","-65",""
"html-keyboard-response","364","967371","0.0-41.65-2.65","null","","","","","","","null","","","","","","","",""
"pavlovia","365","967443","0.0-42.0","","","","","","","","","","","","","","","",""
"html-keyboard-response","366","972461","0.0-43.0","null","<div style='width: 700px;'> <font size=6><b>SHORT BREAK</font></b><br><br><i> Please wait 5 seconds to continue</i></div> ","","","","","","null","","","","","","","",""
"pavlovia","367","972470","0.0-44.0","","","","","","","","","","","","","","","",""
"html-button-response","368","986707","0.0-45.0","14235","<div style='width: 700px;'> <font size=6><b>BLOCK 2</font></b><br><br>Press the button whenever you feel ready to start the second block (there are 3 in total)</div>","0","","","","","","","","","","","","",""
"image-selector-fb","369","989393","0.0-46.0-0.0","2177","pics2/FR5.jpg,pics2/FR3.jpg","","","","","","","false","0","","","sizeS.png","","",""
"image-slider-2AFC","370","992303","0.0-46.0-1.0","2905","","","","39","","","","","","","","heartS.png","1969","39",""
"html-keyboard-response","371","993025","0.0-46.0-2.0","null","","","","","","","null","","","","","","","",""
"image-selector-fb","372","996071","0.0-46.1-0.1","null","pics2/FR3.jpg,pics2/FR6.jpg","","","","","","","false","null","","","noS.png","","",""
"image-slider-2AFC","373","999908","0.0-46.1-1.1","3825","","","","-50","","","","","","","","sizeS.png","2876","-50",""
"html-keyboard-response","374","1000786","0.0-46.1-2.1","null","","","","","","","null","","","","","","","",""
"image-selector-fb","375","1003439","0.0-46.2-0.2","2141","pics2/FR3.jpg,pics2/SW3.jpg","","","","","","","true","1","","","sizeS.png","","",""
"image-slider-2AFC","376","1005251","0.0-46.2-1.2","1807","","","","-15","","","","","","","","heartS.png","1267","-15",""
"html-keyboard-response","377","1006118","0.0-46.2-2.2","null","","","","","","","null","","","","","","","",""
"image-selector-fb","378","1008044","0.0-46.3-0.3","1416","pics2/FR6.jpg,pics2/SW3.jpg","","","","","","","true","1","","","sizeS.png","","",""
"image-slider-2AFC","379","1009961","0.0-46.3-1.3","1913","","","","36","","","","","","","","heartS.png","1169","36",""
"html-keyboard-response","380","1010776","0.0-46.3-2.3","null","","","","","","","null","","","","","","","",""
"image-selector-fb","381","1013798","0.0-46.4-0.4","null","pics2/FR3.jpg,pics2/FR5.jpg","","","","","","","false","null","","","noS.png","","",""
"image-slider-2AFC","382","1016352","0.0-46.4-1.4","2549","","","","-23","","","","","","","","heartS.png","1830","-23",""
"html-keyboard-response","383","1017165","0.0-46.4-2.4","null","","","","","","","null","","","","","","","",""
"image-selector-fb","384","1018946","0.0-46.5-0.5","1271","pics2/SW3.jpg,pics2/VE3.jpg","","","","","","","false","0","","","heartS.png","","",""
"image-slider-2AFC","385","1021609","0.0-46.5-1.5","2658","","","","-60","","","","","","","","sizeS.png","1863","-60",""
"html-keyboard-response","386","1022483","0.0-46.5-2.5","null","","","","","","","null","","","","","","","",""
"image-selector-fb","387","1024935","0.0-46.6-0.6","1943","pics2/FR6.jpg,pics2/FR5.jpg","","","","","","","false","0","","","heartS.png","","",""
"image-slider-2AFC","388","1026276","0.0-46.6-1.6","1337","","","","-23","","","","","","","","heartS.png","813","-23",""
"html-keyboard-response","389","1027053","0.0-46.6-2.6","null","","","","","","","null","","","","","","","",""
"image-selector-fb","390","1029041","0.0-46.7-0.7","1477","pics2/FR1.jpg,pics2/VE6.jpg","","","","","","","false","0","","","heartS.png","","",""
"image-slider-2AFC","391","1030782","0.0-46.7-1.7","1737","","","","-61","","","","","","","","heartS.png","800","-61",""
"html-keyboard-response","392","1031657","0.0-46.7-2.7","null","","","","","","","null","","","","","","","",""
"image-selector-fb","393","1033453","0.0-46.8-0.8","1286","pics2/FR3.jpg,pics2/SW4.jpg","","","","","","","true","1","","","heartS.png","","",""
"image-slider-2AFC","394","1035065","0.0-46.8-1.8","1606","","","","40","","","","","","","","heartS.png","1068","40",""
"html-keyboard-response","395","1035935","0.0-46.8-2.8","null","","","","","","","null","","","","","","","",""
"image-selector-fb","396","1037853","0.0-46.9-0.9","1410","pics2/FR6.jpg,pics2/FR1.jpg","","","","","","","true","1","","","sizeS.png","","",""
"image-slider-2AFC","397","1039750","0.0-46.9-1.9","1894","","","","40","","","","","","","","heartS.png","737","40",""
"html-keyboard-response","398","1040472","0.0-46.9-2.9","null","","","","","","","null","","","","","","","",""
"image-selector-fb","399","1042453","0.0-46.10-0.10","1465","pics2/VE3.jpg,pics2/SA4.jpg","","","","","","","true","1","","","sizeS.png","","",""
"image-slider-2AFC","400","1044347","0.0-46.10-1.10","1889","","","","26","","","","","","","","sizeS.png","954","26",""
"html-keyboard-response","401","1045076","0.0-46.10-2.10","null","","","","","","","null","","","","","","","",""
"image-selector-fb","402","1047131","0.0-46.11-0.11","1523","pics2/SW3.jpg,pics2/SA4.jpg","","","","","","","false","0","","","heartS.png","","",""
"image-slider-2AFC","403","1048826","0.0-46.11-1.11","1690","","","","-58","","","","","","","","sizeS.png","691","-58",""
"html-keyboard-response","404","1049700","0.0-46.11-2.11","null","","","","","","","null","","","","","","","",""
"image-selector-fb","405","1051601","0.0-46.12-0.12","1390","pics2/SA4.jpg,pics2/FR2.jpg","","","","","","","false","0","","","heartS.png","","",""
"image-slider-2AFC","406","1053302","0.0-46.12-1.12","1697","","","","-27","","","","","","","","sizeS.png","952","-27",""
"html-keyboard-response","407","1054075","0.0-46.12-2.12","null","","","","","","","null","","","","","","","",""
"image-selector-fb","408","1056142","0.0-46.13-0.13","1551","pics2/SW3.jpg,pics2/FR2.jpg","","","","","","","false","0","","","heartS.png","","",""
"image-slider-2AFC","409","1057770","0.0-46.13-1.13","1620","","","","-28","","","","","","","","sizeS.png","906","-28",""
"html-keyboard-response","410","1058590","0.0-46.13-2.13","null","","","","","","","null","","","","","","","",""
"image-selector-fb","411","1060204","0.0-46.14-0.14","1098","pics2/VE6.jpg,pics2/FR1.jpg","","","","","","","true","1","","","sizeS.png","","",""
"image-slider-2AFC","412","1061824","0.0-46.14-1.14","1610","","","","31","","","","","","","","sizeS.png","636","31",""
"html-keyboard-response","413","1062555","0.0-46.14-2.14","null","","","","","","","null","","","","","","","",""
"image-selector-fb","414","1064484","0.0-46.15-0.15","1421","pics2/SW4.jpg,pics2/SA4.jpg","","","","","","","true","1","","","sizeS.png","","",""
"image-slider-2AFC","415","1066444","0.0-46.15-1.15","1954","","","","-29","","","","","","","","heartS.png","1224","-29",""
"html-keyboard-response","416","1067179","0.0-46.15-2.15","null","","","","","","","null","","","","","","","",""
"image-selector-fb","417","1068758","0.0-46.16-0.16","1070","pics2/FR5.jpg,pics2/SW3.jpg","","","","","","","true","1","","","sizeS.png","","",""
"image-slider-2AFC","418","1071990","0.0-46.16-1.16","3227","","","","97","","","","","","","","sizeS.png","2217","97",""
"html-keyboard-response","419","1072861","0.0-46.16-2.16","null","","","","","","","null","","","","","","","",""
"image-selector-fb","420","1074611","0.0-46.17-0.17","1234","pics2/SW4.jpg,pics2/FR5.jpg","","","","","","","false","0","","","heartS.png","","",""
"image-slider-2AFC","421","1076908","0.0-46.17-1.17","2289","","","","-51","","","","","","","","sizeS.png","1440","-51",""
"html-keyboard-response","422","1077622","0.0-46.17-2.17","null","","","","","","","null","","","","","","","",""
"image-selector-fb","423","1079337","0.0-46.18-0.18","1193","pics2/FR5.jpg,pics2/VE6.jpg","","","","","","","false","0","","","sizeS.png","","",""
"image-slider-2AFC","424","1080965","0.0-46.18-1.18","1623","","","","-18","","","","","","","","heartS.png","977","-18",""
"html-keyboard-response","425","1081787","0.0-46.18-2.18","null","","","","","","","null","","","","","","","",""
"image-selector-fb","426","1083733","0.0-46.19-0.19","1436","pics2/VE3.jpg,pics2/FR6.jpg","","","","","","","false","0","","","sizeS.png","","",""
"image-slider-2AFC","427","1085286","0.0-46.19-1.19","1549","","","","-17","","","","","","","","heartS.png","1087","-17",""
"html-keyboard-response","428","1086055","0.0-46.19-2.19","null","","","","","","","null","","","","","","","",""
"image-selector-fb","429","1089093","0.0-46.20-0.20","null","pics2/SA4.jpg,pics2/FR5.jpg","","","","","","","false","null","","","noS.png","","",""
"image-slider-2AFC","430","1092553","0.0-46.20-1.20","3444","","","","-19","","","","","","","","heartS.png","2791","-19",""
"html-keyboard-response","431","1093412","0.0-46.20-2.20","null","","","","","","","null","","","","","","","",""
"image-selector-fb","432","1095344","0.0-46.21-0.21","1419","pics2/SW3.jpg,pics2/SW4.jpg","","","","","","","true","1","","","heartS.png","","",""
"image-slider-2AFC","433","1097223","0.0-46.21-1.21","1875","","","","50","","","","","","","","heartS.png","966","50",""
"html-keyboard-response","434","1098019","0.0-46.21-2.21","null","","","","","","","null","","","","","","","",""
"image-selector-fb","435","1101062","0.0-46.22-0.22","null","pics2/FR3.jpg,pics2/VE3.jpg","","","","","","","false","null","","","noS.png","","",""
"image-slider-2AFC","436","1104461","0.0-46.22-1.22","3385","","","","-41","","","","","","","","heartS.png","2450","-41",""
"html-keyboard-response","437","1105345","0.0-46.22-2.22","null","","","","","","","null","","","","","","","",""
"image-selector-fb","438","1107056","0.0-46.23-0.23","1198","pics2/SW1.jpg,pics2/FR1.jpg","","","","","","","false","0","","","sizeS.png","","",""
"image-slider-2AFC","439","1109144","0.0-46.23-1.23","2080","","","","-45","","","","","","","","heartS.png","1313","-45",""
"html-keyboard-response","440","1109930","0.0-46.23-2.23","null","","","","","","","null","","","","","","","",""
"image-selector-fb","441","1112982","0.0-46.24-0.24","null","pics2/SW1.jpg,pics2/VE3.jpg","","","","","","","false","null","","","noS.png","","",""
"image-slider-2AFC","442","1115933","0.0-46.24-1.24","2937","","","","-71","","","","","","","","heartS.png","2015","-71",""
"html-keyboard-response","443","1116668","0.0-46.24-2.24","null","","","","","","","null","","","","","","","",""
"image-selector-fb","444","1119693","0.0-46.25-0.25","null","pics2/SW4.jpg,pics2/SW5.jpg","","","","","","","false","null","","","noS.png","","",""
"image-slider-2AFC","445","1122504","0.0-46.25-1.25","2800","","","","-54","","","","","","","","heartS.png","2055","-54",""
"html-keyboard-response","446","1123236","0.0-46.25-2.25","null","","","","","","","null","","","","","","","",""
"image-selector-fb","447","1126279","0.0-46.26-0.26","null","pics2/FR2.jpg,pics2/SW4.jpg","","","","","","","false","null","","","noS.png","","",""
"image-slider-2AFC","448","1129202","0.0-46.26-1.26","2908","","","","80","","","","","","","","heartS.png","2099","80",""
"html-keyboard-response","449","1129928","0.0-46.26-2.26","null","","","","","","","null","","","","","","","",""
"image-selector-fb","450","1132593","0.0-46.27-0.27","2150","pics2/FR5.jpg,pics2/VE3.jpg","","","","","","","true","1","","","sizeS.png","","",""
"image-slider-2AFC","451","1134642","0.0-46.27-1.27","2040","","","","47","","","","","","","","heartS.png","1090","47",""
"html-keyboard-response","452","1135407","0.0-46.27-2.27","null","","","","","","","null","","","","","","","",""
"image-selector-fb","453","1138453","0.0-46.28-0.28","null","pics2/SW1.jpg,pics2/FR6.jpg","","","","","","","false","null","","","noS.png","","",""
"image-slider-2AFC","454","1141659","0.0-46.28-1.28","3201","","","","-81","","","","","","","","sizeS.png","2241","-81",""
"html-keyboard-response","455","1142382","0.0-46.28-2.28","null","","","","","","","null","","","","","","","",""
"image-selector-fb","456","1144389","0.0-46.29-0.29","1477","pics2/SA4.jpg,pics2/VE3.jpg","","","","","","","false","0","","","heartS.png","","",""
"image-slider-2AFC","457","1145746","0.0-46.29-1.29","1342","","","","-51","","","","","","","","sizeS.png","720","-51",""
"html-keyboard-response","458","1146569","0.0-46.29-2.29","null","","","","","","","null","","","","","","","",""
"image-selector-fb","459","1149309","0.0-46.30-0.30","2218","pics2/FR6.jpg,pics2/VE3.jpg","","","","","","","false","0","","","heartS.png","","",""
"image-slider-2AFC","460","1152071","0.0-46.30-1.30","2757","","","","67","","","","","","","","sizeS.png","1520","67",""
"html-keyboard-response","461","1152954","0.0-46.30-2.30","null","","","","","","","null","","","","","","","",""
"image-selector-fb","462","1155981","0.0-46.31-0.31","null","pics2/FR2.jpg,pics2/SW3.jpg","","","","","","","false","null","","","noS.png","","",""
"image-slider-2AFC","463","1159596","0.0-46.31-1.31","3601","","","","61","","","","","","","","heartS.png","2665","61",""
"html-keyboard-response","464","1160356","0.0-46.31-2.31","null","","","","","","","null","","","","","","","",""
"image-selector-fb","465","1162460","0.0-46.32-0.32","1594","pics2/SA4.jpg,pics2/FR5.jpg","","","","","","","false","0","","","heartS.png","","",""
"image-slider-2AFC","466","1164444","0.0-46.32-1.32","1980","","","","-41","","","","","","","","heartS.png","1378","-41",""
"html-keyboard-response","467","1165163","0.0-46.32-2.32","null","","","","","","","null","","","","","","","",""
"image-selector-fb","468","1168194","0.0-46.33-0.33","null","pics2/VE6.jpg,pics2/FR6.jpg","","","","","","","false","null","","","noS.png","","",""
"image-slider-2AFC","469","1171847","0.0-46.33-1.33","3646","","","","-36","","","","","","","","sizeS.png","2861","-36",""
"html-keyboard-response","470","1172605","0.0-46.33-2.33","null","","","","","","","null","","","","","","","",""
"image-selector-fb","471","1174417","0.0-46.34-0.34","1302","pics2/FR1.jpg,pics2/FR2.jpg","","","","","","","false","0","","","heartS.png","","",""
"image-slider-2AFC","472","1176334","0.0-46.34-1.34","1912","","","","-57","","","","","","","","heartS.png","977","-57",""
"html-keyboard-response","473","1177160","0.0-46.34-2.34","null","","","","","","","null","","","","","","","",""
"image-selector-fb","474","1179206","0.0-46.35-0.35","1534","pics2/FR2.jpg,pics2/SW3.jpg","","","","","","","true","1","","","sizeS.png","","",""
"image-slider-2AFC","475","1180791","0.0-46.35-1.35","1575","","","","57","","","","","","","","sizeS.png","612","57",""
"html-keyboard-response","476","1181563","0.0-46.35-2.35","null","","","","","","","null","","","","","","","",""
"image-selector-fb","477","1184589","0.0-46.36-0.36","null","pics2/SW1.jpg,pics2/FR3.jpg","","","","","","","false","null","","","noS.png","","",""
"image-slider-2AFC","478","1186937","0.0-46.36-1.36","2334","","","","-52","","","","","","","","heartS.png","1746","-52",""
"html-keyboard-response","479","1187702","0.0-46.36-2.36","null","","","","","","","null","","","","","","","",""
"image-selector-fb","480","1190723","0.0-46.37-0.37","null","pics2/VE6.jpg,pics2/VE3.jpg","","","","","","","false","null","","","noS.png","","",""
"image-slider-2AFC","481","1193530","0.0-46.37-1.37","2803","","","","-9","","","","","","","","heartS.png","2334","-9",""
"html-keyboard-response","482","1194394","0.0-46.37-2.37","null","","","","","","","null","","","","","","","",""
"image-selector-fb","483","1196579","0.0-46.38-0.38","1667","pics2/SW1.jpg,pics2/FR3.jpg","","","","","","","false","0","","","sizeS.png","","",""
"image-slider-2AFC","484","1198316","0.0-46.38-1.38","1728","","","","-49","","","","","","","","sizeS.png","819","-49",""
"html-keyboard-response","485","1199022","0.0-46.38-2.38","null","","","","","","","null","","","","","","","",""
"image-selector-fb","486","1200957","0.0-46.39-0.39","1409","pics2/SW5.jpg,pics2/FR6.jpg","","","","","","","false","0","","","sizeS.png","","",""
"image-slider-2AFC","487","1202753","0.0-46.39-1.39","1792","","","","-38","","","","","","","","sizeS.png","1076","-38",""
"html-keyboard-response","488","1203534","0.0-46.39-2.39","null","","","","","","","null","","","","","","","",""
"image-selector-fb","489","1204915","0.0-46.40-0.40","870","pics2/SW5.jpg,pics2/SW3.jpg","","","","","","","true","1","","","sizeS.png","","",""
"image-slider-2AFC","490","1206607","0.0-46.40-1.40","1679","","","","48","","","","","","","","sizeS.png","775","48",""
"html-keyboard-response","491","1207430","0.0-46.40-2.40","null","","","","","","","null","","","","","","","",""
"image-selector-fb","492","1209351","0.0-46.41-0.41","1405","pics2/VE3.jpg,pics2/FR3.jpg","","","","","","","false","0","","","sizeS.png","","",""
"image-slider-2AFC","493","1211922","0.0-46.41-1.41","2565","","","","-44","","","","","","","","sizeS.png","1898","-44",""
"html-keyboard-response","494","1212648","0.0-46.41-2.41","null","","","","","","","null","","","","","","","",""
"image-selector-fb","495","1215681","0.0-46.42-0.42","null","pics2/SW1.jpg,pics2/FR5.jpg","","","","","","","false","null","","","noS.png","","",""
"image-slider-2AFC","496","1219272","0.0-46.42-1.42","3586","","","","-62","","","","","","","","heartS.png","2713","-62",""
"html-keyboard-response","497","1220098","0.0-46.42-2.42","null","","","","","","","null","","","","","","","",""
"image-selector-fb","498","1223125","0.0-46.43-0.43","null","pics2/SW1.jpg,pics2/SA4.jpg","","","","","","","false","null","","","noS.png","","",""
"image-slider-2AFC","499","1227113","0.0-46.43-1.43","3985","","","","-45","","","","","","","","sizeS.png","3345","-45",""
"html-keyboard-response","500","1227839","0.0-46.43-2.43","null","","","","","","","null","","","","","","","",""
"image-selector-fb","501","1230872","0.0-46.44-0.44","null","pics2/SA4.jpg,pics2/SW4.jpg","","","","","","","false","null","","","noS.png","","",""
"image-slider-2AFC","502","1232988","0.0-46.44-1.44","2103","","","","-43","","","","","","","","sizeS.png","1584","-43",""
"html-keyboard-response","503","1233765","0.0-46.44-2.44","null","","","","","","","null","","","","","","","",""
"image-selector-fb","504","1235983","0.0-46.45-0.45","1697","pics2/SW4.jpg,pics2/VE3.jpg","","","","","","","false","0","","","heartS.png","","",""
"image-slider-2AFC","505","1239174","0.0-46.45-1.45","3176","","","","-50","","","","","","","","heartS.png","842","-50",""
"html-keyboard-response","506","1240045","0.0-46.45-2.45","null","","","","","","","null","","","","","","","",""
"image-selector-fb","507","1242397","0.0-46.46-0.46","1831","pics2/FR2.jpg,pics2/FR3.jpg","","","","","","","false","0","","","sizeS.png","","",""
"image-slider-2AFC","508","1244943","0.0-46.46-1.46","2537","","","","-24","","","","","","","","heartS.png","1563","-24",""
"html-keyboard-response","509","1245770","0.0-46.46-2.46","null","","","","","","","null","","","","","","","",""
"image-selector-fb","510","1247415","0.0-46.47-0.47","1093","pics2/FR6.jpg,pics2/SW1.jpg","","","","","","","true","1","","","heartS.png","","",""
"image-slider-2AFC","511","1248809","0.0-46.47-1.47","1388","","","","19","","","","","","","","heartS.png","862","19",""
"html-keyboard-response","512","1249596","0.0-46.47-2.47","null","","","","","","","null","","","","","","","",""
"image-selector-fb","513","1251080","0.0-46.48-0.48","951","pics2/FR6.jpg,pics2/SW4.jpg","","","","","","","true","1","","","heartS.png","","",""
"image-slider-2AFC","514","1252681","0.0-46.48-1.48","1596","","","","66","","","","","","","","heartS.png","919","66",""
"html-keyboard-response","515","1253402","0.0-46.48-2.48","null","","","","","","","null","","","","","","","",""
"image-selector-fb","516","1256449","0.0-46.49-0.49","null","pics2/SA4.jpg,pics2/SW3.jpg","","","","","","","false","null","","","noS.png","","",""
"image-slider-2AFC","517","1260138","0.0-46.49-1.49","3680","","","","64","","","","","","","","sizeS.png","2212","64",""
"html-keyboard-response","518","1261030","0.0-46.49-2.49","null","","","","","","","null","","","","","","","",""
"image-selector-fb","519","1264087","0.0-46.50-0.50","null","pics2/FR1.jpg,pics2/FR3.jpg","","","","","","","false","null","","","noS.png","","",""
"image-slider-2AFC","520","1267496","0.0-46.50-1.50","3405","","","","-63","","","","","","","","sizeS.png","2650","-63",""
"html-keyboard-response","521","1268206","0.0-46.50-2.50","null","","","","","","","null","","","","","","","",""
"image-selector-fb","522","1270405","0.0-46.51-0.51","1657","pics2/SW1.jpg,pics2/SW3.jpg","","","","","","","false","0","","","sizeS.png","","",""
"image-slider-2AFC","523","1271769","0.0-46.51-1.51","1360","","","","-70","","","","","","","","heartS.png","567","-70",""
"html-keyboard-response","524","1272642","0.0-46.51-2.51","null","","","","","","","null","","","","","","","",""
"image-selector-fb","525","1275676","0.0-46.52-0.52","null","pics2/FR5.jpg,pics2/SW4.jpg","","","","","","","false","null","","","noS.png","","",""
"image-slider-2AFC","526","1279024","0.0-46.52-1.52","3344","","","","8","","","","","","","","sizeS.png","2952","8",""
"html-keyboard-response","527","1279845","0.0-46.52-2.52","null","","","","","","","null","","","","","","","",""
"image-selector-fb","528","1281617","0.0-46.53-0.53","1251","pics2/SW1.jpg,pics2/VE3.jpg","","","","","","","false","0","","","heartS.png","","",""
"image-slider-2AFC","529","1283729","0.0-46.53-1.53","2098","","","","-58","","","","","","","","sizeS.png","1009","-58",""
"html-keyboard-response","530","1284598","0.0-46.53-2.53","null","","","","","","","null","","","","","","","",""
"image-selector-fb","531","1286160","0.0-46.54-0.54","1041","pics2/SA4.jpg,pics2/SW5.jpg","","","","","","","true","1","","","heartS.png","","",""
"image-slider-2AFC","532","1288531","0.0-46.54-1.54","2367","","","","-36","","","","","","","","sizeS.png","1521","-36",""
"html-keyboard-response","533","1289305","0.0-46.54-2.54","null","","","","","","","null","","","","","","","",""
"image-selector-fb","534","1290883","0.0-46.55-0.55","1056","pics2/SW4.jpg,pics2/FR1.jpg","","","","","","","false","0","","","sizeS.png","","",""
"image-slider-2AFC","535","1292679","0.0-46.55-1.55","1791","","","","-29","","","","","","","","sizeS.png","1363","-29",""
"html-keyboard-response","536","1293460","0.0-46.55-2.55","null","","","","","","","null","","","","","","","",""
"image-selector-fb","537","1294929","0.0-46.56-0.56","952","pics2/SW5.jpg,pics2/SW1.jpg","","","","","","","true","1","","","heartS.png","","",""
"image-slider-2AFC","538","1297479","0.0-46.56-1.56","2546","","","","62","","","","","","","","sizeS.png","1843","62",""
"html-keyboard-response","539","1298199","0.0-46.56-2.56","null","","","","","","","null","","","","","","","",""
"image-selector-fb","540","1300233","0.0-46.57-0.57","1518","pics2/SW3.jpg,pics2/SW5.jpg","","","","","","","false","0","","","heartS.png","","",""
"image-slider-2AFC","541","1301756","0.0-46.57-1.57","1508","","","","-50","","","","","","","","sizeS.png","778","-50",""
"html-keyboard-response","542","1302633","0.0-46.57-2.57","null","","","","","","","null","","","","","","","",""
"image-selector-fb","543","1305189","0.0-46.58-0.58","2036","pics2/VE6.jpg,pics2/FR6.jpg","","","","","","","true","1","","","heartS.png","","",""
"image-slider-2AFC","544","1307342","0.0-46.58-1.58","2141","","","","-15","","","","","","","","sizeS.png","1497","-15",""
"html-keyboard-response","545","1308059","0.0-46.58-2.58","null","","","","","","","null","","","","","","","",""
"image-selector-fb","546","1311121","0.0-46.59-0.59","null","pics2/SW1.jpg,pics2/FR2.jpg","","","","","","","false","null","","","noS.png","","",""
"image-slider-2AFC","547","1313793","0.0-46.59-1.59","2648","","","","-51","","","","","","","","heartS.png","1954","-51",""
"html-keyboard-response","548","1314559","0.0-46.59-2.59","null","","","","","","","null","","","","","","","",""
"image-selector-fb","549","1316979","0.0-46.60-0.60","1895","pics2/SW5.jpg,pics2/SA4.jpg","","","","","","","true","1","","","sizeS.png","","",""
"image-slider-2AFC","550","1319170","0.0-46.60-1.60","2187","","","","-20","","","","","","","","heartS.png","1585","-20",""
"html-keyboard-response","551","1319934","0.0-46.60-2.60","null","","","","","","","null","","","","","","","",""
"image-selector-fb","552","1322984","0.0-46.61-0.61","null","pics2/VE6.jpg,pics2/SW5.jpg","","","","","","","false","null","","","noS.png","","",""
"image-slider-2AFC","553","1326409","0.0-46.61-1.61","3415","","","","59","","","","","","","","heartS.png","2517","59",""
"html-keyboard-response","554","1327122","0.0-46.61-2.61","null","","","","","","","null","","","","","","","",""
"image-selector-fb","555","1330173","0.0-46.62-0.62","null","pics2/FR5.jpg,pics2/SW5.jpg","","","","","","","false","null","","","noS.png","","",""
"image-slider-2AFC","556","1333519","0.0-46.62-1.62","3330","","","","48","","","","","","","","heartS.png","2574","48",""
"html-keyboard-response","557","1334395","0.0-46.62-2.62","null","","","","","","","null","","","","","","","",""
"image-selector-fb","558","1336807","0.0-46.63-0.63","1903","pics2/FR2.jpg,pics2/VE3.jpg","","","","","","","true","1","","","sizeS.png","","",""
"image-slider-2AFC","559","1338690","0.0-46.63-1.63","1879","","","","-16","","","","","","","","heartS.png","1409","-16",""
"html-keyboard-response","560","1339456","0.0-46.63-2.63","null","","","","","","","null","","","","","","","",""
"image-selector-fb","561","1342476","0.0-46.64-0.64","null","pics2/SA4.jpg,pics2/SW5.jpg","","","","","","","false","null","","","noS.png","","",""
"image-slider-2AFC","562","1345208","0.0-46.64-1.64","2726","","","","41","","","","","","","","heartS.png","2060","41",""
"html-keyboard-response","563","1346093","0.0-46.64-2.64","null","","","","","","","null","","","","","","","",""
"image-selector-fb","564","1348369","0.0-46.65-0.65","1754","pics2/SW5.jpg,pics2/VE3.jpg","","","","","","","false","0","","","heartS.png","","",""
"image-slider-2AFC","565","1349832","0.0-46.65-1.65","1456","","","","-14","","","","","","","","heartS.png","904","-14",""
"html-keyboard-response","566","1350556","0.0-46.65-2.65","null","","","","","","","null","","","","","","","",""
"pavlovia","567","1350622","0.0-47.0","","","","","","","","","","","","","","","",""
"html-keyboard-response","568","1355633","0.0-48.0","null","<div style='width: 700px;'> <font size=6><b>SHORT BREAK</font></b><br><br><i> Please wait 5 seconds to continue</i></div> ","","","","","","null","","","","","","","",""
"pavlovia","569","1355639","0.0-49.0","","","","","","","","","","","","","","","",""
"html-button-response","570","1422765","0.0-50.0","67120","<div style='width: 700px;'> <font size=6><b>BLOCK 3</font></b><br><br>Press the button whenever you feel ready to start the third and final block</div>","0","","","","","","","","","","","","",""
"image-selector-fb","571","1425120","0.0-51.0-0.0","1820","pics2/FR3.jpg,pics2/FR2.jpg","","","","","","","false","0","","","heartS.png","","",""
"image-slider-2AFC","572","1427623","0.0-51.0-1.0","2490","","","","59","","","","","","","","sizeS.png","1504","59",""
"html-keyboard-response","573","1428390","0.0-51.0-2.0","null","","","","","","","null","","","","","","","",""
"image-selector-fb","574","1430910","0.0-51.1-0.1","2011","pics2/VE6.jpg,pics2/SA4.jpg","","","","","","","true","1","","","heartS.png","","",""
"image-slider-2AFC","575","1433273","0.0-51.1-1.1","2359","","","","47","","","","","","","","heartS.png","1310","47",""
"html-keyboard-response","576","1434036","0.0-51.1-2.1","null","","","","","","","null","","","","","","","",""
"image-selector-fb","577","1435818","0.0-51.2-0.2","1262","pics2/FR1.jpg,pics2/FR3.jpg","","","","","","","false","0","","","sizeS.png","","",""
"image-slider-2AFC","578","1438601","0.0-51.2-1.2","2778","","","","26","","","","","","","","heartS.png","1742","26",""
"html-keyboard-response","579","1439319","0.0-51.2-2.2","null","","","","","","","null","","","","","","","",""
"image-selector-fb","580","1441356","0.0-51.3-0.3","1501","pics2/FR5.jpg,pics2/FR6.jpg","","","","","","","false","0","","","sizeS.png","","",""
"image-slider-2AFC","581","1443439","0.0-51.3-1.3","2069","","","","-32","","","","","","","","sizeS.png","1222","-32",""
"html-keyboard-response","582","1444204","0.0-51.3-2.3","null","","","","","","","null","","","","","","","",""
"image-selector-fb","583","1447245","0.0-51.4-0.4","null","pics2/VE3.jpg,pics2/FR5.jpg","","","","","","","false","null","","","noS.png","","",""
"image-slider-2AFC","584","1450271","0.0-51.4-1.4","3013","","","","-67","","","","","","","","sizeS.png","2002","-67",""
"html-keyboard-response","585","1451087","0.0-51.4-2.4","null","","","","","","","null","","","","","","","",""
"image-selector-fb","586","1453309","0.0-51.5-0.5","1707","pics2/VE6.jpg,pics2/SW1.jpg","","","","","","","true","1","","","heartS.png","","",""
"image-slider-2AFC","587","1455916","0.0-51.5-1.5","2602","","","","64","","","","","","","","sizeS.png","1578","64",""
"html-keyboard-response","588","1456801","0.0-51.5-2.5","null","","","","","","","null","","","","","","","",""
"image-selector-fb","589","1458582","0.0-51.6-0.6","1269","pics2/FR3.jpg,pics2/VE6.jpg","","","","","","","false","0","","","heartS.png","","",""
"image-slider-2AFC","590","1460955","0.0-51.6-1.6","2367","","","","50","","","","","","","","sizeS.png","1489","50",""
"html-keyboard-response","591","1461776","0.0-51.6-2.6","null","","","","","","","null","","","","","","","",""
"image-selector-fb","592","1463768","0.0-51.7-0.7","1482","pics2/FR3.jpg,pics2/FR5.jpg","","","","","","","false","0","","","heartS.png","","",""
"image-slider-2AFC","593","1465943","0.0-51.7-1.7","2171","","","","-34","","","","","","","","heartS.png","1110","-34",""
"html-keyboard-response","594","1466664","0.0-51.7-2.7","null","","","","","","","null","","","","","","","",""
"image-selector-fb","595","1468209","0.0-51.8-0.8","1032","pics2/FR1.jpg,pics2/FR5.jpg","","","","","","","false","0","","","heartS.png","","",""
"image-slider-2AFC","596","1470085","0.0-51.8-1.8","1871","","","","-40","","","","","","","","sizeS.png","846","-40",""
"html-keyboard-response","597","1470898","0.0-51.8-2.8","null","","","","","","","null","","","","","","","",""
"image-selector-fb","598","1472714","0.0-51.9-0.9","1288","pics2/VE3.jpg,pics2/SW5.jpg","","","","","","","false","0","","","sizeS.png","","",""
"image-slider-2AFC","599","1474679","0.0-51.9-1.9","1962","","","","-68","","","","","","","","sizeS.png","1024","-68",""
"html-keyboard-response","600","1475507","0.0-51.9-2.9","null","","","","","","","null","","","","","","","",""
"image-selector-fb","601","1477043","0.0-51.10-0.10","1021","pics2/SW3.jpg,pics2/FR3.jpg","","","","","","","false","0","","","heartS.png","","",""
"image-slider-2AFC","602","1478834","0.0-51.10-1.10","1783","","","","-68","","","","","","","","sizeS.png","911","-68",""
"html-keyboard-response","603","1479559","0.0-51.10-2.10","null","","","","","","","null","","","","","","","",""
"image-selector-fb","604","1481498","0.0-51.11-0.11","1410","pics2/SW5.jpg,pics2/FR5.jpg","","","","","","","false","0","","","heartS.png","","",""
"image-slider-2AFC","605","1484008","0.0-51.11-1.11","2487","","","","53","","","","","","","","sizeS.png","1489","53",""
"html-keyboard-response","606","1484772","0.0-51.11-2.11","null","","","","","","","null","","","","","","","",""
"image-selector-fb","607","1486351","0.0-51.12-0.12","1054","pics2/SW1.jpg,pics2/VE6.jpg","","","","","","","false","0","","","sizeS.png","","",""
"image-slider-2AFC","608","1488639","0.0-51.12-1.12","2284","","","","-85","","","","","","","","sizeS.png","1347","-85",""
"html-keyboard-response","609","1489503","0.0-51.12-2.12","null","","","","","","","null","","","","","","","",""
"image-selector-fb","610","1491427","0.0-51.13-0.13","1406","pics2/VE6.jpg,pics2/SW3.jpg","","","","","","","true","1","","","sizeS.png","","",""
"image-slider-2AFC","611","1493612","0.0-51.13-1.13","2175","","","","43","","","","","","","","sizeS.png","998","43",""
"html-keyboard-response","612","1494388","0.0-51.13-2.13","null","","","","","","","null","","","","","","","",""
"image-selector-fb","613","1496152","0.0-51.14-0.14","1245","pics2/SW3.jpg,pics2/VE6.jpg","","","","","","","false","0","","","heartS.png","","",""
"image-slider-2AFC","614","1498133","0.0-51.14-1.14","1976","","","","-59","","","","","","","","sizeS.png","1143","-59",""
"html-keyboard-response","615","1498898","0.0-51.14-2.14","null","","","","","","","null","","","","","","","",""
"image-selector-fb","616","1500601","0.0-51.15-0.15","1185","pics2/SA4.jpg,pics2/FR1.jpg","","","","","","","true","1","","","sizeS.png","","",""
"image-slider-2AFC","617","1502366","0.0-51.15-1.15","1761","","","","33","","","","","","","","heartS.png","966","33",""
"html-keyboard-response","618","1503244","0.0-51.15-2.15","null","","","","","","","null","","","","","","","",""
"image-selector-fb","619","1506294","0.0-51.16-0.16","null","pics2/FR6.jpg,pics2/SW5.jpg","","","","","","","false","null","","","noS.png","","",""
"image-slider-2AFC","620","1509965","0.0-51.16-1.16","3659","","","","38","","","","","","","","sizeS.png","2742","38",""
"html-keyboard-response","621","1510748","0.0-51.16-2.16","null","","","","","","","null","","","","","","","",""
"image-selector-fb","622","1512659","0.0-51.17-0.17","1387","pics2/FR6.jpg,pics2/FR2.jpg","","","","","","","true","1","","","heartS.png","","",""
"image-slider-2AFC","623","1514404","0.0-51.17-1.17","1739","","","","19","","","","","","","","sizeS.png","1000","19",""
"html-keyboard-response","624","1515192","0.0-51.17-2.17","null","","","","","","","null","","","","","","","",""
"image-selector-fb","625","1516841","0.0-51.18-0.18","1119","pics2/SW1.jpg,pics2/FR2.jpg","","","","","","","false","0","","","heartS.png","","",""
"image-slider-2AFC","626","1519556","0.0-51.18-1.18","2704","","","","-98","","","","","","","","sizeS.png","1656","-98",""
"html-keyboard-response","627","1520430","0.0-51.18-2.18","null","","","","","","","null","","","","","","","",""
"image-selector-fb","628","1522933","0.0-51.19-0.19","1976","pics2/FR3.jpg,pics2/SA4.jpg","","","","","","","false","0","","","heartS.png","","",""
"image-slider-2AFC","629","1525058","0.0-51.19-1.19","2119","","","","75","","","","","","","","sizeS.png","1288","75",""
"html-keyboard-response","630","1525937","0.0-51.19-2.19","null","","","","","","","null","","","","","","","",""
"image-selector-fb","631","1527541","0.0-51.20-0.20","1072","pics2/FR1.jpg,pics2/VE3.jpg","","","","","","","false","0","","","heartS.png","","",""
"image-slider-2AFC","632","1530413","0.0-51.20-1.20","2864","","","","-72","","","","","","","","heartS.png","1899","-72",""
"html-keyboard-response","633","1531144","0.0-51.20-2.20","null","","","","","","","null","","","","","","","",""
"image-selector-fb","634","1534168","0.0-51.21-0.21","null","pics2/FR2.jpg,pics2/FR5.jpg","","","","","","","false","null","","","noS.png","","",""
"image-slider-2AFC","635","1537952","0.0-51.21-1.21","3772","","","","-64","","","","","","","","sizeS.png","2760","-64",""
"html-keyboard-response","636","1538666","0.0-51.21-2.21","null","","","","","","","null","","","","","","","",""
"image-selector-fb","637","1541704","0.0-51.22-0.22","null","pics2/SA4.jpg,pics2/VE3.jpg","","","","","","","false","null","","","noS.png","","",""
"image-slider-2AFC","638","1545099","0.0-51.22-1.22","3390","","","","31","","","","","","","","heartS.png","2611","31",""
"html-keyboard-response","639","1545961","0.0-51.22-2.22","null","","","","","","","null","","","","","","","",""
"image-selector-fb","640","1547734","0.0-51.23-0.23","1261","pics2/VE3.jpg,pics2/SW3.jpg","","","","","","","true","1","","","sizeS.png","","",""
"image-slider-2AFC","641","1549518","0.0-51.23-1.23","1776","","","","40","","","","","","","","heartS.png","1021","40",""
"html-keyboard-response","642","1550238","0.0-51.23-2.23","null","","","","","","","null","","","","","","","",""
"image-selector-fb","643","1551951","0.0-51.24-0.24","1174","pics2/FR1.jpg,pics2/SW1.jpg","","","","","","","true","1","","","heartS.png","","",""
"image-slider-2AFC","644","1554399","0.0-51.24-1.24","2443","","","","79","","","","","","","","sizeS.png","1509","79",""
"html-keyboard-response","645","1555266","0.0-51.24-2.24","null","","","","","","","null","","","","","","","",""
"image-selector-fb","646","1558301","0.0-51.25-0.25","null","pics2/FR2.jpg,pics2/FR1.jpg","","","","","","","false","null","","","noS.png","","",""
"image-slider-2AFC","647","1561282","0.0-51.25-1.25","2978","","","","63","","","","","","","","heartS.png","2168","63",""
"html-keyboard-response","648","1562103","0.0-51.25-2.25","null","","","","","","","null","","","","","","","",""
"image-selector-fb","649","1564296","0.0-51.26-0.26","1673","pics2/FR5.jpg,pics2/SW4.jpg","","","","","","","true","1","","","sizeS.png","","",""
"image-slider-2AFC","650","1566354","0.0-51.26-1.26","2039","","","","43","","","","","","","","sizeS.png","1092","43",""
"html-keyboard-response","651","1567164","0.0-51.26-2.26","null","","","","","","","null","","","","","","","",""
"image-selector-fb","652","1569231","0.0-51.27-0.27","1556","pics2/SA4.jpg,pics2/FR3.jpg","","","","","","","false","0","","","sizeS.png","","",""
"image-slider-2AFC","653","1571377","0.0-51.27-1.27","2140","","","","-19","","","","","","","","sizeS.png","937","-19",""
"html-keyboard-response","654","1572135","0.0-51.27-2.27","null","","","","","","","null","","","","","","","",""
"image-selector-fb","655","1573846","0.0-51.28-0.28","1188","pics2/SA4.jpg,pics2/SW3.jpg","","","","","","","false","0","","","sizeS.png","","",""
"image-slider-2AFC","656","1575957","0.0-51.28-1.28","2106","","","","45","","","","","","","","heartS.png","1314","45",""
"html-keyboard-response","657","1576794","0.0-51.28-2.28","null","","","","","","","null","","","","","","","",""
"image-selector-fb","658","1579846","0.0-51.29-0.29","null","pics2/SW5.jpg,pics2/SW3.jpg","","","","","","","false","null","","","noS.png","","",""
"image-slider-2AFC","659","1583513","0.0-51.29-1.29","3649","","","","36","","","","","","","","heartS.png","2907","36",""
"html-keyboard-response","660","1584285","0.0-51.29-2.29","null","","","","","","","null","","","","","","","",""
"image-selector-fb","661","1587321","0.0-51.30-0.30","null","pics2/FR6.jpg,pics2/SW4.jpg","","","","","","","false","null","","","noS.png","","",""
"image-slider-2AFC","662","1591581","0.0-51.30-1.30","4248","","","","76","","","","","","","","heartS.png","2585","76",""
"html-keyboard-response","663","1592304","0.0-51.30-2.30","null","","","","","","","null","","","","","","","",""
"image-selector-fb","664","1595339","0.0-51.31-0.31","null","pics2/SW1.jpg,pics2/SW3.jpg","","","","","","","false","null","","","noS.png","","",""
"image-slider-2AFC","665","1597856","0.0-51.31-1.31","2502","","","","-60","","","","","","","","sizeS.png","1596","-60",""
"html-keyboard-response","666","1598726","0.0-51.31-2.31","null","","","","","","","null","","","","","","","",""
"image-selector-fb","667","1601764","0.0-51.32-0.32","null","pics2/FR1.jpg,pics2/VE6.jpg","","","","","","","false","null","","","noS.png","","",""
"image-slider-2AFC","668","1604478","0.0-51.32-1.32","2701","","","","-12","","","","","","","","heartS.png","1968","-12",""
"html-keyboard-response","669","1605286","0.0-51.32-2.32","null","","","","","","","null","","","","","","","",""
"image-selector-fb","670","1607776","0.0-51.33-0.33","1959","pics2/SW5.jpg,pics2/SW4.jpg","","","","","","","true","1","","","sizeS.png","","",""
"image-slider-2AFC","671","1610260","0.0-51.33-1.33","2477","","","","51","","","","","","","","sizeS.png","1631","51",""
"html-keyboard-response","672","1611078","0.0-51.33-2.33","null","","","","","","","null","","","","","","","",""
"image-selector-fb","673","1614103","0.0-51.34-0.34","null","pics2/VE6.jpg,pics2/SW4.jpg","","","","","","","false","null","","","noS.png","","",""
"image-slider-2AFC","674","1618174","0.0-51.34-1.34","4061","","","","24","","","","","","","","sizeS.png","3346","24",""
"html-keyboard-response","675","1618898","0.0-51.34-2.34","null","","","","","","","null","","","","","","","",""
"image-selector-fb","676","1621007","0.0-51.35-0.35","1582","pics2/SW5.jpg,pics2/FR2.jpg","","","","","","","false","0","","","heartS.png","","",""
"image-slider-2AFC","677","1623358","0.0-51.35-1.35","2345","","","","-48","","","","","","","","heartS.png","1450","-48",""
"html-keyboard-response","678","1624170","0.0-51.35-2.35","null","","","","","","","null","","","","","","","",""
"image-selector-fb","679","1625863","0.0-51.36-0.36","1165","pics2/FR3.jpg,pics2/FR6.jpg","","","","","","","false","0","","","heartS.png","","",""
"image-slider-2AFC","680","1628329","0.0-51.36-1.36","2441","","","","-20","","","","","","","","heartS.png","1224","-20",""
"html-keyboard-response","681","1629198","0.0-51.36-2.36","null","","","","","","","null","","","","","","","",""
"image-selector-fb","682","1630885","0.0-51.37-0.37","1159","pics2/FR1.jpg,pics2/SA4.jpg","","","","","","","false","0","","","heartS.png","","",""
"image-slider-2AFC","683","1632791","0.0-51.37-1.37","1892","","","","-41","","","","","","","","heartS.png","1086","-41",""
"html-keyboard-response","684","1633653","0.0-51.37-2.37","null","","","","","","","null","","","","","","","",""
"image-selector-fb","685","1636688","0.0-51.38-0.38","null","pics2/SA4.jpg,pics2/FR3.jpg","","","","","","","false","null","","","noS.png","","",""
"image-slider-2AFC","686","1639227","0.0-51.38-1.38","2528","","","","38","","","","","","","","heartS.png","1746","38",""
"html-keyboard-response","687","1639939","0.0-51.38-2.38","null","","","","","","","null","","","","","","","",""
"image-selector-fb","688","1641577","0.0-51.39-0.39","1121","pics2/VE6.jpg,pics2/SW4.jpg","","","","","","","true","1","","","heartS.png","","",""
"image-slider-2AFC","689","1643540","0.0-51.39-1.39","1958","","","","-21","","","","","","","","sizeS.png","1276","-21",""
"html-keyboard-response","690","1644316","0.0-51.39-2.39","null","","","","","","","null","","","","","","","",""
"image-selector-fb","691","1647336","0.0-51.40-0.40","null","pics2/FR1.jpg,pics2/SW3.jpg","","","","","","","false","null","","","noS.png","","",""
"image-slider-2AFC","692","1650646","0.0-51.40-1.40","3293","","","","67","","","","","","","","heartS.png","2331","67",""
"html-keyboard-response","693","1651472","0.0-51.40-2.40","null","","","","","","","null","","","","","","","",""
"image-selector-fb","694","1654523","0.0-51.41-0.41","null","pics2/SA4.jpg,pics2/FR6.jpg","","","","","","","false","null","","","noS.png","","",""
"image-slider-2AFC","695","1658895","0.0-51.41-1.41","4360","","","","-69","","","","","","","","sizeS.png","2210,3437","-33,-69",""
"html-keyboard-response","696","1659726","0.0-51.41-2.41","null","","","","","","","null","","","","","","","",""
"image-selector-fb","697","1662019","0.0-51.42-0.42","1740","pics2/SW4.jpg,pics2/SW5.jpg","","","","","","","false","0","","","heartS.png","","",""
"image-slider-2AFC","698","1664207","0.0-51.42-1.42","2179","","","","-36","","","","","","","","heartS.png","1334","-36",""
"html-keyboard-response","699","1664987","0.0-51.42-2.42","null","","","","","","","null","","","","","","","",""
"image-selector-fb","700","1666810","0.0-51.43-0.43","1308","pics2/SA4.jpg,pics2/VE6.jpg","","","","","","","false","0","","","sizeS.png","","",""
"image-slider-2AFC","701","1668883","0.0-51.43-1.43","2068","","","","-43","","","","","","","","sizeS.png","1245","-43",""
"html-keyboard-response","702","1669714","0.0-51.43-2.43","null","","","","","","","null","","","","","","","",""
"image-selector-fb","703","1672016","0.0-51.44-0.44","1769","pics2/FR6.jpg,pics2/VE6.jpg","","","","","","","true","1","","","sizeS.png","","",""
"image-slider-2AFC","704","1674697","0.0-51.44-1.44","2670","","","","60","","","","","","","","sizeS.png","1788","60",""
"html-keyboard-response","705","1675455","0.0-51.44-2.44","null","","","","","","","null","","","","","","","",""
"image-selector-fb","706","1677514","0.0-51.45-0.45","1526","pics2/VE6.jpg,pics2/FR3.jpg","","","","","","","false","0","","","sizeS.png","","",""
"image-slider-2AFC","707","1679577","0.0-51.45-1.45","2059","","","","39","","","","","","","","heartS.png","1305","39",""
"html-keyboard-response","708","1680343","0.0-51.45-2.45","null","","","","","","","null","","","","","","","",""
"image-selector-fb","709","1681896","0.0-51.46-0.46","1038","pics2/SA4.jpg,pics2/SW4.jpg","","","","","","","true","1","","","heartS.png","","",""
"image-slider-2AFC","710","1684563","0.0-51.46-1.46","2655","","","","78","","","","","","","","heartS.png","1655","78",""
