"trial_type","trial_index","time_elapsed","internal_node_id","rt","stimulus","button_pressed","success","response","cat","value","key_press","correct","image_click","first_click_rt","first_click_val","symbol","all_click_rt","all_click_val","view_history"
"pavlovia","0","2","0.0-0.0","","","","","","","","","","","","","","","",""
"html-button-response","1","2989","0.0-1.0","2985","<div style='width: 700px; font-size: 150%'><font size='40'>  Welcome to our study!</font><br><br><br> <small> Our experiment is about <i>decision making</i>. You will choose and rate different food items, such as these: <br><br> <div><img src='food_combo2.png', height = '400px'></img></div>","0","","","","","","","","","","","","",""
"html-button-response","2","5097","0.0-2.0","2106","<div style='width: 700px; font-size: 150%'><br><br><br><small> <u><i>This is a multi-part study.</i></u><br><br> In the first part you will rate 24 food items twice.<br><br><div><img src=""rat1.png"" style=""width: 25%""></img></div><br>In the second part (longest) you will make repeated choices and judgements concerning the food items.<br><br><div><img src=""mainx.png"" style=""width: 50%""></img></div><br>In the third and final part, you will rate the items again and answer few short questionnaires.<br><br><div><img src=""rat2.png"" style=""width: 50%""></img></div><br><br>","0","","","","","","","","","","","","",""
"fullscreen","3","7700","0.0-3.0","","","","true","","","","","","","","","","","",""
"html-button-response","4","46352","0.0-4.0","38651","<div style='width: 900px; font-size: 150%;' <font size='20%'> In the first part of the task you will use the mouse to rate food items on <i>2 scales</i> </font></div><br><br><div style='width: 900px'><div style='float: left; width: 50%; margin-right:2.5em'><img src='heartS.png'></img><p class='small' style='text-align: justify'>When you see the heart cue you will rate food items in terms of how much like them/would like to eat them <i>right now</i>. You will rate them on a continuous scale from left (strong dislike) to right (strong liking). Before submitting your rating, try imagining how the item tastes and how much you desire it.<br><br></p></div><div ><img src='sizeS.png'></img><p class='small' style='text-align: justify'>When you see the size cue, you will rate the same food items in terms of their size. The scale goes from left (tiny) to right (very large). You should assess picture size <i><u>relative</i></u> to the white background. <b>Remember:</b> rate the size of the picture, <u>not</u> the size of the item in real life. </p></div><div style='width: 900px'><br><br><b><i>Notice:</b> by starting the rating you agree that your sumbission might be rejected at an early stage and the experiment might end, if your size ratings are not at least modestly related to objective sizes, or if you repeat the same value ratings too many times. If you don't agree, please exit by closing the browser window. </i><br><br><br>","0","","","","","","","","","","","","",""
"html-button-response","5","59816","0.0-5.0","13463","<div><img src='heartS.png'></img></div><br><div style='text-align: justify; width: 700px'>Using the mouse, rate the <b><i>likeness</b></i> of the food items (how much you like them/would like to eat them <i>right now</i>). Far right-end of the scale indicates an item you <i>like a lot</i>. Far left-end indicates an item you <i>dislike a lot</i>. Think about each answer.   <ul><li>Try <b><i>not</b></i> to give identical rating to different items.</li><li>Use the whole scale, and <b><i>not</b></i> just the extremes</ul></div><br>","0","","","","","","","","","","","","",""
"image-slider-response","6","67579","0.0-6.0-0.0-0.0","7761","pics2/SA1.jpg","","","88","SA","","","","","","","","","",""
"image-slider-response","7","71666","0.0-6.0-0.0-0.1","3885","pics2/SW2.jpg","","","60","SW","","","","","","","","","",""
"image-slider-response","8","75632","0.0-6.0-0.0-0.2","3764","pics2/VE5.jpg","","","36","VE","","","","","","","","","",""
"image-slider-response","9","79186","0.0-6.0-0.0-0.3","3352","pics2/FR4.jpg","","","60","FR","","","","","","","","","",""
"image-slider-response","10","82821","0.0-6.0-0.0-0.4","3432","pics2/SA2.jpg","","","67","SA","","","","","","","","","",""
"image-slider-response","11","91027","0.0-6.0-0.0-0.5","8005","pics2/SW6.jpg","","","69","SW","","","","","","","","","",""
"image-slider-response","12","94000","0.0-6.0-0.0-0.6","2771","pics2/SW3.jpg","","","91","SW","","","","","","","","","",""
"image-slider-response","13","99419","0.0-6.0-0.0-0.7","5217","pics2/FR2.jpg","","","59","FR","","","","","","","","","",""
"image-slider-response","14","102530","0.0-6.0-0.0-0.8","2904","pics2/SA4.jpg","","","92","SA","","","","","","","","","",""
"image-slider-response","15","104903","0.0-6.0-0.0-0.9","2172","pics2/SW1.jpg","","","91","SW","","","","","","","","","",""
"image-slider-response","16","109411","0.0-6.0-0.0-0.10","4306","pics2/FR5.jpg","","","63","FR","","","","","","","","","",""
"image-slider-response","17","114419","0.0-6.0-0.0-0.11","4807","pics2/SA5.jpg","","","59","SA","","","","","","","","","",""
"image-slider-response","18","116753","0.0-6.0-0.0-0.12","2132","pics2/FR3.jpg","","","61","FR","","","","","","","","","",""
"image-slider-response","19","119257","0.0-6.0-0.0-0.13","2300","pics2/SW5.jpg","","","81","SW","","","","","","","","","",""
"image-slider-response","20","121560","0.0-6.0-0.0-0.14","2098","pics2/FR6.jpg","","","57","FR","","","","","","","","","",""
"image-slider-response","21","124306","0.0-6.0-0.0-0.15","2545","pics2/VE1.jpg","","","38","VE","","","","","","","","","",""
"image-slider-response","22","127594","0.0-6.0-0.0-0.16","3085","pics2/VE4.jpg","","","72","VE","","","","","","","","","",""
"image-slider-response","23","131051","0.0-6.0-0.0-0.17","3251","pics2/VE3.jpg","","","35","VE","","","","","","","","","",""
"image-slider-response","24","133644","0.0-6.0-0.0-0.18","2391","pics2/SA6.jpg","","","74","SA","","","","","","","","","",""
"image-slider-response","25","136430","0.0-6.0-0.0-0.19","2584","pics2/SA3.jpg","","","97","SA","","","","","","","","","",""
"image-slider-response","26","139945","0.0-6.0-0.0-0.20","3308","pics2/FR1.jpg","","","62","FR","","","","","","","","","",""
"image-slider-response","27","142521","0.0-6.0-0.0-0.21","2370","pics2/SW4.jpg","","","71","SW","","","","","","","","","",""
"image-slider-response","28","145251","0.0-6.0-0.0-0.22","2523","pics2/VE6.jpg","","","64","VE","","","","","","","","","",""
"image-slider-response","29","149833","0.0-6.0-0.0-0.23","4379","pics2/VE2.jpg","","","54","VE","","","","","","","","","",""
"html-button-response","30","151350","0.0-7.0","1315","<div style='width: 900px;'> <font size = 6><b> End of the first rating</b><br><br>","0","","","","","","","","","","","","",""
"html-button-response","31","170770","0.0-9.0","19416","<div ><img src='sizeS.png'></img></div><br><div style='text-align: justify; width: 700px'> Using the mouse, rate the <b><i>size</b></i> of the food items <b><i> relative to the white background.</b></i> Right-end of the scale indicates a <i>very large item</i>, which covers a large portion of the white rectangle. Left-end indicates a <i>very tiny</i> item which covers a tiny portion of the white rectangle.<br><br><i><u>Remember</i></u>: everything that is not the white background also contributes to item size (e.g. packing, plates, ect.)<br><br> Please keep in mind that if the accuracy of ratings do not allign well with actual sizes, the experiment will end.  As a result it will be consider incomplete and therefore no payment would be made. Good luck!<br><br></div><br>","0","","","","","","","","","","","","",""
"html-button-response","32","178419","0.0-10.0","7649","<div ><img src='sizeS.png'></img></div><br><b><font size=6>Examples of items that you might encounter</b><br><div style='width: 750px;'><div style='width: 33.33%; float:left'><br><br><br><i>Large Item</i><br><br><img src='large.jpg', width=200px></img></div><div style='float:right'><br><br><br><i>Small Item</i><br><br><img src='small.jpg', width=200px></img></div><div ><br><br><br><i>Medium Item</i><br><br><img src='med.jpg', width=200px></img></div></div><br><br>","0","","","","","","","","","","","","",""
"image-slider-response","33","186643","0.0-11.0-0.0-0.0","8220","pics2/VE1.jpg","","","86","null","","","","","","","","","",""
"image-slider-response","34","192870","0.0-11.0-0.0-0.1","6019","pics2/VE3.jpg","","","87","null","","","","","","","","","",""
"image-slider-response","35","198145","0.0-11.0-0.0-0.2","5073","pics2/FR1.jpg","","","90","null","","","","","","","","","",""
"image-slider-response","36","202078","0.0-11.0-0.0-0.3","3727","pics2/SW2.jpg","","","97","null","","","","","","","","","",""
"image-slider-response","37","209662","0.0-11.0-0.0-0.4","7382","pics2/FR6.jpg","","","76","null","","","","","","","","","",""
"image-slider-response","38","212207","0.0-11.0-0.0-0.5","2342","pics2/SA1.jpg","","","96","null","","","","","","","","","",""
"image-slider-response","39","219540","0.0-11.0-0.0-0.6","7129","pics2/SW5.jpg","","","92","null","","","","","","","","","",""
"image-slider-response","40","224943","0.0-11.0-0.0-0.7","5201","pics2/SW6.jpg","","","74","null","","","","","","","","","",""
"image-slider-response","41","228214","0.0-11.0-0.0-0.8","3065","pics2/SA3.jpg","","","86","null","","","","","","","","","",""
"image-slider-response","42","231453","0.0-11.0-0.0-0.9","3037","pics2/SW1.jpg","","","96","null","","","","","","","","","",""
"image-slider-response","43","237505","0.0-11.0-0.0-0.10","5845","pics2/VE5.jpg","","","89","null","","","","","","","","","",""
"image-slider-response","44","239906","0.0-11.0-0.0-0.11","2194","pics2/VE4.jpg","","","88","null","","","","","","","","","",""
"image-slider-response","45","249235","0.0-11.0-0.0-0.12","9121","pics2/SA4.jpg","","","66","null","","","","","","","","","",""
"image-slider-response","46","252046","0.0-11.0-0.0-0.13","2605","pics2/SW3.jpg","","","85","null","","","","","","","","","",""
"image-slider-response","47","260687","0.0-11.0-0.0-0.14","8435","pics2/FR5.jpg","","","86","null","","","","","","","","","",""
"image-slider-response","48","262900","0.0-11.0-0.0-0.15","2006","pics2/FR2.jpg","","","96","null","","","","","","","","","",""
"image-slider-response","49","266865","0.0-11.0-0.0-0.16","3763","pics2/SW4.jpg","","","87","null","","","","","","","","","",""
"image-slider-response","50","271615","0.0-11.0-0.0-0.17","4543","pics2/SA5.jpg","","","69","null","","","","","","","","","",""
"image-slider-response","51","277280","0.0-11.0-0.0-0.18","5458","pics2/SA6.jpg","","","87","null","","","","","","","","","",""
"image-slider-response","52","285615","0.0-11.0-0.0-0.19","8129","pics2/SA2.jpg","","","65","null","","","","","","","","","",""
"image-slider-response","53","291902","0.0-11.0-0.0-0.20","6083","pics2/VE2.jpg","","","89","null","","","","","","","","","",""
"image-slider-response","54","296942","0.0-11.0-0.0-0.21","4834","pics2/FR4.jpg","","","77","null","","","","","","","","","",""
"image-slider-response","55","305713","0.0-11.0-0.0-0.22","8569","pics2/VE6.jpg","","","67","null","","","","","","","","","",""
"image-slider-response","56","309768","0.0-11.0-0.0-0.23","3852","pics2/FR3.jpg","","","88","null","","","","","","","","","",""
"html-button-response","57","311197","0.0-12.0","1227","<div style='width: 900px;'> <font size = 6><b> End of the second rating</b><br><br>","0","","","","","","","","","","","","",""
"html-button-response","58","315454","0.0-13.0","4256","<div style='width: 900px;'>Now please rate the items for the second time. <br><br>This is not a memory test - you don't need to be consistent with your previous ratings. Just as before, try to make accurate judgements.<br><br>","0","","","","","","","","","","","","",""
"html-button-response","59","327571","0.0-14.0","12116","<div><img src='heartS.png'></img></div><br><div style='text-align: justify; width: 700px'>Using the mouse, rate the <b><i>likeness</b></i> of the food items (how much you like them/would like to eat them <i>right now</i>). Far right-end of the scale indicates an item you <i>like a lot</i>. Far left-end indicates an item you <i>dislike a lot</i>. Think about each answer.   <ul><li>Try <b><i>not</b></i> to give identical rating to different items.</li><li>Use the whole scale, and <b><i>not</b></i> just the extremes</ul></div><br>","0","","","","","","","","","","","","",""
"image-slider-response","60","332916","0.0-15.0-0.0-0.0","5344","pics2/VE6.jpg","","","67","VE","","","","","","","","","",""
"image-slider-response","61","337213","0.0-15.0-0.0-0.1","4090","pics2/SW2.jpg","","","69","SW","","","","","","","","","",""
"image-slider-response","62","339862","0.0-15.0-0.0-0.2","2446","pics2/SA3.jpg","","","95","SA","","","","","","","","","",""
"image-slider-response","63","342010","0.0-15.0-0.0-0.3","1943","pics2/SA1.jpg","","","95","SA","","","","","","","","","",""
"image-slider-response","64","376683","0.0-15.0-0.0-0.4","34471","pics2/FR1.jpg","","","62","FR","","","","","","","","","",""
"image-slider-response","65","379809","0.0-15.0-0.0-0.5","2924","pics2/FR6.jpg","","","66","FR","","","","","","","","","",""
"image-slider-response","66","383533","0.0-15.0-0.0-0.6","3521","pics2/VE3.jpg","","","56","VE","","","","","","","","","",""
"image-slider-response","67","385713","0.0-15.0-0.0-0.7","1978","pics2/VE5.jpg","","","41","VE","","","","","","","","","",""
"image-slider-response","68","387562","0.0-15.0-0.0-0.8","1647","pics2/FR2.jpg","","","53","FR","","","","","","","","","",""
"image-slider-response","69","389670","0.0-15.0-0.0-0.9","1906","pics2/SA2.jpg","","","81","SA","","","","","","","","","",""
"image-slider-response","70","391747","0.0-15.0-0.0-0.10","1870","pics2/FR5.jpg","","","56","FR","","","","","","","","","",""
"image-slider-response","71","395753","0.0-15.0-0.0-0.11","3800","pics2/SA6.jpg","","","67","SA","","","","","","","","","",""
"image-slider-response","72","397714","0.0-15.0-0.0-0.12","1755","pics2/FR3.jpg","","","62","FR","","","","","","","","","",""
"image-slider-response","73","401333","0.0-15.0-0.0-0.13","3416","pics2/VE2.jpg","","","43","VE","","","","","","","","","",""
"image-slider-response","74","404959","0.0-15.0-0.0-0.14","3421","pics2/SA4.jpg","","","95","SA","","","","","","","","","",""
"image-slider-response","75","408706","0.0-15.0-0.0-0.15","3539","pics2/VE1.jpg","","","43","VE","","","","","","","","","",""
"image-slider-response","76","412106","0.0-15.0-0.0-0.16","3196","pics2/FR4.jpg","","","65","FR","","","","","","","","","",""
"image-slider-response","77","413915","0.0-15.0-0.0-0.17","1602","pics2/SW5.jpg","","","78","SW","","","","","","","","","",""
"image-slider-response","78","416088","0.0-15.0-0.0-0.18","1971","pics2/SW3.jpg","","","90","SW","","","","","","","","","",""
"image-slider-response","79","420521","0.0-15.0-0.0-0.19","4228","pics2/SW6.jpg","","","75","SW","","","","","","","","","",""
"image-slider-response","80","423259","0.0-15.0-0.0-0.20","2536","pics2/SW1.jpg","","","91","SW","","","","","","","","","",""
"image-slider-response","81","454283","0.0-15.0-0.0-0.21","30817","pics2/SW4.jpg","","","68","SW","","","","","","","","","",""
"image-slider-response","82","459542","0.0-15.0-0.0-0.22","5053","pics2/VE4.jpg","","","63","VE","","","","","","","","","",""
"image-slider-response","83","472899","0.0-15.0-0.0-0.23","13154","pics2/SA5.jpg","","","45","SA","","","","","","","","","",""
"call-function","84","473110","0.0-16.0","","","","","","","","","","","","","","","",""
"call-function","85","473113","0.0-17.0","","","","","","","","","","","","","","","",""
"html-button-response","86","474473","0.0-18.0","1360","<div style='width: 900px;'> <font size = 6><b> End of the first rating</b><br><br>","0","","","","","","","","","","","","",""
"html-button-response","87","481300","0.0-19.0","6825","<div ><img src='sizeS.png'></img></div><br><div style='text-align: justify; width: 700px'> Using the mouse, rate the <b><i>size</b></i> of the food items <b><i> relative to the white background.</b></i> Right-end of the scale indicates a <i>very large item</i>, which covers a large portion of the white rectangle. Left-end indicates a <i>very tiny</i> item which covers a tiny portion of the white rectangle.<br><br><i><u>Remember</i></u>: everything that is not the white background also contributes to item size (e.g. packing, plates, ect.)<br><br> Please keep in mind that if the accuracy of ratings do not allign well with actual sizes, the experiment will end.  As a result it will be consider incomplete and therefore no payment would be made. Good luck!<br><br></div><br>","0","","","","","","","","","","","","",""
"image-slider-response","88","486432","0.0-20.0-0.0-0.0","5131","pics2/SA4.jpg","","","67","null","","","","","","","","","",""
"image-slider-response","89","488984","0.0-20.0-0.0-0.1","2348","pics2/SA5.jpg","","","63","null","","","","","","","","","",""
"image-slider-response","90","494994","0.0-20.0-0.0-0.2","5808","pics2/SA6.jpg","","","82","null","","","","","","","","","",""
"image-slider-response","91","497846","0.0-20.0-0.0-0.3","2649","pics2/SW2.jpg","","","97","null","","","","","","","","","",""
"image-slider-response","92","501610","0.0-20.0-0.0-0.4","3560","pics2/SW4.jpg","","","81","null","","","","","","","","","",""
"image-slider-response","93","505107","0.0-20.0-0.0-0.5","3292","pics2/FR3.jpg","","","81","null","","","","","","","","","",""
"image-slider-response","94","510179","0.0-20.0-0.0-0.6","4869","pics2/VE3.jpg","","","91","null","","","","","","","","","",""
"image-slider-response","95","516728","0.0-20.0-0.0-0.7","6342","pics2/VE2.jpg","","","83","null","","","","","","","","","",""
"image-slider-response","96","518997","0.0-20.0-0.0-0.8","2067","pics2/FR2.jpg","","","95","null","","","","","","","","","",""
"image-slider-response","97","524109","0.0-20.0-0.0-0.9","4909","pics2/SW6.jpg","","","63","null","","","","","","","","","",""
"image-slider-response","98","526896","0.0-20.0-0.0-0.10","2585","pics2/VE5.jpg","","","68","null","","","","","","","","","",""
"image-slider-response","99","530224","0.0-20.0-0.0-0.11","3125","pics2/FR6.jpg","","","62","null","","","","","","","","","",""
"image-slider-response","100","532428","0.0-20.0-0.0-0.12","2002","pics2/SW3.jpg","","","80","null","","","","","","","","","",""
"image-slider-response","101","535990","0.0-20.0-0.0-0.13","3360","pics2/VE6.jpg","","","70","null","","","","","","","","","",""
"image-slider-response","102","538421","0.0-20.0-0.0-0.14","2229","pics2/SA1.jpg","","","96","null","","","","","","","","","",""
"image-slider-response","103","541184","0.0-20.0-0.0-0.15","2556","pics2/FR1.jpg","","","86","null","","","","","","","","","",""
"image-slider-response","104","543404","0.0-20.0-0.0-0.16","2018","pics2/SW1.jpg","","","98","null","","","","","","","","","",""
"image-slider-response","105","546176","0.0-20.0-0.0-0.17","2568","pics2/VE1.jpg","","","90","null","","","","","","","","","",""
"image-slider-response","106","549825","0.0-20.0-0.0-0.18","3442","pics2/FR5.jpg","","","88","null","","","","","","","","","",""
"image-slider-response","107","551836","0.0-20.0-0.0-0.19","1804","pics2/SA3.jpg","","","87","null","","","","","","","","","",""
"image-slider-response","108","555090","0.0-20.0-0.0-0.20","3053","pics2/FR4.jpg","","","80","null","","","","","","","","","",""
"image-slider-response","109","556908","0.0-20.0-0.0-0.21","1615","pics2/SW5.jpg","","","89","null","","","","","","","","","",""
"image-slider-response","110","563297","0.0-20.0-0.0-0.22","6182","pics2/SA2.jpg","","","60","null","","","","","","","","","",""
"image-slider-response","111","565641","0.0-20.0-0.0-0.23","2141","pics2/VE4.jpg","","","63","null","","","","","","","","","",""
"call-function","112","565846","0.0-21.0","","","","","","","","","","","","","","","",""
"html-button-response","113","566807","0.0-22.0","960","<div style='width: 900px;'> <font size = 6><b> End of the second rating</b><br><br>","0","","","","","","","","","","","","",""
"pavlovia","114","566816","0.0-23.0","","","","","","","","","","","","","","","",""
"html-keyboard-response","115","571825","0.0-24.0","null","<div style='width: 700px;'> <font size=6><b>SHORT BREAK</font></b><br><br><i> Please wait 5 seconds to continue</i></div> ","","","","","","null","","","","","","","",""
"pavlovia","116","571826","0.0-25.0","","","","","","","","","","","","","","","",""
"html-button-response","117","582889","0.0-26.0","11062","<div style='width: 700px;'>In the main part of the study, you will be choosing between 2 items. When it's time to choose,  this symbol will appear: <br><br><img src='chooseS.png'></img><br><br>Below, a cue will signify the type of choice: </div><br><div style='width: 700px;'><div style='float: left; width: 50%'><img src='heartS.png'></img><p class='small'>Heart cue means you should choose the item you <b><i>prefer</b></i> more.</p></div><div class='float: right; width:50%'><img src='sizeS.png'></img><p class='small'>Size cue means you should choose the <b><i>larger</b></i> item. </p></div></div><br><div style='width: 700px;'>When you click, a green square will appear around the item you chose.<br></div><div><br>","0","","","","","","","","","","","","",""
"image-selector-fb-tut","118","587383","0.0-27.0","3488","0232.jpg,0123.jpg","","","","","","","false","0","","","","","",""
"image-selector-fb-tut","119","591170","0.0-28.0","2784","0232.jpg,0123.jpg","","","","","","","true","1","","","","","",""
"html-button-response","120","595749","0.0-29.0","4578","<div style='width: 900px;'>Your choices should be both <b><i>fast and accurate</b></i>. <br><br>You will have <i>4 seconds</i> to make each choice, which should be enough consider the options and click on one of the items.<br><br>","0","","","","","","","","","","","","",""
"html-button-response","121","602611","0.0-30.0","6860","<div style='width: 900px;'>Additionally, on some choice trials you will see the <b><i>no-choice cue</b></i>: <br><br><img src='noS.png'></img> <br><br>This cue means you can't make any choice. You can examine the items, but  can't click on any of them. Just wait patiently for the cue to dissapear.<br><br>","0","","","","","","","","","","","","",""
"image-selector-fb-tut","122","604616","0.0-31.0","null","0232.jpg,0123.jpg","","","","","","","false","null","","","","","",""
"html-button-response","123","625466","0.0-32.0","20849","<div style='width: 900px;'>After each choice the items will remain on the screen and you will see this symbol: <br><br><img src='judgeS.png'></img> <br><br>This means you should rate<b> the magnitude of the difference</b> between the items using a scale: </div><br><div style='width: 900px; '><div style='float: left; width: 50%; margin-right: 2.5em; align-self:left'><img src='heartS.png'></img><p class='small' style = 'text-align: justify;'>Heart cue means you should rate <b>how much you prefer</b> one of the items over the other. Moving the scale indicator to the left means you prefer the left one; moving it to the right - right one. The more you prefer one of them, the more towards that side you should move the scale indicator. </p></div><div class='float: right; width: 50%; margin-left: 2.5em;'><img src='sizeS.png'></img><p class='small' style='text-align: justify'>Size cue means you should rate <b>how much larger</b> is one of the items over the other. Moving the scale indicator to the left means you think the left is larger; moving it to the right - right one. The greater the difference in size, the more towards that side you should move the scale indicator.</div><br>","0","","","","","","","","","","","","",""
"image-slider-2AFC-tut","124","632738","0.0-33.0","7269","","","","84","","","","","","6542","84","","","",""
"image-slider-2AFC-tut","125","639983","0.0-34.0","7243","","","","25","","","","","","6330","25","","","",""
"html-button-response","126","648506","0.0-35.0","8522","<br><br><font size = 36><b> Examples </b></font><br><br><i> 1) I would like to eat some croissants a <b>lot more</b> than doritos right now:</i><br><img src='ex1.PNG', width='62%'></img><br><br><br><i> 2) I would like to eat some doritos a <b>bit more</b> than croissants right now, but just slightly:</i><br><img src='ex2.PNG' width='62%'></img>","0","","","","","","","","","","","","",""
"html-button-response","127","652887","0.0-36.0","4380","<div style='width: 900px;'><i>Now you know everything you need to do the task!</i> <br><br>Let's start by doing a <b>short training</b>, so you'll get used to how it works. </div><br>","0","","","","","","","","","","","","",""
"image-selector-fb","128","657395","0.0-37.0-0.0","null","pics2/FR4.jpg,pics2/VE3.jpg","","","","","","","false","null","","","sizeS.png","","",""
"image-slider-2AFC","129","657395","0.0-37.0-1.0","null","","","","null","","","","","","","","sizeS.png","","",""
"html-keyboard-response","130","658098","0.0-37.0-2.0","null","","","","","","","null","","","","","","","",""
"image-selector-fb","131","661109","0.0-37.1-0.1","null","pics2/VE3.jpg,pics2/VE5.jpg","","","","","","","false","null","","","noS.png","","",""
"image-slider-2AFC","132","666114","0.0-37.1-1.1","null","","","","null","","","","","","","","sizeS.png","4086","-57",""
"html-keyboard-response","133","666976","0.0-37.1-2.1","null","","","","","","","null","","","","","","","",""
"image-selector-fb","134","671479","0.0-37.2-0.2","null","pics2/SA5.jpg,pics2/FR2.jpg","","","","","","","false","null","","","sizeS.png","","",""
"image-slider-2AFC","135","671479","0.0-37.2-1.2","null","","","","null","","","","","","","","heartS.png","","",""
"html-keyboard-response","136","672333","0.0-37.2-2.2","null","","","","","","","null","","","","","","","",""
"image-selector-fb","137","675033","0.0-37.3-0.3","2192","pics2/FR4.jpg,pics2/VE2.jpg","","","","","","","true","1","","","sizeS.png","","",""
"image-slider-2AFC","138","679266","0.0-37.3-1.3","4232","","","","38","","","","","","","","sizeS.png","3408","38",""
"html-keyboard-response","139","680028","0.0-37.3-2.3","null","","","","","","","null","","","","","","","",""
"image-selector-fb","140","682328","0.0-37.4-0.4","1797","pics2/VE2.jpg,pics2/SW2.jpg","","","","","","","true","1","","","heartS.png","","",""
"image-slider-2AFC","141","687334","0.0-37.4-1.4","null","","","","null","","","","","","","","sizeS.png","","",""
"html-keyboard-response","142","688141","0.0-37.4-2.4","null","","","","","","","null","","","","","","","",""
"image-selector-fb","143","691149","0.0-37.5-0.5","null","pics2/FR1.jpg,pics2/FR6.jpg","","","","","","","false","null","","","noS.png","","",""
"image-slider-2AFC","144","695387","0.0-37.5-1.5","4236","","","","-58","","","","","","","","heartS.png","3389","-58",""
"html-keyboard-response","145","696144","0.0-37.5-2.5","null","","","","","","","null","","","","","","","",""
"image-selector-fb","146","698377","0.0-37.6-0.6","1730","pics2/FR2.jpg,pics2/VE1.jpg","","","","","","","false","0","","","heartS.png","","",""
"image-slider-2AFC","147","702066","0.0-37.6-1.6","3688","","","","-61","","","","","","","","sizeS.png","2823","-61",""
"html-keyboard-response","148","702770","0.0-37.6-2.6","null","","","","","","","null","","","","","","","",""
"image-selector-fb","149","705778","0.0-37.7-0.7","null","pics2/VE3.jpg,pics2/FR3.jpg","","","","","","","false","null","","","noS.png","","",""
"image-slider-2AFC","150","710780","0.0-37.7-1.7","null","","","","null","","","","","","","","heartS.png","3820","61",""
"html-keyboard-response","151","711642","0.0-37.7-2.7","null","","","","","","","null","","","","","","","",""
"image-selector-fb","152","714092","0.0-37.8-0.8","1946","pics2/SA5.jpg,pics2/VE3.jpg","","","","","","","true","1","","","sizeS.png","","",""
"image-slider-2AFC","153","716336","0.0-37.8-1.8","2243","","","","44","","","","","","","","sizeS.png","1549","44",""
"html-keyboard-response","154","717090","0.0-37.8-2.8","null","","","","","","","null","","","","","","","",""
"image-selector-fb","155","719931","0.0-37.9-0.9","2338","pics2/FR4.jpg,pics2/VE5.jpg","","","","","","","false","0","","","sizeS.png","","",""
"image-slider-2AFC","156","721861","0.0-37.9-1.9","1928","","","","-37","","","","","","","","sizeS.png","1274","-37",""
"html-keyboard-response","157","722567","0.0-37.9-2.9","null","","","","","","","null","","","","","","","",""
"image-selector-fb","158","724455","0.0-37.10-0.10","1385","pics2/FR2.jpg,pics2/FR3.jpg","","","","","","","false","0","","","heartS.png","","",""
"image-slider-2AFC","159","728039","0.0-37.10-1.10","3583","","","","-44","","","","","","","","sizeS.png","2873","-44",""
"html-keyboard-response","160","728751","0.0-37.10-2.10","null","","","","","","","null","","","","","","","",""
"image-selector-fb","161","731764","0.0-37.11-0.11","null","pics2/FR1.jpg,pics2/VE5.jpg","","","","","","","false","null","","","noS.png","","",""
"image-slider-2AFC","162","736009","0.0-37.11-1.11","4243","","","","-53","","","","","","","","sizeS.png","3453","-53",""
"html-keyboard-response","163","736818","0.0-37.11-2.11","null","","","","","","","null","","","","","","","",""
"html-button-response","164","739966","0.0-38.0","3147","<i><font size=10>Good job!</font></i> <br><br>Before we begin, you have a chance to review the rules, in case something was not clear.<br><br>","0","","","","","","","","","","","","",""
"instructions","165","757540","0.0-39.0","17573","","","","","","","","","","","","","","","[{""page_index"":0,""viewing_time"":6313},{""page_index"":1,""viewing_time"":2061},{""page_index"":2,""viewing_time"":9198}]"
"html-button-response","166","768340","0.0-40.0","10800","<div style='width: 900px;'> <font size='40'>Great! Now you're ready to begin</font><br><br>The main part of the experiment will consist of <u>3 blocks</u>. Each block consists of 66 decisions and judgements. You will have time for a short break between blocks.<br><br><br><i><u>Do your best to respond within the time limit.</u></i><br><br><i> Press the button to start the experiment<br><br></i>","0","","","","","","","","","","","","",""
"image-selector-fb","167","772197","0.0-41.0-0.0","3351","pics2/SA3.jpg,pics2/SW4.jpg","","","","","","","false","0","","","sizeS.png","","",""
"image-slider-2AFC","168","775099","0.0-41.0-1.0","2901","","","","-44","","","","","","","","sizeS.png","2206","-44",""
"html-keyboard-response","169","775958","0.0-41.0-2.0","null","","","","","","","null","","","","","","","",""
"image-selector-fb","170","778967","0.0-41.1-0.1","null","pics2/SA6.jpg,pics2/SA1.jpg","","","","","","","false","null","","","noS.png","","",""
"image-slider-2AFC","171","782198","0.0-41.1-1.1","3229","","","","60","","","","","","","","sizeS.png","2375","60",""
"html-keyboard-response","172","782909","0.0-41.1-2.1","null","","","","","","","null","","","","","","","",""
"image-selector-fb","173","785924","0.0-41.2-0.2","null","pics2/VE6.jpg,pics2/SW6.jpg","","","","","","","false","null","","","noS.png","","",""
"image-slider-2AFC","174","789741","0.0-41.2-1.2","3816","","","","72","","","","","","","","heartS.png","3154","72",""
"html-keyboard-response","175","790448","0.0-41.2-2.2","null","","","","","","","null","","","","","","","",""
"image-selector-fb","176","792562","0.0-41.3-0.3","1611","pics2/SW3.jpg,pics2/SW4.jpg","","","","","","","false","0","","","heartS.png","","",""
"image-slider-2AFC","177","797010","0.0-41.3-1.3","4446","","","","-44","","","","","","","","sizeS.png","2645","-44",""
"html-keyboard-response","178","797720","0.0-41.3-2.3","null","","","","","","","null","","","","","","","",""
"image-selector-fb","179","799888","0.0-41.4-0.4","1663","pics2/SA3.jpg,pics2/SW3.jpg","","","","","","","true","1","","","sizeS.png","","",""
"image-slider-2AFC","180","803560","0.0-41.4-1.4","3670","","","","46","","","","","","","","sizeS.png","3040","46",""
"html-keyboard-response","181","804419","0.0-41.4-2.4","null","","","","","","","null","","","","","","","",""
"image-selector-fb","182","807428","0.0-41.5-0.5","null","pics2/SA3.jpg,pics2/SA1.jpg","","","","","","","false","null","","","noS.png","","",""
"image-slider-2AFC","183","811194","0.0-41.5-1.5","3763","","","","68","","","","","","","","sizeS.png","3110","68",""
"html-keyboard-response","184","812006","0.0-41.5-2.5","null","","","","","","","null","","","","","","","",""
"image-selector-fb","185","814316","0.0-41.6-0.6","1804","pics2/SW3.jpg,pics2/SW5.jpg","","","","","","","false","0","","","sizeS.png","","",""
"image-slider-2AFC","186","818381","0.0-41.6-1.6","4063","","","","-46","","","","","","","","heartS.png","3403","-46",""
"html-keyboard-response","187","819186","0.0-41.6-2.6","null","","","","","","","null","","","","","","","",""
"image-selector-fb","188","822198","0.0-41.7-0.7","null","pics2/VE4.jpg,pics2/VE6.jpg","","","","","","","false","null","","","noS.png","","",""
"image-slider-2AFC","189","826115","0.0-41.7-1.7","3916","","","","-30","","","","","","","","sizeS.png","3286","-30",""
"html-keyboard-response","190","826975","0.0-41.7-2.7","null","","","","","","","null","","","","","","","",""
"image-selector-fb","191","828822","0.0-41.8-0.8","1344","pics2/SA1.jpg,pics2/SA6.jpg","","","","","","","false","0","","","sizeS.png","","",""
"image-slider-2AFC","192","832189","0.0-41.8-1.8","3365","","","","-39","","","","","","","","heartS.png","2739","-39",""
"html-keyboard-response","193","833041","0.0-41.8-2.8","null","","","","","","","null","","","","","","","",""
"image-selector-fb","194","834726","0.0-41.9-0.9","1183","pics2/SA1.jpg,pics2/VE6.jpg","","","","","","","false","0","","","heartS.png","","",""
"image-slider-2AFC","195","836550","0.0-41.9-1.9","1821","","","","-95","","","","","","","","heartS.png","949","-95",""
"html-keyboard-response","196","837262","0.0-41.9-2.9","null","","","","","","","null","","","","","","","",""
"image-selector-fb","197","839256","0.0-41.10-0.10","1491","pics2/SA6.jpg,pics2/SW4.jpg","","","","","","","false","0","","","heartS.png","","",""
"image-slider-2AFC","198","841331","0.0-41.10-1.10","2073","","","","-45","","","","","","","","heartS.png","1332","-45",""
"html-keyboard-response","199","842132","0.0-41.10-2.10","null","","","","","","","null","","","","","","","",""
"image-selector-fb","200","843917","0.0-41.11-0.11","1281","pics2/SW1.jpg,pics2/SA2.jpg","","","","","","","false","0","","","heartS.png","","",""
"image-slider-2AFC","201","848769","0.0-41.11-1.11","4850","","","","-83","","","","","","","","sizeS.png","4051","-83",""
"html-keyboard-response","202","849523","0.0-41.11-2.11","null","","","","","","","null","","","","","","","",""
"image-selector-fb","203","852544","0.0-41.12-0.12","2514","pics2/SA2.jpg,pics2/SA4.jpg","","","","","","","false","0","","","sizeS.png","","",""
"image-slider-2AFC","204","855512","0.0-41.12-1.12","2965","","","","-19","","","","","","","","sizeS.png","2199","-19",""
"html-keyboard-response","205","856223","0.0-41.12-2.12","null","","","","","","","null","","","","","","","",""
"image-selector-fb","206","858072","0.0-41.13-0.13","1345","pics2/SA6.jpg,pics2/SW1.jpg","","","","","","","true","1","","","sizeS.png","","",""
"image-slider-2AFC","207","861455","0.0-41.13-1.13","3382","","","","62","","","","","","","","heartS.png","2671","62",""
"html-keyboard-response","208","862268","0.0-41.13-2.13","null","","","","","","","null","","","","","","","",""
"image-selector-fb","209","865274","0.0-41.14-0.14","null","pics2/VE4.jpg,pics2/SW5.jpg","","","","","","","false","null","","","noS.png","","",""
"image-slider-2AFC","210","870059","0.0-41.14-1.14","4784","","","","48","","","","","","","","heartS.png","2644","48",""
"html-keyboard-response","211","870816","0.0-41.14-2.14","null","","","","","","","null","","","","","","","",""
"image-selector-fb","212","872524","0.0-41.15-0.15","1204","pics2/SA6.jpg,pics2/VE6.jpg","","","","","","","false","0","","","heartS.png","","",""
"image-slider-2AFC","213","875753","0.0-41.15-1.15","3227","","","","1","","","","","","","","sizeS.png","2783","1",""
"html-keyboard-response","214","876614","0.0-41.15-2.15","null","","","","","","","null","","","","","","","",""
"image-selector-fb","215","879108","0.0-41.16-0.16","1988","pics2/SA3.jpg,pics2/SA4.jpg","","","","","","","false","0","","","sizeS.png","","",""
"image-slider-2AFC","216","881091","0.0-41.16-1.16","1979","","","","-38","","","","","","","","sizeS.png","1356","-38",""
"html-keyboard-response","217","881945","0.0-41.16-2.16","null","","","","","","","null","","","","","","","",""
"image-selector-fb","218","884029","0.0-41.17-0.17","1580","pics2/SA4.jpg,pics2/SW3.jpg","","","","","","","true","1","","","heartS.png","","",""
"image-slider-2AFC","219","886397","0.0-41.17-1.17","2366","","","","42","","","","","","","","heartS.png","1752","42",""
"html-keyboard-response","220","887104","0.0-41.17-2.17","null","","","","","","","null","","","","","","","",""
"image-selector-fb","221","889690","0.0-41.18-0.18","2078","pics2/VE6.jpg,pics2/VE4.jpg","","","","","","","false","0","","","sizeS.png","","",""
"image-slider-2AFC","222","894199","0.0-41.18-1.18","4508","","","","41","","","","","","","","heartS.png","3854","41",""
"html-keyboard-response","223","894902","0.0-41.18-2.18","null","","","","","","","null","","","","","","","",""
"image-selector-fb","224","897910","0.0-41.19-0.19","null","pics2/SW1.jpg,pics2/SW5.jpg","","","","","","","false","null","","","noS.png","","",""
"image-slider-2AFC","225","902017","0.0-41.19-1.19","4105","","","","-51","","","","","","","","sizeS.png","3467","-51",""
"html-keyboard-response","226","902773","0.0-41.19-2.19","null","","","","","","","null","","","","","","","",""
"image-selector-fb","227","905782","0.0-41.20-0.20","null","pics2/SA6.jpg,pics2/SA4.jpg","","","","","","","false","null","","","noS.png","","",""
"image-slider-2AFC","228","909187","0.0-41.20-1.20","3403","","","","63","","","","","","","","heartS.png","2798","63",""
"html-keyboard-response","229","909944","0.0-41.20-2.20","null","","","","","","","null","","","","","","","",""
"image-selector-fb","230","912955","0.0-41.21-0.21","null","pics2/SA6.jpg,pics2/VE6.jpg","","","","","","","false","null","","","noS.png","","",""
"image-slider-2AFC","231","916399","0.0-41.21-1.21","3443","","","","-64","","","","","","","","heartS.png","2740","-64",""
"html-keyboard-response","232","917110","0.0-41.21-2.21","null","","","","","","","null","","","","","","","",""
"image-selector-fb","233","919957","0.0-41.22-0.22","2340","pics2/SA2.jpg,pics2/SA3.jpg","","","","","","","true","1","","","sizeS.png","","",""
"image-slider-2AFC","234","922586","0.0-41.22-1.22","2628","","","","44","","","","","","","","sizeS.png","1990","44",""
"html-keyboard-response","235","923346","0.0-41.22-2.22","null","","","","","","","null","","","","","","","",""
"image-selector-fb","236","925279","0.0-41.23-0.23","1427","pics2/SW1.jpg,pics2/SA1.jpg","","","","","","","true","1","","","heartS.png","","",""
"image-slider-2AFC","237","927440","0.0-41.23-1.23","2159","","","","58","","","","","","","","heartS.png","1522","58",""
"html-keyboard-response","238","928147","0.0-41.23-2.23","null","","","","","","","null","","","","","","","",""
"image-selector-fb","239","929936","0.0-41.24-0.24","1286","pics2/SW5.jpg,pics2/VE6.jpg","","","","","","","false","0","","","heartS.png","","",""
"image-slider-2AFC","240","931914","0.0-41.24-1.24","1977","","","","-53","","","","","","","","heartS.png","1137","-53",""
"html-keyboard-response","241","932670","0.0-41.24-2.24","null","","","","","","","null","","","","","","","",""
"image-selector-fb","242","934549","0.0-41.25-0.25","1375","pics2/SW1.jpg,pics2/SW3.jpg","","","","","","","false","0","","","heartS.png","","",""
"image-slider-2AFC","243","936510","0.0-41.25-1.25","1960","","","","-57","","","","","","","","heartS.png","1274","-57",""
"html-keyboard-response","244","937363","0.0-41.25-2.25","null","","","","","","","null","","","","","","","",""
"image-selector-fb","245","940371","0.0-41.26-0.26","null","pics2/SA3.jpg,pics2/SW6.jpg","","","","","","","false","null","","","noS.png","","",""
"image-slider-2AFC","246","943627","0.0-41.26-1.26","3254","","","","-32","","","","","","","","sizeS.png","2699","-32",""
"html-keyboard-response","247","944484","0.0-41.26-2.26","null","","","","","","","null","","","","","","","",""
"image-selector-fb","248","947490","0.0-41.27-0.27","null","pics2/VE4.jpg,pics2/SW1.jpg","","","","","","","false","null","","","noS.png","","",""
"image-slider-2AFC","249","950668","0.0-41.27-1.27","3176","","","","59","","","","","","","","sizeS.png","2326","59",""
"html-keyboard-response","250","951473","0.0-41.27-2.27","null","","","","","","","null","","","","","","","",""
"image-selector-fb","251","954479","0.0-41.28-0.28","null","pics2/SW5.jpg,pics2/SA4.jpg","","","","","","","false","null","","","noS.png","","",""
"image-slider-2AFC","252","956572","0.0-41.28-1.28","2092","","","","58","","","","","","","","heartS.png","1422","58",""
"html-keyboard-response","253","957434","0.0-41.28-2.28","null","","","","","","","null","","","","","","","",""
"image-selector-fb","254","959732","0.0-41.29-0.29","1794","pics2/SA6.jpg,pics2/SW6.jpg","","","","","","","true","1","","","heartS.png","","",""
"image-slider-2AFC","255","964737","0.0-41.29-1.29","null","","","","null","","","","","","","","sizeS.png","4553","-38",""
"html-keyboard-response","256","965493","0.0-41.29-2.29","null","","","","","","","null","","","","","","","",""
"image-selector-fb","257","968504","0.0-41.30-0.30","null","pics2/SA3.jpg,pics2/SA4.jpg","","","","","","","false","null","","","noS.png","","",""
"image-slider-2AFC","258","972104","0.0-41.30-1.30","3598","","","","43","","","","","","","","heartS.png","3016","43",""
"html-keyboard-response","259","972864","0.0-41.30-2.30","null","","","","","","","null","","","","","","","",""
"image-selector-fb","260","975113","0.0-41.31-0.31","1742","pics2/VE4.jpg,pics2/SW6.jpg","","","","","","","true","1","","","heartS.png","","",""
"image-slider-2AFC","261","979518","0.0-41.31-1.31","4403","","","","-39","","","","","","","","sizeS.png","1506,3790","51,-39",""
"html-keyboard-response","262","980378","0.0-41.31-2.31","null","","","","","","","null","","","","","","","",""
"image-selector-fb","263","982338","0.0-41.32-0.32","1456","pics2/SW1.jpg,pics2/VE4.jpg","","","","","","","false","0","","","heartS.png","","",""
"image-slider-2AFC","264","984493","0.0-41.32-1.32","2153","","","","-74","","","","","","","","sizeS.png","1451","-74",""
"html-keyboard-response","265","985347","0.0-41.32-2.32","null","","","","","","","null","","","","","","","",""
"image-selector-fb","266","988177","0.0-41.33-0.33","2327","pics2/SW4.jpg,pics2/SW3.jpg","","","","","","","true","1","","","sizeS.png","","",""
"image-slider-2AFC","267","991762","0.0-41.33-1.33","3584","","","","41","","","","","","","","heartS.png","1985","41",""
"html-keyboard-response","268","992622","0.0-41.33-2.33","null","","","","","","","null","","","","","","","",""
"image-selector-fb","269","994321","0.0-41.34-0.34","1191","pics2/SW5.jpg,pics2/SA1.jpg","","","","","","","true","1","","","sizeS.png","","",""
"image-slider-2AFC","270","996900","0.0-41.34-1.34","2577","","","","80","","","","","","","","sizeS.png","1641","80",""
"html-keyboard-response","271","997658","0.0-41.34-2.34","null","","","","","","","null","","","","","","","",""
"image-selector-fb","272","1000535","0.0-41.35-0.35","2373","pics2/SW1.jpg,pics2/SW5.jpg","","","","","","","false","0","","","heartS.png","","",""
"image-slider-2AFC","273","1002593","0.0-41.35-1.35","2056","","","","-72","","","","","","","","sizeS.png","1365","-72",""
"html-keyboard-response","274","1003356","0.0-41.35-2.35","null","","","","","","","null","","","","","","","",""
"image-selector-fb","275","1005905","0.0-41.36-0.36","2047","pics2/SA3.jpg,pics2/SA1.jpg","","","","","","","true","1","","","sizeS.png","","",""
"image-slider-2AFC","276","1008433","0.0-41.36-1.36","2526","","","","44","","","","","","","","sizeS.png","1857","44",""
"html-keyboard-response","277","1009242","0.0-41.36-2.36","null","","","","","","","null","","","","","","","",""
"image-selector-fb","278","1012250","0.0-41.37-0.37","null","pics2/SA2.jpg,pics2/VE6.jpg","","","","","","","false","null","","","noS.png","","",""
"image-slider-2AFC","279","1016146","0.0-41.37-1.37","3894","","","","58","","","","","","","","sizeS.png","3167","58",""
"html-keyboard-response","280","1016957","0.0-41.37-2.37","null","","","","","","","null","","","","","","","",""
"image-selector-fb","281","1019967","0.0-41.38-0.38","null","pics2/VE4.jpg,pics2/SA2.jpg","","","","","","","false","null","","","noS.png","","",""
"image-slider-2AFC","282","1023898","0.0-41.38-1.38","3929","","","","44","","","","","","","","heartS.png","2984","44",""
"html-keyboard-response","283","1024705","0.0-41.38-2.38","null","","","","","","","null","","","","","","","",""
"image-selector-fb","284","1027037","0.0-41.39-0.39","1823","pics2/SW6.jpg,pics2/SW1.jpg","","","","","","","true","1","","","sizeS.png","","",""
"image-slider-2AFC","285","1030254","0.0-41.39-1.39","3216","","","","45","","","","","","","","heartS.png","2319","45",""
"html-keyboard-response","286","1030958","0.0-41.39-2.39","null","","","","","","","null","","","","","","","",""
"image-selector-fb","287","1033731","0.0-41.40-0.40","2267","pics2/SW6.jpg,pics2/VE4.jpg","","","","","","","true","1","","","sizeS.png","","",""
"image-slider-2AFC","288","1037135","0.0-41.40-1.40","3401","","","","34","","","","","","","","sizeS.png","2247","34",""
"html-keyboard-response","289","1037894","0.0-41.40-2.40","null","","","","","","","null","","","","","","","",""
"image-selector-fb","290","1039813","0.0-41.41-0.41","1412","pics2/SW5.jpg,pics2/SA2.jpg","","","","","","","false","0","","","heartS.png","","",""
"image-slider-2AFC","291","1041722","0.0-41.41-1.41","1907","","","","-65","","","","","","","","heartS.png","1285","-65",""
"html-keyboard-response","292","1042579","0.0-41.41-2.41","null","","","","","","","null","","","","","","","",""
"image-selector-fb","293","1046486","0.0-41.42-0.42","3399","pics2/VE4.jpg,pics2/SA4.jpg","","","","","","","false","0","","","sizeS.png","","",""
"image-slider-2AFC","294","1049242","0.0-41.42-1.42","2755","","","","74","","","","","","","","heartS.png","1706","74",""
"html-keyboard-response","295","1049997","0.0-41.42-2.42","null","","","","","","","null","","","","","","","",""
"image-selector-fb","296","1053019","0.0-41.43-0.43","2511","pics2/SW4.jpg,pics2/VE4.jpg","","","","","","","false","0","","","sizeS.png","","",""
"image-slider-2AFC","297","1056398","0.0-41.43-1.43","3377","","","","-36","","","","","","","","sizeS.png","2691","-36",""
"html-keyboard-response","298","1057200","0.0-41.43-2.43","null","","","","","","","null","","","","","","","",""
"image-selector-fb","299","1058942","0.0-41.44-0.44","1240","pics2/VE4.jpg,pics2/SW3.jpg","","","","","","","true","1","","","heartS.png","","",""
"image-slider-2AFC","300","1061138","0.0-41.44-1.44","2195","","","","77","","","","","","","","heartS.png","1396","77",""
"html-keyboard-response","301","1061846","0.0-41.44-2.44","null","","","","","","","null","","","","","","","",""
"image-selector-fb","302","1063392","0.0-41.45-0.45","1044","pics2/SW1.jpg,pics2/SW6.jpg","","","","","","","false","0","","","heartS.png","","",""
"image-slider-2AFC","303","1065321","0.0-41.45-1.45","1928","","","","-52","","","","","","","","sizeS.png","1096","-52",""
"html-keyboard-response","304","1066129","0.0-41.45-2.45","null","","","","","","","null","","","","","","","",""
"image-selector-fb","305","1068752","0.0-41.46-0.46","2115","pics2/SA2.jpg,pics2/SW4.jpg","","","","","","","false","0","","","sizeS.png","","",""
"image-slider-2AFC","306","1072194","0.0-41.46-1.46","3439","","","","50","","","","","","","","sizeS.png","2746","50",""
"html-keyboard-response","307","1072956","0.0-41.46-2.46","null","","","","","","","null","","","","","","","",""
"image-selector-fb","308","1075578","0.0-41.47-0.47","2120","pics2/SA4.jpg,pics2/SA2.jpg","","","","","","","false","0","","","heartS.png","","",""
"image-slider-2AFC","309","1078985","0.0-41.47-1.47","3406","","","","30","","","","","","","","sizeS.png","2890","30",""
"html-keyboard-response","310","1079794","0.0-41.47-2.47","null","","","","","","","null","","","","","","","",""
"image-selector-fb","311","1082499","0.0-41.48-0.48","2202","pics2/SA2.jpg,pics2/VE6.jpg","","","","","","","true","1","","","sizeS.png","","",""
"image-slider-2AFC","312","1084808","0.0-41.48-1.48","2308","","","","-40","","","","","","","","heartS.png","1283","-40",""
"html-keyboard-response","313","1085663","0.0-41.48-2.48","null","","","","","","","null","","","","","","","",""
"image-selector-fb","314","1087747","0.0-41.49-0.49","1582","pics2/SA3.jpg,pics2/SW1.jpg","","","","","","","true","1","","","sizeS.png","","",""
"image-slider-2AFC","315","1089839","0.0-41.49-1.49","2091","","","","44","","","","","","","","sizeS.png","1381","44",""
"html-keyboard-response","316","1090642","0.0-41.49-2.49","null","","","","","","","null","","","","","","","",""
"image-selector-fb","317","1093655","0.0-41.50-0.50","null","pics2/SA6.jpg,pics2/SW6.jpg","","","","","","","false","null","","","noS.png","","",""
"image-slider-2AFC","318","1097792","0.0-41.50-1.50","4135","","","","-32","","","","","","","","sizeS.png","3521","-32",""
"html-keyboard-response","319","1098500","0.0-41.50-2.50","null","","","","","","","null","","","","","","","",""
"image-selector-fb","320","1102002","0.0-41.51-0.51","2999","pics2/SW6.jpg,pics2/SA6.jpg","","","","","","","true","1","","","sizeS.png","","",""
"image-slider-2AFC","321","1105852","0.0-41.51-1.51","3849","","","","8","","","","","","","","sizeS.png","3446","8",""
"html-keyboard-response","322","1106614","0.0-41.51-2.51","null","","","","","","","null","","","","","","","",""
"image-selector-fb","323","1109621","0.0-41.52-0.52","null","pics2/SA6.jpg,pics2/SA2.jpg","","","","","","","false","null","","","noS.png","","",""
"image-slider-2AFC","324","1113073","0.0-41.52-1.52","3450","","","","12","","","","","","","","sizeS.png","2981","12",""
"html-keyboard-response","325","1113781","0.0-41.52-2.52","null","","","","","","","null","","","","","","","",""
"image-selector-fb","326","1117776","0.0-41.53-0.53","3489","pics2/VE6.jpg,pics2/SA6.jpg","","","","","","","true","1","","","sizeS.png","","",""
"image-slider-2AFC","327","1121156","0.0-41.53-1.53","3378","","","","54","","","","","","","","heartS.png","2069,2618","39,54",""
"html-keyboard-response","328","1121916","0.0-41.53-2.53","null","","","","","","","null","","","","","","","",""
"image-selector-fb","329","1124921","0.0-41.54-0.54","null","pics2/VE6.jpg,pics2/SA1.jpg","","","","","","","false","null","","","noS.png","","",""
"image-slider-2AFC","330","1128198","0.0-41.54-1.54","3274","","","","60","","","","","","","","heartS.png","2468","60",""
"html-keyboard-response","331","1128950","0.0-41.54-2.54","null","","","","","","","null","","","","","","","",""
"image-selector-fb","332","1131522","0.0-41.55-0.55","2064","pics2/SW4.jpg,pics2/SA1.jpg","","","","","","","true","1","","","sizeS.png","","",""
"image-slider-2AFC","333","1134029","0.0-41.55-1.55","2506","","","","67","","","","","","","","heartS.png","1762","67",""
"html-keyboard-response","334","1134734","0.0-41.55-2.55","null","","","","","","","null","","","","","","","",""
"image-selector-fb","335","1137218","0.0-41.56-0.56","1980","pics2/SW4.jpg,pics2/SA3.jpg","","","","","","","true","1","","","heartS.png","","",""
"image-slider-2AFC","336","1140377","0.0-41.56-1.56","3157","","","","61","","","","","","","","heartS.png","1009,2446","-3,61",""
"html-keyboard-response","337","1141087","0.0-41.56-2.56","null","","","","","","","null","","","","","","","",""
"image-selector-fb","338","1143114","0.0-41.57-0.57","1525","pics2/SA2.jpg,pics2/VE4.jpg","","","","","","","true","1","","","sizeS.png","","",""
"image-slider-2AFC","339","1145399","0.0-41.57-1.57","2283","","","","-44","","","","","","","","heartS.png","1613","-44",""
"html-keyboard-response","340","1146209","0.0-41.57-2.57","null","","","","","","","null","","","","","","","",""
"image-selector-fb","341","1149222","0.0-41.58-0.58","null","pics2/SA2.jpg,pics2/SW5.jpg","","","","","","","false","null","","","noS.png","","",""
"image-slider-2AFC","342","1151396","0.0-41.58-1.58","2173","","","","61","","","","","","","","heartS.png","1316","61",""
"html-keyboard-response","343","1152103","0.0-41.58-2.58","null","","","","","","","null","","","","","","","",""
"image-selector-fb","344","1155113","0.0-41.59-0.59","null","pics2/SW3.jpg,pics2/SA1.jpg","","","","","","","false","null","","","noS.png","","",""
"image-slider-2AFC","345","1159381","0.0-41.59-1.59","4266","","","","26","","","","","","","","sizeS.png","2223,3345,3725","60,49,26",""
"html-keyboard-response","346","1160242","0.0-41.59-2.59","null","","","","","","","null","","","","","","","",""
"image-selector-fb","347","1163253","0.0-41.60-0.60","null","pics2/SW1.jpg,pics2/SA1.jpg","","","","","","","false","null","","","noS.png","","",""
"image-slider-2AFC","348","1168255","0.0-41.60-1.60","null","","","","null","","","","","","","","sizeS.png","","",""
"html-keyboard-response","349","1168958","0.0-41.60-2.60","null","","","","","","","null","","","","","","","",""
"image-selector-fb","350","1171013","0.0-41.61-0.61","1552","pics2/SW4.jpg,pics2/SW5.jpg","","","","","","","true","1","","","sizeS.png","","",""
"image-slider-2AFC","351","1173719","0.0-41.61-1.61","2704","","","","15","","","","","","","","sizeS.png","2075","15",""
"html-keyboard-response","352","1174575","0.0-41.61-2.61","null","","","","","","","null","","","","","","","",""
"image-selector-fb","353","1177600","0.0-41.62-0.62","2518","pics2/SA6.jpg,pics2/SA4.jpg","","","","","","","false","0","","","heartS.png","","",""
"image-slider-2AFC","354","1180455","0.0-41.62-1.62","2852","","","","-22","","","","","","","","heartS.png","2303","-22",""
"html-keyboard-response","355","1181208","0.0-41.62-2.62","null","","","","","","","null","","","","","","","",""
"image-selector-fb","356","1184214","0.0-41.63-0.63","null","pics2/SW6.jpg,pics2/SA1.jpg","","","","","","","false","null","","","noS.png","","",""
"image-slider-2AFC","357","1186980","0.0-41.63-1.63","2763","","","","58","","","","","","","","heartS.png","2126","58",""
"html-keyboard-response","358","1187690","0.0-41.63-2.63","null","","","","","","","null","","","","","","","",""
"image-selector-fb","359","1190698","0.0-41.64-0.64","null","pics2/SA4.jpg,pics2/SA1.jpg","","","","","","","false","null","","","noS.png","","",""
"image-slider-2AFC","360","1194278","0.0-41.64-1.64","3579","","","","-46","","","","","","","","heartS.png","1294,2223","64,-46",""
"html-keyboard-response","361","1195083","0.0-41.64-2.64","null","","","","","","","null","","","","","","","",""
"image-selector-fb","362","1197181","0.0-41.65-0.65","1593","pics2/SA2.jpg,pics2/SW5.jpg","","","","","","","true","1","","","sizeS.png","","",""
"image-slider-2AFC","363","1199632","0.0-41.65-1.65","2448","","","","52","","","","","","","","heartS.png","1786","52",""
"html-keyboard-response","364","1200383","0.0-41.65-2.65","null","","","","","","","null","","","","","","","",""
"pavlovia","365","1200393","0.0-42.0","","","","","","","","","","","","","","","",""
"html-keyboard-response","366","1205395","0.0-43.0","null","<div style='width: 700px;'> <font size=6><b>SHORT BREAK</font></b><br><br><i> Please wait 5 seconds to continue</i></div> ","","","","","","null","","","","","","","",""
"pavlovia","367","1205397","0.0-44.0","","","","","","","","","","","","","","","",""
"html-button-response","368","1364090","0.0-45.0","158692","<div style='width: 700px;'> <font size=6><b>BLOCK 2</font></b><br><br>Press the button whenever you feel ready to start the second block (there are 3 in total)</div>","0","","","","","","","","","","","","",""
"image-selector-fb","369","1366760","0.0-46.0-0.0","2163","pics2/SW3.jpg,pics2/SA4.jpg","","","","","","","false","0","","","sizeS.png","","",""
"image-slider-2AFC","370","1369703","0.0-46.0-1.0","2942","","","","-32","","","","","","","","sizeS.png","1698","-32",""
"html-keyboard-response","371","1370411","0.0-46.0-2.0","null","","","","","","","null","","","","","","","",""
"image-selector-fb","372","1373426","0.0-46.1-0.1","null","pics2/VE4.jpg,pics2/SA3.jpg","","","","","","","false","null","","","noS.png","","",""
"image-slider-2AFC","373","1376236","0.0-46.1-1.1","2809","","","","78","","","","","","","","heartS.png","2194","78",""
"html-keyboard-response","374","1377097","0.0-46.1-2.1","null","","","","","","","null","","","","","","","",""
"image-selector-fb","375","1379132","0.0-46.2-0.2","1530","pics2/SW5.jpg,pics2/SA3.jpg","","","","","","","true","1","","","heartS.png","","",""
"image-slider-2AFC","376","1381570","0.0-46.2-1.2","2436","","","","-35","","","","","","","","sizeS.png","1419","-35",""
"html-keyboard-response","377","1382379","0.0-46.2-2.2","null","","","","","","","null","","","","","","","",""
"image-selector-fb","378","1385050","0.0-46.3-0.3","2168","pics2/SA3.jpg,pics2/VE4.jpg","","","","","","","false","0","","","sizeS.png","","",""
"image-slider-2AFC","379","1387160","0.0-46.3-1.3","2109","","","","-69","","","","","","","","heartS.png","1462","-69",""
"html-keyboard-response","380","1387865","0.0-46.3-2.3","null","","","","","","","null","","","","","","","",""
"image-selector-fb","381","1390875","0.0-46.4-0.4","null","pics2/SA6.jpg,pics2/SA3.jpg","","","","","","","false","null","","","noS.png","","",""
"image-slider-2AFC","382","1393231","0.0-46.4-1.4","2354","","","","43","","","","","","","","sizeS.png","1627","43",""
"html-keyboard-response","383","1393985","0.0-46.4-2.4","null","","","","","","","null","","","","","","","",""
"image-selector-fb","384","1396269","0.0-46.5-0.5","1780","pics2/SA3.jpg,pics2/SA6.jpg","","","","","","","false","0","","","sizeS.png","","",""
"image-slider-2AFC","385","1398481","0.0-46.5-1.5","2211","","","","-53","","","","","","","","heartS.png","1372","-53",""
"html-keyboard-response","386","1399291","0.0-46.5-2.5","null","","","","","","","null","","","","","","","",""
"image-selector-fb","387","1401460","0.0-46.6-0.6","1660","pics2/VE6.jpg,pics2/SA4.jpg","","","","","","","false","0","","","sizeS.png","","",""
"image-slider-2AFC","388","1403295","0.0-46.6-1.6","1833","","","","-52","","","","","","","","sizeS.png","1188","-52",""
"html-keyboard-response","389","1404006","0.0-46.6-2.6","null","","","","","","","null","","","","","","","",""
"image-selector-fb","390","1406025","0.0-46.7-0.7","1515","pics2/SW5.jpg,pics2/SW3.jpg","","","","","","","true","1","","","heartS.png","","",""
"image-slider-2AFC","391","1408431","0.0-46.7-1.7","2405","","","","40","","","","","","","","sizeS.png","1800","40",""
"html-keyboard-response","392","1409194","0.0-46.7-2.7","null","","","","","","","null","","","","","","","",""
"image-selector-fb","393","1411899","0.0-46.8-0.8","2201","pics2/SW3.jpg,pics2/SA1.jpg","","","","","","","true","1","","","sizeS.png","","",""
"image-slider-2AFC","394","1414942","0.0-46.8-1.8","3041","","","","23","","","","","","","","sizeS.png","909","23",""
"html-keyboard-response","395","1415648","0.0-46.8-2.8","null","","","","","","","null","","","","","","","",""
"image-selector-fb","396","1417899","0.0-46.9-0.9","1746","pics2/SA2.jpg,pics2/SW3.jpg","","","","","","","true","1","","","sizeS.png","","",""
"image-slider-2AFC","397","1420709","0.0-46.9-1.9","2808","","","","43","","","","","","","","sizeS.png","1871","43",""
"html-keyboard-response","398","1421416","0.0-46.9-2.9","null","","","","","","","null","","","","","","","",""
"image-selector-fb","399","1423780","0.0-46.10-0.10","1860","pics2/SA6.jpg,pics2/SW3.jpg","","","","","","","false","0","","","heartS.png","","",""
"image-slider-2AFC","400","1427005","0.0-46.10-1.10","3224","","","","-15","","","","","","","","heartS.png","1954,2649","-36,-15",""
"html-keyboard-response","401","1427811","0.0-46.10-2.10","null","","","","","","","null","","","","","","","",""
"image-selector-fb","402","1429865","0.0-46.11-0.11","1550","pics2/SA1.jpg,pics2/SW5.jpg","","","","","","","false","0","","","heartS.png","","",""
"image-slider-2AFC","403","1431575","0.0-46.11-1.11","1707","","","","-59","","","","","","","","heartS.png","1060","-59",""
"html-keyboard-response","404","1432282","0.0-46.11-2.11","null","","","","","","","null","","","","","","","",""
"image-selector-fb","405","1434065","0.0-46.12-0.12","1278","pics2/SA6.jpg,pics2/SA2.jpg","","","","","","","false","0","","","heartS.png","","",""
"image-slider-2AFC","406","1437826","0.0-46.12-1.12","3760","","","","-26","","","","","","","","sizeS.png","2872","-26",""
"html-keyboard-response","407","1438680","0.0-46.12-2.12","null","","","","","","","null","","","","","","","",""
"image-selector-fb","408","1440108","0.0-46.13-0.13","922","pics2/SW1.jpg,pics2/SW4.jpg","","","","","","","false","0","","","heartS.png","","",""
"image-slider-2AFC","409","1442496","0.0-46.13-1.13","2387","","","","-46","","","","","","","","heartS.png","1409","-46",""
"html-keyboard-response","410","1443351","0.0-46.13-2.13","null","","","","","","","null","","","","","","","",""
"image-selector-fb","411","1445495","0.0-46.14-0.14","1639","pics2/VE6.jpg,pics2/SA1.jpg","","","","","","","true","1","","","sizeS.png","","",""
"image-slider-2AFC","412","1448651","0.0-46.14-1.14","3155","","","","30","","","","","","","","sizeS.png","1111","30",""
"html-keyboard-response","413","1449459","0.0-46.14-2.14","null","","","","","","","null","","","","","","","",""
"image-selector-fb","414","1452019","0.0-46.15-0.15","2057","pics2/SW5.jpg,pics2/SA4.jpg","","","","","","","true","1","","","heartS.png","","",""
"image-slider-2AFC","415","1454862","0.0-46.15-1.15","2842","","","","-29","","","","","","","","sizeS.png","2298","-29",""
"html-keyboard-response","416","1455721","0.0-46.15-2.15","null","","","","","","","null","","","","","","","",""
"image-selector-fb","417","1458295","0.0-46.16-0.16","2071","pics2/SW5.jpg,pics2/VE4.jpg","","","","","","","false","0","","","heartS.png","","",""
"image-slider-2AFC","418","1460475","0.0-46.16-1.16","2179","","","","-48","","","","","","","","heartS.png","1483","-48",""
"html-keyboard-response","419","1461182","0.0-46.16-2.16","null","","","","","","","null","","","","","","","",""
"image-selector-fb","420","1464192","0.0-46.17-0.17","2504","pics2/SW6.jpg,pics2/SW3.jpg","","","","","","","true","1","","","sizeS.png","","",""
"image-slider-2AFC","421","1467342","0.0-46.17-1.17","3148","","","","53","","","","","","","","heartS.png","1742,2567","27,53",""
"html-keyboard-response","422","1468198","0.0-46.17-2.17","null","","","","","","","null","","","","","","","",""
"image-selector-fb","423","1471009","0.0-46.18-0.18","2294","pics2/SA6.jpg,pics2/VE4.jpg","","","","","","","false","0","","","heartS.png","","",""
"image-slider-2AFC","424","1473889","0.0-46.18-1.18","2880","","","","32","","","","","","","","sizeS.png","2322","32",""
"html-keyboard-response","425","1474644","0.0-46.18-2.18","null","","","","","","","null","","","","","","","",""
"image-selector-fb","426","1476588","0.0-46.19-0.19","1441","pics2/SW4.jpg,pics2/SW1.jpg","","","","","","","true","1","","","sizeS.png","","",""
"image-slider-2AFC","427","1478658","0.0-46.19-1.19","2069","","","","30","","","","","","","","heartS.png","969","30",""
"html-keyboard-response","428","1479413","0.0-46.19-2.19","null","","","","","","","null","","","","","","","",""
"image-selector-fb","429","1481568","0.0-46.20-0.20","1652","pics2/SA1.jpg,pics2/SA2.jpg","","","","","","","false","0","","","heartS.png","","",""
"image-slider-2AFC","430","1484093","0.0-46.20-1.20","2524","","","","-62","","","","","","","","heartS.png","877,1457","-53,-62",""
"html-keyboard-response","431","1484952","0.0-46.20-2.20","null","","","","","","","null","","","","","","","",""
"image-selector-fb","432","1487375","0.0-46.21-0.21","1918","pics2/SA2.jpg,pics2/SW6.jpg","","","","","","","true","1","","","sizeS.png","","",""
"image-slider-2AFC","433","1489311","0.0-46.21-1.21","1934","","","","5","","","","","","","","heartS.png","1426","5",""
"html-keyboard-response","434","1490072","0.0-46.21-2.21","null","","","","","","","null","","","","","","","",""
"image-selector-fb","435","1493083","0.0-46.22-0.22","null","pics2/SW6.jpg,pics2/SW5.jpg","","","","","","","false","null","","","noS.png","","",""
"image-slider-2AFC","436","1496935","0.0-46.22-1.22","3850","","","","48","","","","","","","","heartS.png","2873","48",""
"html-keyboard-response","437","1497736","0.0-46.22-2.22","null","","","","","","","null","","","","","","","",""
"image-selector-fb","438","1500742","0.0-46.23-0.23","null","pics2/VE6.jpg,pics2/SW5.jpg","","","","","","","false","null","","","noS.png","","",""
"image-slider-2AFC","439","1505674","0.0-46.23-1.23","4930","","","","69","","","","","","","","heartS.png","2478,3631","32,69",""
"html-keyboard-response","440","1506430","0.0-46.23-2.23","null","","","","","","","null","","","","","","","",""
"image-selector-fb","441","1508454","0.0-46.24-0.24","1518","pics2/SW6.jpg,pics2/SA2.jpg","","","","","","","false","0","","","heartS.png","","",""
"image-slider-2AFC","442","1511416","0.0-46.24-1.24","2959","","","","-11","","","","","","","","sizeS.png","2491","-11",""
"html-keyboard-response","443","1512219","0.0-46.24-2.24","null","","","","","","","null","","","","","","","",""
"image-selector-fb","444","1515228","0.0-46.25-0.25","null","pics2/SW3.jpg,pics2/VE6.jpg","","","","","","","false","null","","","noS.png","","",""
"image-slider-2AFC","445","1518151","0.0-46.25-1.25","2920","","","","-66","","","","","","","","heartS.png","2112","-66",""
"html-keyboard-response","446","1518903","0.0-46.25-2.25","null","","","","","","","null","","","","","","","",""
"image-selector-fb","447","1521317","0.0-46.26-0.26","1912","pics2/SA4.jpg,pics2/SA1.jpg","","","","","","","true","1","","","sizeS.png","","",""
"image-slider-2AFC","448","1524272","0.0-46.26-1.26","2954","","","","-45","","","","","","","","heartS.png","1870,2372","-34,-45",""
"html-keyboard-response","449","1525129","0.0-46.26-2.26","null","","","","","","","null","","","","","","","",""
"image-selector-fb","450","1528137","0.0-46.27-0.27","null","pics2/SA2.jpg,pics2/SA1.jpg","","","","","","","false","null","","","noS.png","","",""
"image-slider-2AFC","451","1531152","0.0-46.27-1.27","3013","","","","38","","","","","","","","heartS.png","1772","38",""
"html-keyboard-response","452","1532005","0.0-46.27-2.27","null","","","","","","","null","","","","","","","",""
"image-selector-fb","453","1533797","0.0-46.28-0.28","1289","pics2/SA4.jpg,pics2/SW4.jpg","","","","","","","false","0","","","heartS.png","","",""
"image-slider-2AFC","454","1536974","0.0-46.28-1.28","3175","","","","-71","","","","","","","","heartS.png","2214","-71",""
"html-keyboard-response","455","1537726","0.0-46.28-2.28","null","","","","","","","null","","","","","","","",""
"image-selector-fb","456","1539854","0.0-46.29-0.29","1620","pics2/SA1.jpg,pics2/SA3.jpg","","","","","","","true","1","","","heartS.png","","",""
"image-slider-2AFC","457","1543822","0.0-46.29-1.29","3967","","","","-43","","","","","","","","sizeS.png","3119","-43",""
"html-keyboard-response","458","1544580","0.0-46.29-2.29","null","","","","","","","null","","","","","","","",""
"image-selector-fb","459","1547583","0.0-46.30-0.30","null","pics2/SA3.jpg,pics2/VE6.jpg","","","","","","","false","null","","","noS.png","","",""
"image-slider-2AFC","460","1551033","0.0-46.30-1.30","3448","","","","-81","","","","","","","","heartS.png","2674","-81",""
"html-keyboard-response","461","1551741","0.0-46.30-2.30","null","","","","","","","null","","","","","","","",""
"image-selector-fb","462","1554274","0.0-46.31-0.31","2028","pics2/VE4.jpg,pics2/SW1.jpg","","","","","","","true","1","","","sizeS.png","","",""
"image-slider-2AFC","463","1557914","0.0-46.31-1.31","3638","","","","38","","","","","","","","heartS.png","2120","38",""
"html-keyboard-response","464","1558674","0.0-46.31-2.31","null","","","","","","","null","","","","","","","",""
"image-selector-fb","465","1560912","0.0-46.32-0.32","1735","pics2/SA3.jpg,pics2/SW6.jpg","","","","","","","false","0","","","sizeS.png","","",""
"image-slider-2AFC","466","1562775","0.0-46.32-1.32","1862","","","","-67","","","","","","","","heartS.png","1047","-67",""
"html-keyboard-response","467","1563581","0.0-46.32-2.32","null","","","","","","","null","","","","","","","",""
"image-selector-fb","468","1566362","0.0-46.33-0.33","2278","pics2/VE6.jpg,pics2/SW4.jpg","","","","","","","true","1","","","heartS.png","","",""
"image-slider-2AFC","469","1569825","0.0-46.33-1.33","3462","","","","-24","","","","","","","","sizeS.png","2784","-24",""
"html-keyboard-response","470","1570578","0.0-46.33-2.33","null","","","","","","","null","","","","","","","",""
"image-selector-fb","471","1573587","0.0-46.34-0.34","null","pics2/SW5.jpg,pics2/SA1.jpg","","","","","","","false","null","","","noS.png","","",""
"image-slider-2AFC","472","1578256","0.0-46.34-1.34","4668","","","","40","","","","","","","","sizeS.png","3699,4071","67,40",""
"html-keyboard-response","473","1578969","0.0-46.34-2.34","null","","","","","","","null","","","","","","","",""
"image-selector-fb","474","1581399","0.0-46.35-0.35","1927","pics2/SW6.jpg,pics2/SA1.jpg","","","","","","","true","1","","","sizeS.png","","",""
"image-slider-2AFC","475","1583659","0.0-46.35-1.35","2258","","","","44","","","","","","","","heartS.png","1588","44",""
"html-keyboard-response","476","1584471","0.0-46.35-2.35","null","","","","","","","null","","","","","","","",""
"image-selector-fb","477","1587478","0.0-46.36-0.36","null","pics2/SW4.jpg,pics2/SA3.jpg","","","","","","","false","null","","","noS.png","","",""
"image-slider-2AFC","478","1591177","0.0-46.36-1.36","3698","","","","-33","","","","","","","","sizeS.png","3108","-33",""
"html-keyboard-response","479","1591984","0.0-46.36-2.36","null","","","","","","","null","","","","","","","",""
"image-selector-fb","480","1593600","0.0-46.37-0.37","1114","pics2/VE4.jpg,pics2/SA3.jpg","","","","","","","true","1","","","heartS.png","","",""
"image-slider-2AFC","481","1595610","0.0-46.37-1.37","2009","","","","52","","","","","","","","heartS.png","1396","52",""
"html-keyboard-response","482","1596365","0.0-46.37-2.37","null","","","","","","","null","","","","","","","",""
"image-selector-fb","483","1598745","0.0-46.38-0.38","1877","pics2/VE4.jpg,pics2/SW4.jpg","","","","","","","true","1","","","heartS.png","","",""
"image-slider-2AFC","484","1600626","0.0-46.38-1.38","1879","","","","40","","","","","","","","heartS.png","1314","40",""
"html-keyboard-response","485","1601379","0.0-46.38-2.38","null","","","","","","","null","","","","","","","",""
"image-selector-fb","486","1603643","0.0-46.39-0.39","1757","pics2/SW3.jpg,pics2/SA2.jpg","","","","","","","false","0","","","heartS.png","","",""
"image-slider-2AFC","487","1605496","0.0-46.39-1.39","1852","","","","-55","","","","","","","","heartS.png","1247","-55",""
"html-keyboard-response","488","1606206","0.0-46.39-2.39","null","","","","","","","null","","","","","","","",""
"image-selector-fb","489","1609212","0.0-46.40-0.40","null","pics2/SA6.jpg,pics2/SW3.jpg","","","","","","","false","null","","","noS.png","","",""
"image-slider-2AFC","490","1611771","0.0-46.40-1.40","2558","","","","42","","","","","","","","heartS.png","1702","42",""
"html-keyboard-response","491","1612578","0.0-46.40-2.40","null","","","","","","","null","","","","","","","",""
"image-selector-fb","492","1615462","0.0-46.41-0.41","2382","pics2/SA2.jpg,pics2/SA6.jpg","","","","","","","true","1","","","sizeS.png","","",""
"image-slider-2AFC","493","1618021","0.0-46.41-1.41","2557","","","","30","","","","","","","","heartS.png","1895","30",""
"html-keyboard-response","494","1618781","0.0-46.41-2.41","null","","","","","","","null","","","","","","","",""
"image-selector-fb","495","1621787","0.0-46.42-0.42","null","pics2/SW3.jpg,pics2/SW1.jpg","","","","","","","false","null","","","noS.png","","",""
"image-slider-2AFC","496","1624304","0.0-46.42-1.42","2515","","","","-31","","","","","","","","heartS.png","1990","-31",""
"html-keyboard-response","497","1625008","0.0-46.42-2.42","null","","","","","","","null","","","","","","","",""
"image-selector-fb","498","1627285","0.0-46.43-0.43","1773","pics2/SA4.jpg,pics2/SW1.jpg","","","","","","","true","1","","","sizeS.png","","",""
"image-slider-2AFC","499","1628964","0.0-46.43-1.43","1677","","","","-59","","","","","","","","heartS.png","1000","-59",""
"html-keyboard-response","500","1629773","0.0-46.43-2.43","null","","","","","","","null","","","","","","","",""
"image-selector-fb","501","1631624","0.0-46.44-0.44","1346","pics2/SW5.jpg,pics2/SW4.jpg","","","","","","","false","0","","","heartS.png","","",""
"image-slider-2AFC","502","1635068","0.0-46.44-1.44","3441","","","","-21","","","","","","","","sizeS.png","2375,2835","-43,-21",""
"html-keyboard-response","503","1635775","0.0-46.44-2.44","null","","","","","","","null","","","","","","","",""
"image-selector-fb","504","1638341","0.0-46.45-0.45","2061","pics2/VE4.jpg,pics2/VE6.jpg","","","","","","","false","0","","","heartS.png","","",""
"image-slider-2AFC","505","1641246","0.0-46.45-1.45","2900","","","","-13","","","","","","","","sizeS.png","1971","-13",""
"html-keyboard-response","506","1641953","0.0-46.45-2.45","null","","","","","","","null","","","","","","","",""
"image-selector-fb","507","1644967","0.0-46.46-0.46","null","pics2/SW4.jpg,pics2/SA1.jpg","","","","","","","false","null","","","noS.png","","",""
"image-slider-2AFC","508","1647191","0.0-46.46-1.46","2221","","","","46","","","","","","","","sizeS.png","1365","46",""
"html-keyboard-response","509","1647897","0.0-46.46-2.46","null","","","","","","","null","","","","","","","",""
"image-selector-fb","510","1649431","0.0-46.47-0.47","1029","pics2/SA4.jpg,pics2/VE6.jpg","","","","","","","false","0","","","heartS.png","","",""
"image-slider-2AFC","511","1651793","0.0-46.47-1.47","2361","","","","35","","","","","","","","sizeS.png","1764","35",""
"html-keyboard-response","512","1652547","0.0-46.47-2.47","null","","","","","","","null","","","","","","","",""
"image-selector-fb","513","1655560","0.0-46.48-0.48","null","pics2/SA2.jpg,pics2/SW3.jpg","","","","","","","false","null","","","noS.png","","",""
"image-slider-2AFC","514","1659151","0.0-46.48-1.48","3589","","","","39","","","","","","","","sizeS.png","3000","39",""
"html-keyboard-response","515","1659860","0.0-46.48-2.48","null","","","","","","","null","","","","","","","",""
"image-selector-fb","516","1663613","0.0-46.49-0.49","3246","pics2/SW3.jpg,pics2/SW1.jpg","","","","","","","true","1","","","sizeS.png","","",""
"image-slider-2AFC","517","1667477","0.0-46.49-1.49","3862","","","","40","","","","","","","","sizeS.png","2941","40",""
"html-keyboard-response","518","1668287","0.0-46.49-2.49","null","","","","","","","null","","","","","","","",""
"image-selector-fb","519","1670489","0.0-46.50-0.50","1699","pics2/SW6.jpg,pics2/SW4.jpg","","","","","","","true","1","","","sizeS.png","","",""
"image-slider-2AFC","520","1672709","0.0-46.50-1.50","2219","","","","-47","","","","","","","","heartS.png","1614","-47",""
"html-keyboard-response","521","1673416","0.0-46.50-2.50","null","","","","","","","null","","","","","","","",""
"image-selector-fb","522","1676426","0.0-46.51-0.51","null","pics2/SW3.jpg,pics2/SW5.jpg","","","","","","","false","null","","","noS.png","","",""
"image-slider-2AFC","523","1678968","0.0-46.51-1.51","2541","","","","-31","","","","","","","","sizeS.png","1967","-31",""
"html-keyboard-response","524","1679676","0.0-46.51-2.51","null","","","","","","","null","","","","","","","",""
"image-selector-fb","525","1682685","0.0-46.52-0.52","null","pics2/SA3.jpg,pics2/SW1.jpg","","","","","","","false","null","","","noS.png","","",""
"image-slider-2AFC","526","1685833","0.0-46.52-1.52","3147","","","","-54","","","","","","","","heartS.png","2566","-54",""
"html-keyboard-response","527","1686641","0.0-46.52-2.52","null","","","","","","","null","","","","","","","",""
"image-selector-fb","528","1689651","0.0-46.53-0.53","null","pics2/SW4.jpg,pics2/VE6.jpg","","","","","","","false","null","","","noS.png","","",""
"image-slider-2AFC","529","1692060","0.0-46.53-1.53","2408","","","","-48","","","","","","","","heartS.png","1706","-48",""
"html-keyboard-response","530","1692868","0.0-46.53-2.53","null","","","","","","","null","","","","","","","",""
"image-selector-fb","531","1694833","0.0-46.54-0.54","1460","pics2/SW1.jpg,pics2/SA4.jpg","","","","","","","true","1","","","heartS.png","","",""
"image-slider-2AFC","532","1696809","0.0-46.54-1.54","1974","","","","41","","","","","","","","heartS.png","1312","41",""
"html-keyboard-response","533","1697670","0.0-46.54-2.54","null","","","","","","","null","","","","","","","",""
"image-selector-fb","534","1701049","0.0-46.55-0.55","2875","pics2/VE6.jpg,pics2/SW5.jpg","","","","","","","true","1","","","sizeS.png","","",""
"image-slider-2AFC","535","1703544","0.0-46.55-1.55","2493","","","","38","","","","","","","","heartS.png","1993","38",""
"html-keyboard-response","536","1704250","0.0-46.55-2.55","null","","","","","","","null","","","","","","","",""
"image-selector-fb","537","1706622","0.0-46.56-0.56","1868","pics2/SW6.jpg,pics2/SW5.jpg","","","","","","","true","1","","","sizeS.png","","",""
"image-slider-2AFC","538","1708955","0.0-46.56-1.56","2332","","","","29","","","","","","","","sizeS.png","1363","29",""
"html-keyboard-response","539","1709767","0.0-46.56-2.56","null","","","","","","","null","","","","","","","",""
"image-selector-fb","540","1711435","0.0-46.57-0.57","1166","pics2/SA4.jpg,pics2/VE4.jpg","","","","","","","false","0","","","heartS.png","","",""
"image-slider-2AFC","541","1713922","0.0-46.57-1.57","2486","","","","36","","","","","","","","sizeS.png","1904","36",""
"html-keyboard-response","542","1714729","0.0-46.57-2.57","null","","","","","","","null","","","","","","","",""
"image-selector-fb","543","1717462","0.0-46.58-0.58","2229","pics2/SA3.jpg,pics2/SA2.jpg","","","","","","","false","0","","","heartS.png","","",""
"image-slider-2AFC","544","1719551","0.0-46.58-1.58","2088","","","","-46","","","","","","","","heartS.png","1217","-46",""
"html-keyboard-response","545","1720262","0.0-46.58-2.58","null","","","","","","","null","","","","","","","",""
"image-selector-fb","546","1722888","0.0-46.59-0.59","2122","pics2/VE4.jpg,pics2/SA1.jpg","","","","","","","true","1","","","sizeS.png","","",""
"image-slider-2AFC","547","1725431","0.0-46.59-1.59","2542","","","","50","","","","","","","","heartS.png","1686","50",""
"html-keyboard-response","548","1726193","0.0-46.59-2.59","null","","","","","","","null","","","","","","","",""
"image-selector-fb","549","1729203","0.0-46.60-0.60","null","pics2/SW3.jpg,pics2/SW6.jpg","","","","","","","false","null","","","noS.png","","",""
"image-slider-2AFC","550","1732888","0.0-46.60-1.60","3683","","","","-52","","","","","","","","sizeS.png","3143","-52",""
"html-keyboard-response","551","1733694","0.0-46.60-2.60","null","","","","","","","null","","","","","","","",""
"image-selector-fb","552","1736700","0.0-46.61-0.61","null","pics2/SW4.jpg,pics2/SA6.jpg","","","","","","","false","null","","","noS.png","","",""
"image-slider-2AFC","553","1739377","0.0-46.61-1.61","2675","","","","-27","","","","","","","","sizeS.png","2045","-27",""
"html-keyboard-response","554","1740136","0.0-46.61-2.61","null","","","","","","","null","","","","","","","",""
"image-selector-fb","555","1741849","0.0-46.62-0.62","1210","pics2/SW1.jpg,pics2/SA6.jpg","","","","","","","false","0","","","heartS.png","","",""
"image-slider-2AFC","556","1744844","0.0-46.62-1.62","2993","","","","-43","","","","","","","","sizeS.png","2306","-43",""
"html-keyboard-response","557","1745656","0.0-46.62-2.62","null","","","","","","","null","","","","","","","",""
"image-selector-fb","558","1748664","0.0-46.63-0.63","null","pics2/SW3.jpg,pics2/SA4.jpg","","","","","","","false","null","","","noS.png","","",""
"image-slider-2AFC","559","1752109","0.0-46.63-1.63","3443","","","","39","","","","","","","","heartS.png","2894","39",""
"html-keyboard-response","560","1752817","0.0-46.63-2.63","null","","","","","","","null","","","","","","","",""
"image-selector-fb","561","1755828","0.0-46.64-0.64","null","pics2/SA6.jpg,pics2/VE4.jpg","","","","","","","false","null","","","noS.png","","",""
"image-slider-2AFC","562","1757928","0.0-46.64-1.64","2099","","","","-51","","","","","","","","heartS.png","1429","-51",""
"html-keyboard-response","563","1758736","0.0-46.64-2.64","null","","","","","","","null","","","","","","","",""
"image-selector-fb","564","1760451","0.0-46.65-0.65","1210","pics2/SW3.jpg,pics2/VE6.jpg","","","","","","","false","0","","","heartS.png","","",""
"image-slider-2AFC","565","1762136","0.0-46.65-1.65","1684","","","","-43","","","","","","","","heartS.png","1014","-43",""
"html-keyboard-response","566","1762896","0.0-46.65-2.65","null","","","","","","","null","","","","","","","",""
"pavlovia","567","1762917","0.0-47.0","","","","","","","","","","","","","","","",""
"html-keyboard-response","568","1767920","0.0-48.0","null","<div style='width: 700px;'> <font size=6><b>SHORT BREAK</font></b><br><br><i> Please wait 5 seconds to continue</i></div> ","","","","","","null","","","","","","","",""
"pavlovia","569","1767921","0.0-49.0","","","","","","","","","","","","","","","",""
"html-button-response","570","1994029","0.0-50.0","226107","<div style='width: 700px;'> <font size=6><b>BLOCK 3</font></b><br><br>Press the button whenever you feel ready to start the third and final block</div>","0","","","","","","","","","","","","",""
"image-selector-fb","571","1997040","0.0-51.0-0.0","null","pics2/SW4.jpg,pics2/SW3.jpg","","","","","","","false","null","","","noS.png","","",""
"image-slider-2AFC","572","1998967","0.0-51.0-1.0","1925","","","","43","","","","","","","","heartS.png","1303","43",""
"html-keyboard-response","573","1999720","0.0-51.0-2.0","null","","","","","","","null","","","","","","","",""
"image-selector-fb","574","2001452","0.0-51.1-0.1","1224","pics2/SA1.jpg,pics2/SA4.jpg","","","","","","","true","1","","","heartS.png","","",""
"image-slider-2AFC","575","2004637","0.0-51.1-1.1","3184","","","","-55","","","","","","","","sizeS.png","2378","-55",""
"html-keyboard-response","576","2005397","0.0-51.1-2.1","null","","","","","","","null","","","","","","","",""
"image-selector-fb","577","2007071","0.0-51.2-0.2","1170","pics2/SA1.jpg,pics2/SW4.jpg","","","","","","","false","0","","","heartS.png","","",""
"image-slider-2AFC","578","2008942","0.0-51.2-1.2","1869","","","","-41","","","","","","","","sizeS.png","1247","-41",""
"html-keyboard-response","579","2009704","0.0-51.2-2.2","null","","","","","","","null","","","","","","","",""
"image-selector-fb","580","2012718","0.0-51.3-0.3","null","pics2/SW3.jpg,pics2/SA3.jpg","","","","","","","false","null","","","noS.png","","",""
"image-slider-2AFC","581","2014903","0.0-51.3-1.3","2183","","","","-36","","","","","","","","sizeS.png","1561","-36",""
"html-keyboard-response","582","2015662","0.0-51.3-2.3","null","","","","","","","null","","","","","","","",""
"image-selector-fb","583","2017691","0.0-51.4-0.4","1525","pics2/SW3.jpg,pics2/SW6.jpg","","","","","","","false","0","","","heartS.png","","",""
"image-slider-2AFC","584","2019668","0.0-51.4-1.4","1976","","","","-46","","","","","","","","heartS.png","1306","-46",""
"html-keyboard-response","585","2020372","0.0-51.4-2.4","null","","","","","","","null","","","","","","","",""
"image-selector-fb","586","2023377","0.0-51.5-0.5","null","pics2/SA6.jpg,pics2/SW1.jpg","","","","","","","false","null","","","noS.png","","",""
"image-slider-2AFC","587","2026882","0.0-51.5-1.5","3502","","","","42","","","","","","","","heartS.png","2961","42",""
"html-keyboard-response","588","2027639","0.0-51.5-2.5","null","","","","","","","null","","","","","","","",""
"image-selector-fb","589","2030648","0.0-51.6-0.6","null","pics2/SW4.jpg,pics2/VE4.jpg","","","","","","","false","null","","","noS.png","","",""
"image-slider-2AFC","590","2032709","0.0-51.6-1.6","2059","","","","-29","","","","","","","","heartS.png","1591","-29",""
"html-keyboard-response","591","2033419","0.0-51.6-2.6","null","","","","","","","null","","","","","","","",""
"image-selector-fb","592","2036432","0.0-51.7-0.7","null","pics2/VE6.jpg,pics2/SA4.jpg","","","","","","","false","null","","","noS.png","","",""
"image-slider-2AFC","593","2040196","0.0-51.7-1.7","3762","","","","-32","","","","","","","","sizeS.png","3198","-32",""
"html-keyboard-response","594","2040955","0.0-51.7-2.7","null","","","","","","","null","","","","","","","",""
"image-selector-fb","595","2042781","0.0-51.8-0.8","1322","pics2/VE4.jpg,pics2/SW5.jpg","","","","","","","true","1","","","sizeS.png","","",""
"image-slider-2AFC","596","2045776","0.0-51.8-1.8","2994","","","","43","","","","","","","","sizeS.png","2227","43",""
"html-keyboard-response","597","2046487","0.0-51.8-2.8","null","","","","","","","null","","","","","","","",""
"image-selector-fb","598","2050817","0.0-51.9-0.9","3826","pics2/SA1.jpg,pics2/SW1.jpg","","","","","","","false","0","","","sizeS.png","","",""
"image-slider-2AFC","599","2053756","0.0-51.9-1.9","2938","","","","-19","","","","","","","","sizeS.png","2187","-19",""
"html-keyboard-response","600","2054466","0.0-51.9-2.9","null","","","","","","","null","","","","","","","",""
"image-selector-fb","601","2056222","0.0-51.10-0.10","1251","pics2/SA1.jpg,pics2/VE4.jpg","","","","","","","false","0","","","heartS.png","","",""
"image-slider-2AFC","602","2060128","0.0-51.10-1.10","3903","","","","-65","","","","","","","","heartS.png","1368,3177","-24,-65",""
"html-keyboard-response","603","2060839","0.0-51.10-2.10","null","","","","","","","null","","","","","","","",""
"image-selector-fb","604","2062344","0.0-51.11-0.11","1000","pics2/SW3.jpg,pics2/VE4.jpg","","","","","","","false","0","","","sizeS.png","","",""
"image-slider-2AFC","605","2064594","0.0-51.11-1.11","2248","","","","-21","","","","","","","","heartS.png","1724","-21",""
"html-keyboard-response","606","2065453","0.0-51.11-2.11","null","","","","","","","null","","","","","","","",""
"image-selector-fb","607","2068465","0.0-51.12-0.12","null","pics2/VE4.jpg,pics2/SA4.jpg","","","","","","","false","null","","","noS.png","","",""
"image-slider-2AFC","608","2071426","0.0-51.12-1.12","2959","","","","-43","","","","","","","","sizeS.png","2176","-43",""
"html-keyboard-response","609","2072132","0.0-51.12-2.12","null","","","","","","","null","","","","","","","",""
"image-selector-fb","610","2073776","0.0-51.13-0.13","1142","pics2/VE6.jpg,pics2/SW6.jpg","","","","","","","true","1","","","heartS.png","","",""
"image-slider-2AFC","611","2075690","0.0-51.13-1.13","1911","","","","46","","","","","","","","heartS.png","1064","46",""
"html-keyboard-response","612","2076547","0.0-51.13-2.13","null","","","","","","","null","","","","","","","",""
"image-selector-fb","613","2079557","0.0-51.14-0.14","null","pics2/VE4.jpg,pics2/SW3.jpg","","","","","","","false","null","","","noS.png","","",""
"image-slider-2AFC","614","2083911","0.0-51.14-1.14","4353","","","","35","","","","","","","","sizeS.png","3859","35",""
"html-keyboard-response","615","2084666","0.0-51.14-2.14","null","","","","","","","null","","","","","","","",""
"image-selector-fb","616","2086960","0.0-51.15-0.15","1786","pics2/SA4.jpg,pics2/SA3.jpg","","","","","","","true","1","","","heartS.png","","",""
"image-slider-2AFC","617","2090307","0.0-51.15-1.15","3344","","","","5","","","","","","","","heartS.png","2577","5",""
"html-keyboard-response","618","2091116","0.0-51.15-2.15","null","","","","","","","null","","","","","","","",""
"image-selector-fb","619","2093190","0.0-51.16-0.16","1572","pics2/SA4.jpg,pics2/SW5.jpg","","","","","","","true","1","","","sizeS.png","","",""
"image-slider-2AFC","620","2095417","0.0-51.16-1.16","2226","","","","31","","","","","","","","sizeS.png","1573","31",""
"html-keyboard-response","621","2096177","0.0-51.16-2.16","null","","","","","","","null","","","","","","","",""
"image-selector-fb","622","2098351","0.0-51.17-0.17","1670","pics2/SA1.jpg,pics2/SW6.jpg","","","","","","","false","0","","","heartS.png","","",""
"image-slider-2AFC","623","2100490","0.0-51.17-1.17","2136","","","","-46","","","","","","","","heartS.png","1184","-46",""
"html-keyboard-response","624","2101198","0.0-51.17-2.17","null","","","","","","","null","","","","","","","",""
"image-selector-fb","625","2104935","0.0-51.18-0.18","3234","pics2/SW5.jpg,pics2/SA6.jpg","","","","","","","false","0","","","sizeS.png","","",""
"image-slider-2AFC","626","2107878","0.0-51.18-1.18","2941","","","","-22","","","","","","","","heartS.png","1949","-22",""
"html-keyboard-response","627","2108731","0.0-51.18-2.18","null","","","","","","","null","","","","","","","",""
"image-selector-fb","628","2110885","0.0-51.19-0.19","1651","pics2/SW4.jpg,pics2/SA4.jpg","","","","","","","false","0","","","sizeS.png","","",""
"image-slider-2AFC","629","2113589","0.0-51.19-1.19","2702","","","","66","","","","","","","","heartS.png","2104","66",""
"html-keyboard-response","630","2114395","0.0-51.19-2.19","null","","","","","","","null","","","","","","","",""
"image-selector-fb","631","2116756","0.0-51.20-0.20","1857","pics2/SA2.jpg,pics2/SW1.jpg","","","","","","","true","1","","","sizeS.png","","",""
"image-slider-2AFC","632","2119483","0.0-51.20-1.20","2724","","","","37","","","","","","","","sizeS.png","1634","37",""
"html-keyboard-response","633","2120188","0.0-51.20-2.20","null","","","","","","","null","","","","","","","",""
"image-selector-fb","634","2121957","0.0-51.21-0.21","1265","pics2/SA2.jpg,pics2/SA1.jpg","","","","","","","true","1","","","sizeS.png","","",""
"image-slider-2AFC","635","2124143","0.0-51.21-1.21","2184","","","","45","","","","","","","","sizeS.png","1497","45",""
"html-keyboard-response","636","2124848","0.0-51.21-2.21","null","","","","","","","null","","","","","","","",""
"image-selector-fb","637","2127862","0.0-51.22-0.22","null","pics2/SW1.jpg,pics2/SA4.jpg","","","","","","","false","null","","","noS.png","","",""
"image-slider-2AFC","638","2130681","0.0-51.22-1.22","2817","","","","67","","","","","","","","heartS.png","2211","67",""
"html-keyboard-response","639","2131489","0.0-51.22-2.22","null","","","","","","","null","","","","","","","",""
"image-selector-fb","640","2133430","0.0-51.23-0.23","1436","pics2/SA4.jpg,pics2/SW6.jpg","","","","","","","false","0","","","heartS.png","","",""
"image-slider-2AFC","641","2135744","0.0-51.23-1.23","2312","","","","41","","","","","","","","sizeS.png","1538","41",""
"html-keyboard-response","642","2136455","0.0-51.23-2.23","null","","","","","","","null","","","","","","","",""
"image-selector-fb","643","2139464","0.0-51.24-0.24","null","pics2/SW4.jpg,pics2/SA2.jpg","","","","","","","false","null","","","noS.png","","",""
"image-slider-2AFC","644","2142894","0.0-51.24-1.24","3429","","","","-42","","","","","","","","sizeS.png","2823","-42",""
"html-keyboard-response","645","2143701","0.0-51.24-2.24","null","","","","","","","null","","","","","","","",""
"image-selector-fb","646","2146577","0.0-51.25-0.25","2373","pics2/SW6.jpg,pics2/VE6.jpg","","","","","","","true","1","","","sizeS.png","","",""
"image-slider-2AFC","647","2149403","0.0-51.25-1.25","2825","","","","37","","","","","","","","sizeS.png","2276","37",""
"html-keyboard-response","648","2150105","0.0-51.25-2.25","null","","","","","","","null","","","","","","","",""
"image-selector-fb","649","2151613","0.0-51.26-0.26","1001","pics2/SW3.jpg,pics2/SA6.jpg","","","","","","","false","0","","","sizeS.png","","",""
"image-slider-2AFC","650","2153643","0.0-51.26-1.26","2028","","","","-40","","","","","","","","heartS.png","1374","-40",""
"html-keyboard-response","651","2154503","0.0-51.26-2.26","null","","","","","","","null","","","","","","","",""
"image-selector-fb","652","2156754","0.0-51.27-0.27","1747","pics2/SW1.jpg,pics2/SA3.jpg","","","","","","","true","1","","","heartS.png","","",""
"image-slider-2AFC","653","2158997","0.0-51.27-1.27","2240","","","","22","","","","","","","","heartS.png","1764","22",""
"html-keyboard-response","654","2159700","0.0-51.27-2.27","null","","","","","","","null","","","","","","","",""
"image-selector-fb","655","2161902","0.0-51.28-0.28","1693","pics2/SW4.jpg,pics2/SA2.jpg","","","","","","","false","0","","","heartS.png","","",""
"image-slider-2AFC","656","2164205","0.0-51.28-1.28","2302","","","","-24","","","","","","","","sizeS.png","1729","-24",""
"html-keyboard-response","657","2165017","0.0-51.28-2.28","null","","","","","","","null","","","","","","","",""
"image-selector-fb","658","2169526","0.0-51.29-0.29","null","pics2/SW4.jpg,pics2/VE6.jpg","","","","","","","false","null","","","sizeS.png","","",""
"image-slider-2AFC","659","2169527","0.0-51.29-1.29","null","","","","null","","","","","","","","sizeS.png","","",""
"html-keyboard-response","660","2170383","0.0-51.29-2.29","null","","","","","","","null","","","","","","","",""
"image-selector-fb","661","2172077","0.0-51.30-0.30","1187","pics2/SW1.jpg,pics2/VE6.jpg","","","","","","","false","0","","","heartS.png","","",""
"image-slider-2AFC","662","2175536","0.0-51.30-1.30","3457","","","","-47","","","","","","","","sizeS.png","1310","-47",""
"html-keyboard-response","663","2176347","0.0-51.30-2.30","null","","","","","","","null","","","","","","","",""
"image-selector-fb","664","2179353","0.0-51.31-0.31","null","pics2/SA2.jpg,pics2/SA4.jpg","","","","","","","false","null","","","noS.png","","",""
"image-slider-2AFC","665","2181008","0.0-51.31-1.31","1653","","","","15","","","","","","","","sizeS.png","1193","15",""
"html-keyboard-response","666","2181865","0.0-51.31-2.31","null","","","","","","","null","","","","","","","",""
"image-selector-fb","667","2184870","0.0-51.32-0.32","null","pics2/SA2.jpg,pics2/SW6.jpg","","","","","","","false","null","","","noS.png","","",""
"image-slider-2AFC","668","2187159","0.0-51.32-1.32","2287","","","","20","","","","","","","","heartS.png","1818","20",""
"html-keyboard-response","669","2188020","0.0-51.32-2.32","null","","","","","","","null","","","","","","","",""
"image-selector-fb","670","2189974","0.0-51.33-0.33","1445","pics2/VE6.jpg,pics2/SW1.jpg","","","","","","","true","1","","","sizeS.png","","",""
"image-slider-2AFC","671","2192560","0.0-51.33-1.33","2585","","","","26","","","","","","","","sizeS.png","1688","26",""
"html-keyboard-response","672","2193269","0.0-51.33-2.33","null","","","","","","","null","","","","","","","",""
"image-selector-fb","673","2196221","0.0-51.34-0.34","2447","pics2/SA4.jpg,pics2/SA6.jpg","","","","","","","true","1","","","sizeS.png","","",""
"image-slider-2AFC","674","2197980","0.0-51.34-1.34","1758","","","","40","","","","","","","","sizeS.png","1087","40",""
"html-keyboard-response","675","2198834","0.0-51.34-2.34","null","","","","","","","null","","","","","","","",""
"image-selector-fb","676","2201845","0.0-51.35-0.35","null","pics2/SW6.jpg,pics2/SW1.jpg","","","","","","","false","null","","","noS.png","","",""
"image-slider-2AFC","677","2203798","0.0-51.35-1.35","1951","","","","52","","","","","","","","sizeS.png","1314","52",""
"html-keyboard-response","678","2204504","0.0-51.35-2.35","null","","","","","","","null","","","","","","","",""
"image-selector-fb","679","2207512","0.0-51.36-0.36","null","pics2/SW4.jpg,pics2/SA4.jpg","","","","","","","false","null","","","noS.png","","",""
"image-slider-2AFC","680","2209495","0.0-51.36-1.36","1980","","","","50","","","","","","","","heartS.png","1286","50",""
"html-keyboard-response","681","2210200","0.0-51.36-2.36","null","","","","","","","null","","","","","","","",""
"image-selector-fb","682","2213206","0.0-51.37-0.37","null","pics2/SA3.jpg,pics2/SW5.jpg","","","","","","","false","null","","","noS.png","","",""
"image-slider-2AFC","683","2216622","0.0-51.37-1.37","3413","","","","11","","","","","","","","sizeS.png","2339","11",""
"html-keyboard-response","684","2217481","0.0-51.37-2.37","null","","","","","","","null","","","","","","","",""
"image-selector-fb","685","2220488","0.0-51.38-0.38","null","pics2/VE6.jpg,pics2/SW1.jpg","","","","","","","false","null","","","noS.png","","",""
"image-slider-2AFC","686","2222454","0.0-51.38-1.38","1965","","","","59","","","","","","","","sizeS.png","929","59",""
"html-keyboard-response","687","2223210","0.0-51.38-2.38","null","","","","","","","null","","","","","","","",""
"image-selector-fb","688","2226943","0.0-51.39-0.39","3224","pics2/SA6.jpg,pics2/SA1.jpg","","","","","","","true","1","","","heartS.png","","",""
"image-slider-2AFC","689","2231686","0.0-51.39-1.39","4741","","","","66","","","","","","","","heartS.png","1842,4135","34,66",""
"html-keyboard-response","690","2232489","0.0-51.39-2.39","null","","","","","","","null","","","","","","","",""
"image-selector-fb","691","2235498","0.0-51.40-0.40","null","pics2/SW4.jpg,pics2/SW1.jpg","","","","","","","false","null","","","noS.png","","",""
"image-slider-2AFC","692","2237986","0.0-51.40-1.40","2486","","","","48","","","","","","","","heartS.png","1920","48",""
"html-keyboard-response","693","2238792","0.0-51.40-2.40","null","","","","","","","null","","","","","","","",""
"image-selector-fb","694","2241805","0.0-51.41-0.41","2507","pics2/VE6.jpg,pics2/SA3.jpg","","","","","","","true","1","","","heartS.png","","",""
"image-slider-2AFC","695","2246807","0.0-51.41-1.41","null","","","","null","","","","","","","","sizeS.png","2919,4275","17,-15",""
"html-keyboard-response","696","2247560","0.0-51.41-2.41","null","","","","","","","null","","","","","","","",""
"image-selector-fb","697","2249846","0.0-51.42-0.42","1782","pics2/SA3.jpg,pics2/SW5.jpg","","","","","","","false","0","","","sizeS.png","","",""
"image-slider-2AFC","698","2252752","0.0-51.42-1.42","2905","","","","-57","","","","","","","","heartS.png","2308","-57",""
"html-keyboard-response","699","2253563","0.0-51.42-2.42","null","","","","","","","null","","","","","","","",""
"image-selector-fb","700","2256575","0.0-51.43-0.43","null","pics2/SW4.jpg,pics2/SW5.jpg","","","","","","","false","null","","","noS.png","","",""
"image-slider-2AFC","701","2259080","0.0-51.43-1.43","2503","","","","45","","","","","","","","sizeS.png","1494","45",""
"html-keyboard-response","702","2259887","0.0-51.43-2.43","null","","","","","","","null","","","","","","","",""
"image-selector-fb","703","2261835","0.0-51.44-0.44","1445","pics2/VE6.jpg,pics2/SW3.jpg","","","","","","","true","1","","","sizeS.png","","",""
"image-slider-2AFC","704","2264224","0.0-51.44-1.44","2387","","","","28","","","","","","","","sizeS.png","1660","28",""
"html-keyboard-response","705","2265085","0.0-51.44-2.44","null","","","","","","","null","","","","","","","",""
"image-selector-fb","706","2267554","0.0-51.45-0.45","1964","pics2/SW3.jpg,pics2/SA3.jpg","","","","","","","true","1","","","heartS.png","","",""
"image-slider-2AFC","707","2269772","0.0-51.45-1.45","2216","","","","-36","","","","","","","","sizeS.png","1659","-36",""
"html-keyboard-response","708","2270629","0.0-51.45-2.45","null","","","","","","","null","","","","","","","",""
