"trial_type","trial_index","time_elapsed","internal_node_id","rt","stimulus","button_pressed","success","response","cat","value","key_press","correct","image_click","first_click_rt","first_click_val","symbol","all_click_rt","all_click_val","view_history"
"pavlovia","0","12","0.0-0.0","","","","","","","","","","","","","","","",""
"html-button-response","1","26098","0.0-1.0","26076","<div style='width: 700px; font-size: 150%'><font size='40'>  Welcome to our study!</font><br><br><br> <small> Our experiment is about <i>decision making</i>. You will choose and rate different food items, such as these: <br><br> <div><img src='food_combo2.png', height = '400px'></img></div>","0","","","","","","","","","","","","",""
"html-button-response","2","35649","0.0-2.0","9548","<div style='width: 700px; font-size: 150%'><br><br><br><small> <u><i>This is a multi-part study.</i></u><br><br> In the first part you will rate 24 food items twice.<br><br><div><img src=""rat1.png"" style=""width: 25%""></img></div><br>In the second part (longest) you will make repeated choices and judgements concerning the food items.<br><br><div><img src=""mainx.png"" style=""width: 50%""></img></div><br>In the third and final part, you will rate the items again and answer few short questionnaires.<br><br><div><img src=""rat2.png"" style=""width: 50%""></img></div><br><br>","0","","","","","","","","","","","","",""
"fullscreen","3","61697","0.0-3.0","","","","true","","","","","","","","","","","",""
"html-button-response","4","69013","0.0-4.0","7311","<div style='width: 900px; font-size: 150%;' <font size='20%'> In the first part of the task you will use the mouse to rate food items on <i>2 scales</i> </font></div><br><br><div style='width: 900px'><div style='float: left; width: 50%; margin-right:2.5em'><img src='heartS.png'></img><p class='small' style='text-align: justify'>When you see the heart cue you will rate food items in terms of how much like them/would like to eat them <i>right now</i>. You will rate them on a continuous scale from left (strong dislike) to right (strong liking). Before submitting your rating, try imagining how the item tastes and how much you desire it.<br><br></p></div><div ><img src='sizeS.png'></img><p class='small' style='text-align: justify'>When you see the size cue, you will rate the same food items in terms of their size. The scale goes from left (tiny) to right (very large). You should assess picture size <i><u>relative</i></u> to the white background. <b>Remember:</b> rate the size of the picture, <u>not</u> the size of the item in real life. </p></div><div style='width: 900px'><br><br><b><i>Notice:</b> by starting the rating you agree that your sumbission might be rejected at an early stage and the experiment might end, if your size ratings are not at least modestly related to objective sizes, or if you repeat the same value ratings too many times. If you don't agree, please exit by closing the browser window. </i><br><br><br>","0","","","","","","","","","","","","",""
"html-button-response","5","70961","0.0-5.0","1944","<div><img src='heartS.png'></img></div><br><div style='text-align: justify; width: 700px'>Using the mouse, rate the <b><i>likeness</b></i> of the food items (how much you like them/would like to eat them <i>right now</i>). Far right-end of the scale indicates an item you <i>like a lot</i>. Far left-end indicates an item you <i>dislike a lot</i>. Think about each answer.   <ul><li>Try <b><i>not</b></i> to give identical rating to different items.</li><li>Use the whole scale, and <b><i>not</b></i> just the extremes</ul></div><br>","0","","","","","","","","","","","","",""
"image-slider-response","6","73666","0.0-6.0-0.0-0.0","2697","pics2/FR4.jpg","","","15","FR","","","","","","","","","",""
"image-slider-response","7","76459","0.0-6.0-0.0-0.1","2569","pics2/FR6.jpg","","","64","FR","","","","","","","","","",""
"image-slider-response","8","79424","0.0-6.0-0.0-0.2","2747","pics2/SW4.jpg","","","88","SW","","","","","","","","","",""
"image-slider-response","9","82079","0.0-6.0-0.0-0.3","2436","pics2/VE2.jpg","","","38","VE","","","","","","","","","",""
"image-slider-response","10","85080","0.0-6.0-0.0-0.4","2756","pics2/SW3.jpg","","","87","SW","","","","","","","","","",""
"image-slider-response","11","87853","0.0-6.0-0.0-0.5","2553","pics2/VE4.jpg","","","37","VE","","","","","","","","","",""
"image-slider-response","12","90515","0.0-6.0-0.0-0.6","2414","pics2/VE1.jpg","","","12","VE","","","","","","","","","",""
"image-slider-response","13","93295","0.0-6.0-0.0-0.7","2525","pics2/FR1.jpg","","","98","FR","","","","","","","","","",""
"image-slider-response","14","96040","0.0-6.0-0.0-0.8","2518","pics2/SA1.jpg","","","20","SA","","","","","","","","","",""
"image-slider-response","15","99307","0.0-6.0-0.0-0.9","3040","pics2/SA6.jpg","","","56","SA","","","","","","","","","",""
"image-slider-response","16","103266","0.0-6.0-0.0-0.10","3701","pics2/VE5.jpg","","","36","VE","","","","","","","","","",""
"image-slider-response","17","106927","0.0-6.0-0.0-0.11","3453","pics2/SA2.jpg","","","57","SA","","","","","","","","","",""
"image-slider-response","18","109194","0.0-6.0-0.0-0.12","2035","pics2/VE3.jpg","","","64","VE","","","","","","","","","",""
"image-slider-response","19","111494","0.0-6.0-0.0-0.13","2078","pics2/FR3.jpg","","","78","FR","","","","","","","","","",""
"image-slider-response","20","114264","0.0-6.0-0.0-0.14","2530","pics2/SW5.jpg","","","92","SW","","","","","","","","","",""
"image-slider-response","21","116752","0.0-6.0-0.0-0.15","2277","pics2/FR5.jpg","","","63","FR","","","","","","","","","",""
"image-slider-response","22","119059","0.0-6.0-0.0-0.16","2089","pics2/VE6.jpg","","","91","VE","","","","","","","","","",""
"image-slider-response","23","121833","0.0-6.0-0.0-0.17","2562","pics2/FR2.jpg","","","68","FR","","","","","","","","","",""
"image-slider-response","24","125192","0.0-6.0-0.0-0.18","3151","pics2/SA4.jpg","","","76","SA","","","","","","","","","",""
"image-slider-response","25","128010","0.0-6.0-0.0-0.19","2600","pics2/SW1.jpg","","","94","SW","","","","","","","","","",""
"image-slider-response","26","130009","0.0-6.0-0.0-0.20","1783","pics2/SA3.jpg","","","65","SA","","","","","","","","","",""
"image-slider-response","27","132580","0.0-6.0-0.0-0.21","2354","pics2/SW6.jpg","","","76","SW","","","","","","","","","",""
"image-slider-response","28","135119","0.0-6.0-0.0-0.22","2296","pics2/SA5.jpg","","","16","SA","","","","","","","","","",""
"image-slider-response","29","137101","0.0-6.0-0.0-0.23","1770","pics2/SW2.jpg","","","60","SW","","","","","","","","","",""
"html-button-response","30","142623","0.0-7.0","5317","<div style='width: 900px;'> <font size = 6><b> End of the first rating</b><br><br>","0","","","","","","","","","","","","",""
"html-button-response","31","147059","0.0-9.0","4432","<div ><img src='sizeS.png'></img></div><br><div style='text-align: justify; width: 700px'> Using the mouse, rate the <b><i>size</b></i> of the food items <b><i> relative to the white background.</b></i> Right-end of the scale indicates a <i>very large item</i>, which covers a large portion of the white rectangle. Left-end indicates a <i>very tiny</i> item which covers a tiny portion of the white rectangle.<br><br><i><u>Remember</i></u>: everything that is not the white background also contributes to item size (e.g. packing, plates, ect.)<br><br> Please keep in mind that if the accuracy of ratings do not allign well with actual sizes, the experiment will end.  As a result it will be consider incomplete and therefore no payment would be made. Good luck!<br><br></div><br>","0","","","","","","","","","","","","",""
"html-button-response","32","157227","0.0-10.0","10165","<div ><img src='sizeS.png'></img></div><br><b><font size=6>Examples of items that you might encounter</b><br><div style='width: 750px;'><div style='width: 33.33%; float:left'><br><br><br><i>Large Item</i><br><br><img src='large.jpg', width=200px></img></div><div style='float:right'><br><br><br><i>Small Item</i><br><br><img src='small.jpg', width=200px></img></div><div ><br><br><br><i>Medium Item</i><br><br><img src='med.jpg', width=200px></img></div></div><br><br>","0","","","","","","","","","","","","",""
"image-slider-response","33","178573","0.0-11.0-0.0-0.0","21339","pics2/SA6.jpg","","","89","null","","","","","","","","","",""
"image-slider-response","34","181470","0.0-11.0-0.0-0.1","2655","pics2/SW3.jpg","","","89","null","","","","","","","","","",""
"image-slider-response","35","184600","0.0-11.0-0.0-0.2","2897","pics2/SA5.jpg","","","19","null","","","","","","","","","",""
"image-slider-response","36","188716","0.0-11.0-0.0-0.3","3876","pics2/VE5.jpg","","","80","null","","","","","","","","","",""
"image-slider-response","37","191400","0.0-11.0-0.0-0.4","2466","pics2/VE2.jpg","","","38","null","","","","","","","","","",""
"image-slider-response","38","194272","0.0-11.0-0.0-0.5","2654","pics2/VE1.jpg","","","69","null","","","","","","","","","",""
"image-slider-response","39","197947","0.0-11.0-0.0-0.6","3451","pics2/FR6.jpg","","","11","null","","","","","","","","","",""
"image-slider-response","40","201269","0.0-11.0-0.0-0.7","3110","pics2/SA1.jpg","","","87","null","","","","","","","","","",""
"image-slider-response","41","204598","0.0-11.0-0.0-0.8","3023","pics2/FR5.jpg","","","74","null","","","","","","","","","",""
"image-slider-response","42","208312","0.0-11.0-0.0-0.9","3498","pics2/FR4.jpg","","","38","null","","","","","","","","","",""
"image-slider-response","43","212614","0.0-11.0-0.0-0.10","4086","pics2/SW1.jpg","","","99","null","","","","","","","","","",""
"image-slider-response","44","215332","0.0-11.0-0.0-0.11","2475","pics2/SW6.jpg","","","74","null","","","","","","","","","",""
"image-slider-response","45","218099","0.0-11.0-0.0-0.12","2480","pics2/SW4.jpg","","","92","null","","","","","","","","","",""
"image-slider-response","46","221612","0.0-11.0-0.0-0.13","3287","pics2/SW5.jpg","","","5","null","","","","","","","","","",""
"image-slider-response","47","224871","0.0-11.0-0.0-0.14","3046","pics2/VE4.jpg","","","69","null","","","","","","","","","",""
"image-slider-response","48","228029","0.0-11.0-0.0-0.15","2944","pics2/SA3.jpg","","","27","null","","","","","","","","","",""
"image-slider-response","49","230985","0.0-11.0-0.0-0.16","2747","pics2/VE6.jpg","","","94","null","","","","","","","","","",""
"image-slider-response","50","233989","0.0-11.0-0.0-0.17","2784","pics2/FR2.jpg","","","79","null","","","","","","","","","",""
"image-slider-response","51","237148","0.0-11.0-0.0-0.18","2923","pics2/SW2.jpg","","","65","null","","","","","","","","","",""
"image-slider-response","52","245644","0.0-11.0-0.0-0.19","8257","pics2/SA2.jpg","","","90","null","","","","","","","","","",""
"image-slider-response","53","249158","0.0-11.0-0.0-0.20","3269","pics2/FR1.jpg","","","98","null","","","","","","","","","",""
"image-slider-response","54","251407","0.0-11.0-0.0-0.21","2027","pics2/VE3.jpg","","","73","null","","","","","","","","","",""
"image-slider-response","55","254658","0.0-11.0-0.0-0.22","3014","pics2/FR3.jpg","","","75","null","","","","","","","","","",""
"image-slider-response","56","257532","0.0-11.0-0.0-0.23","2637","pics2/SA4.jpg","","","94","null","","","","","","","","","",""
"html-button-response","57","263029","0.0-12.0","5287","<div style='width: 900px;'> <font size = 6><b> End of the second rating</b><br><br>","0","","","","","","","","","","","","",""
"html-button-response","58","264125","0.0-13.0","1094","<div style='width: 900px;'>Now please rate the items for the second time. <br><br>This is not a memory test - you don't need to be consistent with your previous ratings. Just as before, try to make accurate judgements.<br><br>","0","","","","","","","","","","","","",""
"html-button-response","59","265538","0.0-14.0","1407","<div><img src='heartS.png'></img></div><br><div style='text-align: justify; width: 700px'>Using the mouse, rate the <b><i>likeness</b></i> of the food items (how much you like them/would like to eat them <i>right now</i>). Far right-end of the scale indicates an item you <i>like a lot</i>. Far left-end indicates an item you <i>dislike a lot</i>. Think about each answer.   <ul><li>Try <b><i>not</b></i> to give identical rating to different items.</li><li>Use the whole scale, and <b><i>not</b></i> just the extremes</ul></div><br>","0","","","","","","","","","","","","",""
"image-slider-response","60","268661","0.0-15.0-0.0-0.0","3119","pics2/VE6.jpg","","","93","VE","","","","","","","","","",""
"image-slider-response","61","271204","0.0-15.0-0.0-0.1","2307","pics2/SW6.jpg","","","74","SW","","","","","","","","","",""
"image-slider-response","62","273642","0.0-15.0-0.0-0.2","2219","pics2/SW3.jpg","","","94","SW","","","","","","","","","",""
"image-slider-response","63","276354","0.0-15.0-0.0-0.3","2491","pics2/SA5.jpg","","","9","SA","","","","","","","","","",""
"image-slider-response","64","279094","0.0-15.0-0.0-0.4","2516","pics2/FR4.jpg","","","27","FR","","","","","","","","","",""
"image-slider-response","65","281784","0.0-15.0-0.0-0.5","2458","pics2/SW4.jpg","","","83","SW","","","","","","","","","",""
"image-slider-response","66","284486","0.0-15.0-0.0-0.6","2473","pics2/FR3.jpg","","","78","FR","","","","","","","","","",""
"image-slider-response","67","287320","0.0-15.0-0.0-0.7","2606","pics2/FR1.jpg","","","92","FR","","","","","","","","","",""
"image-slider-response","68","289429","0.0-15.0-0.0-0.8","1897","pics2/VE5.jpg","","","33","VE","","","","","","","","","",""
"image-slider-response","69","292223","0.0-15.0-0.0-0.9","2585","pics2/SW5.jpg","","","91","SW","","","","","","","","","",""
"image-slider-response","70","295549","0.0-15.0-0.0-0.10","2968","pics2/SA1.jpg","","","10","SA","","","","","","","","","",""
"image-slider-response","71","298715","0.0-15.0-0.0-0.11","2918","pics2/VE4.jpg","","","39","VE","","","","","","","","","",""
"image-slider-response","72","301620","0.0-15.0-0.0-0.12","2686","pics2/SA4.jpg","","","79","SA","","","","","","","","","",""
"image-slider-response","73","306622","0.0-15.0-0.0-0.13","4781","pics2/SA6.jpg","","","36","SA","","","","","","","","","",""
"image-slider-response","74","310385","0.0-15.0-0.0-0.14","3553","pics2/FR5.jpg","","","80","FR","","","","","","","","","",""
"image-slider-response","75","314213","0.0-15.0-0.0-0.15","3480","pics2/SW1.jpg","","","100","SW","","","","","","","","","",""
"image-slider-response","76","316976","0.0-15.0-0.0-0.16","2488","pics2/FR6.jpg","","","59","FR","","","","","","","","","",""
"image-slider-response","77","320108","0.0-15.0-0.0-0.17","2883","pics2/FR2.jpg","","","70","FR","","","","","","","","","",""
"image-slider-response","78","323224","0.0-15.0-0.0-0.18","2849","pics2/VE1.jpg","","","24","VE","","","","","","","","","",""
"image-slider-response","79","325965","0.0-15.0-0.0-0.19","2531","pics2/SA3.jpg","","","69","SA","","","","","","","","","",""
"image-slider-response","80","328270","0.0-15.0-0.0-0.20","2058","pics2/SA2.jpg","","","53","SA","","","","","","","","","",""
"image-slider-response","81","330630","0.0-15.0-0.0-0.21","2147","pics2/VE3.jpg","","","80","VE","","","","","","","","","",""
"image-slider-response","82","333335","0.0-15.0-0.0-0.22","2396","pics2/SW2.jpg","","","60","SW","","","","","","","","","",""
"image-slider-response","83","335754","0.0-15.0-0.0-0.23","2166","pics2/VE2.jpg","","","35","VE","","","","","","","","","",""
"call-function","84","336077","0.0-16.0","","","","","","","","","","","","","","","",""
"call-function","85","336081","0.0-17.0","","","","","","","","","","","","","","","",""
"html-button-response","86","339030","0.0-18.0","2947","<div style='width: 900px;'> <font size = 6><b> End of the first rating</b><br><br>","0","","","","","","","","","","","","",""
"html-button-response","87","340964","0.0-19.0","1931","<div ><img src='sizeS.png'></img></div><br><div style='text-align: justify; width: 700px'> Using the mouse, rate the <b><i>size</b></i> of the food items <b><i> relative to the white background.</b></i> Right-end of the scale indicates a <i>very large item</i>, which covers a large portion of the white rectangle. Left-end indicates a <i>very tiny</i> item which covers a tiny portion of the white rectangle.<br><br><i><u>Remember</i></u>: everything that is not the white background also contributes to item size (e.g. packing, plates, ect.)<br><br> Please keep in mind that if the accuracy of ratings do not allign well with actual sizes, the experiment will end.  As a result it will be consider incomplete and therefore no payment would be made. Good luck!<br><br></div><br>","0","","","","","","","","","","","","",""
"image-slider-response","88","352745","0.0-20.0-0.0-0.0","11776","pics2/SW6.jpg","","","84","null","","","","","","","","","",""
"image-slider-response","89","357212","0.0-20.0-0.0-0.1","4230","pics2/SA4.jpg","","","90","null","","","","","","","","","",""
"image-slider-response","90","359298","0.0-20.0-0.0-0.2","1849","pics2/VE3.jpg","","","75","null","","","","","","","","","",""
"image-slider-response","91","362432","0.0-20.0-0.0-0.3","2926","pics2/FR1.jpg","","","100","null","","","","","","","","","",""
"image-slider-response","92","365764","0.0-20.0-0.0-0.4","3108","pics2/FR6.jpg","","","7","null","","","","","","","","","",""
"image-slider-response","93","369097","0.0-20.0-0.0-0.5","3103","pics2/SA1.jpg","","","91","null","","","","","","","","","",""
"image-slider-response","94","371789","0.0-20.0-0.0-0.6","2472","pics2/SW5.jpg","","","8","null","","","","","","","","","",""
"image-slider-response","95","375998","0.0-20.0-0.0-0.7","3992","pics2/VE2.jpg","","","0","null","","","","","","","","","",""
"image-slider-response","96","378994","0.0-20.0-0.0-0.8","2774","pics2/SA5.jpg","","","6","null","","","","","","","","","",""
"image-slider-response","97","381502","0.0-20.0-0.0-0.9","2284","pics2/VE5.jpg","","","100","null","","","","","","","","","",""
"image-slider-response","98","383427","0.0-20.0-0.0-0.10","1714","pics2/VE6.jpg","","","86","null","","","","","","","","","",""
"image-slider-response","99","385761","0.0-20.0-0.0-0.11","2075","pics2/SA3.jpg","","","19","null","","","","","","","","","",""
"image-slider-response","100","389869","0.0-20.0-0.0-0.12","3887","pics2/SA2.jpg","","","84","null","","","","","","","","","",""
"image-slider-response","101","392831","0.0-20.0-0.0-0.13","2645","pics2/SW1.jpg","","","98","null","","","","","","","","","",""
"image-slider-response","102","395632","0.0-20.0-0.0-0.14","2568","pics2/FR4.jpg","","","9","null","","","","","","","","","",""
"image-slider-response","103","398724","0.0-20.0-0.0-0.15","2829","pics2/FR2.jpg","","","80","null","","","","","","","","","",""
"image-slider-response","104","401509","0.0-20.0-0.0-0.16","2513","pics2/SA6.jpg","","","71","null","","","","","","","","","",""
"image-slider-response","105","404518","0.0-20.0-0.0-0.17","2786","pics2/SW4.jpg","","","94","null","","","","","","","","","",""
"image-slider-response","106","407832","0.0-20.0-0.0-0.18","3093","pics2/VE4.jpg","","","68","null","","","","","","","","","",""
"image-slider-response","107","410052","0.0-20.0-0.0-0.19","2009","pics2/FR5.jpg","","","88","null","","","","","","","","","",""
"image-slider-response","108","412754","0.0-20.0-0.0-0.20","2485","pics2/SW2.jpg","","","59","null","","","","","","","","","",""
"image-slider-response","109","415090","0.0-20.0-0.0-0.21","2124","pics2/SW3.jpg","","","84","null","","","","","","","","","",""
"image-slider-response","110","417742","0.0-20.0-0.0-0.22","2399","pics2/VE1.jpg","","","88","null","","","","","","","","","",""
"image-slider-response","111","421107","0.0-20.0-0.0-0.23","3140","pics2/FR3.jpg","","","14","null","","","","","","","","","",""
"call-function","112","421816","0.0-21.0","","","","","","","","","","","","","","","",""
"html-button-response","113","423620","0.0-22.0","1803","<div style='width: 900px;'> <font size = 6><b> End of the second rating</b><br><br>","0","","","","","","","","","","","","",""
"pavlovia","114","423640","0.0-23.0","","","","","","","","","","","","","","","",""
"html-keyboard-response","115","428656","0.0-24.0","null","<div style='width: 700px;'> <font size=6><b>SHORT BREAK</font></b><br><br><i> Please wait 5 seconds to continue</i></div> ","","","","","","null","","","","","","","",""
"pavlovia","116","428659","0.0-25.0","","","","","","","","","","","","","","","",""
"html-button-response","117","431305","0.0-26.0","2636","<div style='width: 700px;'>In the main part of the study, you will be choosing between 2 items. When it's time to choose,  this symbol will appear: <br><br><img src='chooseS.png'></img><br><br>Below, a cue will signify the type of choice: </div><br><div style='width: 700px;'><div style='float: left; width: 50%'><img src='heartS.png'></img><p class='small'>Heart cue means you should choose the item you <b><i>prefer</b></i> more.</p></div><div class='float: right; width:50%'><img src='sizeS.png'></img><p class='small'>Size cue means you should choose the <b><i>larger</b></i> item. </p></div></div><br><div style='width: 700px;'>When you click, a green square will appear around the item you chose.<br></div><div><br>","0","","","","","","","","","","","","",""
"image-selector-fb-tut","118","437244","0.0-27.0","4930","0232.jpg,0123.jpg","","","","","","","true","1","","","","","",""
"image-selector-fb-tut","119","439944","0.0-28.0","1694","0232.jpg,0123.jpg","","","","","","","true","1","","","","","",""
"html-button-response","120","441415","0.0-29.0","1468","<div style='width: 900px;'>Your choices should be both <b><i>fast and accurate</b></i>. <br><br>You will have <i>4 seconds</i> to make each choice, which should be enough consider the options and click on one of the items.<br><br>","0","","","","","","","","","","","","",""
"html-button-response","121","442356","0.0-30.0","937","<div style='width: 900px;'>Additionally, on some choice trials you will see the <b><i>no-choice cue</b></i>: <br><br><img src='noS.png'></img> <br><br>This cue means you can't make any choice. You can examine the items, but  can't click on any of them. Just wait patiently for the cue to dissapear.<br><br>","0","","","","","","","","","","","","",""
"image-selector-fb-tut","122","444374","0.0-31.0","null","0232.jpg,0123.jpg","","","","","","","false","null","","","","","",""
"html-button-response","123","449190","0.0-32.0","4813","<div style='width: 900px;'>After each choice the items will remain on the screen and you will see this symbol: <br><br><img src='judgeS.png'></img> <br><br>This means you should rate<b> the magnitude of the difference</b> between the items using a scale: </div><br><div style='width: 900px; '><div style='float: left; width: 50%; margin-right: 2.5em; align-self:left'><img src='heartS.png'></img><p class='small' style = 'text-align: justify;'>Heart cue means you should rate <b>how much you prefer</b> one of the items over the other. Moving the scale indicator to the left means you prefer the left one; moving it to the right - right one. The more you prefer one of them, the more towards that side you should move the scale indicator. </p></div><div class='float: right; width: 50%; margin-left: 2.5em;'><img src='sizeS.png'></img><p class='small' style='text-align: justify'>Size cue means you should rate <b>how much larger</b> is one of the items over the other. Moving the scale indicator to the left means you think the left is larger; moving it to the right - right one. The greater the difference in size, the more towards that side you should move the scale indicator.</div><br>","0","","","","","","","","","","","","",""
"image-slider-2AFC-tut","124","456727","0.0-33.0","6986","","","","87","","","","","","5551","87","","","",""
"image-slider-2AFC-tut","125","462275","0.0-34.0","5541","","","","70","","","","","","4493","70","","","",""
"html-button-response","126","470523","0.0-35.0","8244","<br><br><font size = 36><b> Examples </b></font><br><br><i> 1) I would like to eat some croissants a <b>lot more</b> than doritos right now:</i><br><img src='ex1.PNG', width='62%'></img><br><br><br><i> 2) I would like to eat some doritos a <b>bit more</b> than croissants right now, but just slightly:</i><br><img src='ex2.PNG' width='62%'></img>","0","","","","","","","","","","","","",""
"html-button-response","127","472402","0.0-36.0","1876","<div style='width: 900px;'><i>Now you know everything you need to do the task!</i> <br><br>Let's start by doing a <b>short training</b>, so you'll get used to how it works. </div><br>","0","","","","","","","","","","","","",""
"image-selector-fb","128","475428","0.0-37.0-0.0","null","pics2/SA3.jpg,pics2/FR4.jpg","","","","","","","false","null","","","noS.png","","",""
"image-slider-2AFC","129","479031","0.0-37.0-1.0","3596","","","","51","","","","","","","","sizeS.png","3430","51",""
"html-keyboard-response","130","479753","0.0-37.0-2.0","null","","","","","","","null","","","","","","","",""
"image-selector-fb","131","482814","0.0-37.1-0.1","2526","pics2/SA6.jpg,pics2/SA5.jpg","","","","","","","false","0","","","sizeS.png","","",""
"image-slider-2AFC","132","487855","0.0-37.1-1.1","null","","","","null","","","","","","","","heartS.png","1997","-57",""
"html-keyboard-response","133","488661","0.0-37.1-2.1","null","","","","","","","null","","","","","","","",""
"image-selector-fb","134","491694","0.0-37.2-0.2","null","pics2/SA3.jpg,pics2/VE1.jpg","","","","","","","false","null","","","noS.png","","",""
"image-slider-2AFC","135","495319","0.0-37.2-1.2","3620","","","","61","","","","","","","","sizeS.png","2825","61",""
"html-keyboard-response","136","496104","0.0-37.2-2.2","null","","","","","","","null","","","","","","","",""
"image-selector-fb","137","499271","0.0-37.3-0.3","null","pics2/SW2.jpg,pics2/VE2.jpg","","","","","","","false","null","","","noS.png","","",""
"image-slider-2AFC","138","502406","0.0-37.3-1.3","3129","","","","-33","","","","","","","","sizeS.png","1982","-33",""
"html-keyboard-response","139","503278","0.0-37.3-2.3","null","","","","","","","null","","","","","","","",""
"image-selector-fb","140","506306","0.0-37.4-0.4","null","pics2/SA1.jpg,pics2/VE2.jpg","","","","","","","false","null","","","noS.png","","",""
"image-slider-2AFC","141","509086","0.0-37.4-1.4","2776","","","","31","","","","","","","","heartS.png","2237","31",""
"html-keyboard-response","142","510456","0.0-37.4-2.4","null","","","","","","","null","","","","","","","",""
"image-selector-fb","143","513557","0.0-37.5-0.5","2587","pics2/SA2.jpg,pics2/VE4.jpg","","","","","","","false","0","","","sizeS.png","","",""
"image-slider-2AFC","144","516311","0.0-37.5-1.5","2750","","","","-70","","","","","","","","sizeS.png","2029","-70",""
"html-keyboard-response","145","517041","0.0-37.5-2.5","null","","","","","","","null","","","","","","","",""
"image-selector-fb","146","519076","0.0-37.6-0.6","1522","pics2/SA5.jpg,pics2/SW2.jpg","","","","","","","true","1","","","heartS.png","","",""
"image-slider-2AFC","147","521867","0.0-37.6-1.6","2787","","","","48","","","","","","","","sizeS.png","2054","48",""
"html-keyboard-response","148","522752","0.0-37.6-2.6","null","","","","","","","null","","","","","","","",""
"image-selector-fb","149","525921","0.0-37.7-0.7","null","pics2/SA1.jpg,pics2/FR6.jpg","","","","","","","false","null","","","noS.png","","",""
"image-slider-2AFC","150","530901","0.0-37.7-1.7","4974","","","","-67","","","","","","","","sizeS.png","3842","-67",""
"html-keyboard-response","151","531737","0.0-37.7-2.7","null","","","","","","","null","","","","","","","",""
"image-selector-fb","152","534251","0.0-37.8-0.8","1994","pics2/VE5.jpg,pics2/SA1.jpg","","","","","","","false","0","","","heartS.png","","",""
"image-slider-2AFC","153","536213","0.0-37.8-1.8","1958","","","","-17","","","","","","","","heartS.png","1417","-17",""
"html-keyboard-response","154","536939","0.0-37.8-2.8","null","","","","","","","null","","","","","","","",""
"image-selector-fb","155","539754","0.0-37.9-0.9","2306","pics2/SA2.jpg,pics2/SA6.jpg","","","","","","","false","0","","","sizeS.png","","",""
"image-slider-2AFC","156","542151","0.0-37.9-1.9","2391","","","","-20","","","","","","","","heartS.png","1326","-20",""
"html-keyboard-response","157","542922","0.0-37.9-2.9","null","","","","","","","null","","","","","","","",""
"image-selector-fb","158","545924","0.0-37.10-0.10","2484","pics2/SA2.jpg,pics2/FR6.jpg","","","","","","","false","0","","","sizeS.png","","",""
"image-slider-2AFC","159","548780","0.0-37.10-1.10","2852","","","","-67","","","","","","","","sizeS.png","1939","-67",""
"html-keyboard-response","160","549522","0.0-37.10-2.10","null","","","","","","","null","","","","","","","",""
"image-selector-fb","161","551618","0.0-37.11-0.11","1585","pics2/VE4.jpg,pics2/VE1.jpg","","","","","","","false","0","","","sizeS.png","","",""
"image-slider-2AFC","162","556650","0.0-37.11-1.11","null","","","","null","","","","","","","","sizeS.png","3859,3920,3923,3927,3931","-50,-50,-50,-50,-50",""
"html-keyboard-response","163","557528","0.0-37.11-2.11","null","","","","","","","null","","","","","","","",""
"html-button-response","164","559852","0.0-38.0","2321","<i><font size=10>Good job!</font></i> <br><br>Before we begin, you have a chance to review the rules, in case something was not clear.<br><br>","0","","","","","","","","","","","","",""
"instructions","165","564662","0.0-39.0","4809","","","","","","","","","","","","","","","[{""page_index"":0,""viewing_time"":2054},{""page_index"":1,""viewing_time"":1617},{""page_index"":2,""viewing_time"":1130}]"
"html-button-response","166","573284","0.0-40.0","8608","<div style='width: 900px;'> <font size='40'>Great! Now you're ready to begin</font><br><br>The main part of the experiment will consist of <u>3 blocks</u>. Each block consists of 66 decisions and judgements. You will have time for a short break between blocks.<br><br><br><i><u>Do your best to respond within the time limit.</u></i><br><br><i> Press the button to start the experiment<br><br></i>","0","","","","","","","","","","","","",""
"image-selector-fb","167","575319","0.0-41.0-0.0","1494","pics2/FR3.jpg,pics2/SA4.jpg","","","","","","","false","0","","","heartS.png","","",""
"image-slider-2AFC","168","578137","0.0-41.0-1.0","2815","","","","69","","","","","","","","sizeS.png","1900","69",""
"html-keyboard-response","169","578912","0.0-41.0-2.0","null","","","","","","","null","","","","","","","",""
"image-selector-fb","170","581962","0.0-41.1-0.1","null","pics2/FR2.jpg,pics2/SW4.jpg","","","","","","","false","null","","","noS.png","","",""
"image-slider-2AFC","171","586078","0.0-41.1-1.1","4109","","","","13","","","","","","","","sizeS.png","3504","13",""
"html-keyboard-response","172","586893","0.0-41.1-2.1","null","","","","","","","null","","","","","","","",""
"image-selector-fb","173","589931","0.0-41.2-0.2","null","pics2/FR2.jpg,pics2/SW1.jpg","","","","","","","false","null","","","noS.png","","",""
"image-slider-2AFC","174","593000","0.0-41.2-1.2","3064","","","","80","","","","","","","","sizeS.png","2319","80",""
"html-keyboard-response","175","593819","0.0-41.2-2.2","null","","","","","","","null","","","","","","","",""
"image-selector-fb","176","596875","0.0-41.3-0.3","null","pics2/SW5.jpg,pics2/FR3.jpg","","","","","","","false","null","","","noS.png","","",""
"image-slider-2AFC","177","601419","0.0-41.3-1.3","4542","","","","-21","","","","","","","","sizeS.png","3551","-21",""
"html-keyboard-response","178","602246","0.0-41.3-2.3","null","","","","","","","null","","","","","","","",""
"image-selector-fb","179","604307","0.0-41.4-0.4","1517","pics2/FR2.jpg,pics2/SW1.jpg","","","","","","","true","1","","","sizeS.png","","",""
"image-slider-2AFC","180","606888","0.0-41.4-1.4","2575","","","","100","","","","","","","","sizeS.png","1784","100",""
"html-keyboard-response","181","607630","0.0-41.4-2.4","null","","","","","","","null","","","","","","","",""
"image-selector-fb","182","610705","0.0-41.5-0.5","null","pics2/SA4.jpg,pics2/VE3.jpg","","","","","","","false","null","","","noS.png","","",""
"image-slider-2AFC","183","613464","0.0-41.5-1.5","2755","","","","-69","","","","","","","","sizeS.png","1872","-69",""
"html-keyboard-response","184","614297","0.0-41.5-2.5","null","","","","","","","null","","","","","","","",""
"image-selector-fb","185","616983","0.0-41.6-0.6","2154","pics2/VE3.jpg,pics2/VE6.jpg","","","","","","","true","1","","","heartS.png","","",""
"image-slider-2AFC","186","619656","0.0-41.6-1.6","2666","","","","41","","","","","","","","heartS.png","1903","41",""
"html-keyboard-response","187","620543","0.0-41.6-2.6","null","","","","","","","null","","","","","","","",""
"image-selector-fb","188","622950","0.0-41.7-0.7","1897","pics2/SW4.jpg,pics2/FR2.jpg","","","","","","","true","1","","","sizeS.png","","",""
"image-slider-2AFC","189","625575","0.0-41.7-1.7","2620","","","","-26","","","","","","","","heartS.png","2081","-26",""
"html-keyboard-response","190","626425","0.0-41.7-2.7","null","","","","","","","null","","","","","","","",""
"image-selector-fb","191","628585","0.0-41.8-0.8","1648","pics2/FR1.jpg,pics2/SW3.jpg","","","","","","","true","1","","","heartS.png","","",""
"image-slider-2AFC","192","631517","0.0-41.8-1.8","2929","","","","20","","","","","","","","heartS.png","1849","20",""
"html-keyboard-response","193","632348","0.0-41.8-2.8","null","","","","","","","null","","","","","","","",""
"image-selector-fb","194","635365","0.0-41.9-0.9","null","pics2/SW6.jpg,pics2/FR1.jpg","","","","","","","false","null","","","noS.png","","",""
"image-slider-2AFC","195","638877","0.0-41.9-1.9","3508","","","","69","","","","","","","","sizeS.png","2548","69",""
"html-keyboard-response","196","639740","0.0-41.9-2.9","null","","","","","","","null","","","","","","","",""
"image-selector-fb","197","642815","0.0-41.10-0.10","2538","pics2/FR3.jpg,pics2/FR5.jpg","","","","","","","true","1","","","sizeS.png","","",""
"image-slider-2AFC","198","645228","0.0-41.10-1.10","2409","","","","-44","","","","","","","","heartS.png","1794","-44",""
"html-keyboard-response","199","646297","0.0-41.10-2.10","null","","","","","","","null","","","","","","","",""
"image-selector-fb","200","648722","0.0-41.11-0.11","1915","pics2/VE3.jpg,pics2/SW5.jpg","","","","","","","false","0","","","sizeS.png","","",""
"image-slider-2AFC","201","651286","0.0-41.11-1.11","2560","","","","38","","","","","","","","heartS.png","1939","38",""
"html-keyboard-response","202","652011","0.0-41.11-2.11","null","","","","","","","null","","","","","","","",""
"image-selector-fb","203","655047","0.0-41.12-0.12","null","pics2/FR3.jpg,pics2/FR1.jpg","","","","","","","false","null","","","noS.png","","",""
"image-slider-2AFC","204","657901","0.0-41.12-1.12","2850","","","","71","","","","","","","","sizeS.png","2012","71",""
"html-keyboard-response","205","658784","0.0-41.12-2.12","null","","","","","","","null","","","","","","","",""
"image-selector-fb","206","660594","0.0-41.13-0.13","1286","pics2/SA4.jpg,pics2/FR5.jpg","","","","","","","false","0","","","sizeS.png","","",""
"image-slider-2AFC","207","662668","0.0-41.13-1.13","2065","","","","17","","","","","","","","heartS.png","1480","17",""
"html-keyboard-response","208","663384","0.0-41.13-2.13","null","","","","","","","null","","","","","","","",""
"image-selector-fb","209","665011","0.0-41.14-0.14","1102","pics2/SW1.jpg,pics2/FR5.jpg","","","","","","","false","0","","","heartS.png","","",""
"image-slider-2AFC","210","669952","0.0-41.14-1.14","4935","","","","-78","","","","","","","","heartS.png","1413","-78",""
"html-keyboard-response","211","670773","0.0-41.14-2.14","null","","","","","","","null","","","","","","","",""
"image-selector-fb","212","673294","0.0-41.15-0.15","2002","pics2/SW1.jpg,pics2/VE6.jpg","","","","","","","false","0","","","heartS.png","","",""
"image-slider-2AFC","213","676110","0.0-41.15-1.15","2808","","","","-29","","","","","","","","heartS.png","2113","-29",""
"html-keyboard-response","214","676829","0.0-41.15-2.15","null","","","","","","","null","","","","","","","",""
"image-selector-fb","215","678602","0.0-41.16-0.16","1265","pics2/FR3.jpg,pics2/SW4.jpg","","","","","","","true","1","","","heartS.png","","",""
"image-slider-2AFC","216","681346","0.0-41.16-1.16","2740","","","","20","","","","","","","","sizeS.png","2149","20",""
"html-keyboard-response","217","682163","0.0-41.16-2.16","null","","","","","","","null","","","","","","","",""
"image-selector-fb","218","684074","0.0-41.17-0.17","1378","pics2/SW5.jpg,pics2/SA4.jpg","","","","","","","false","0","","","heartS.png","","",""
"image-slider-2AFC","219","688145","0.0-41.17-1.17","4062","","","","62","","","","","","","","sizeS.png","2836","62",""
"html-keyboard-response","220","689006","0.0-41.17-2.17","null","","","","","","","null","","","","","","","",""
"image-selector-fb","221","692018","0.0-41.18-0.18","2469","pics2/FR1.jpg,pics2/FR2.jpg","","","","","","","false","0","","","heartS.png","","",""
"image-slider-2AFC","222","694165","0.0-41.18-1.18","2139","","","","-20","","","","","","","","heartS.png","1565","-20",""
"html-keyboard-response","223","695164","0.0-41.18-2.18","null","","","","","","","null","","","","","","","",""
"image-selector-fb","224","698272","0.0-41.19-0.19","null","pics2/SW3.jpg,pics2/SW5.jpg","","","","","","","false","null","","","noS.png","","",""
"image-slider-2AFC","225","701499","0.0-41.19-1.19","3220","","","","-51","","","","","","","","sizeS.png","2264","-51",""
"html-keyboard-response","226","702269","0.0-41.19-2.19","null","","","","","","","null","","","","","","","",""
"image-selector-fb","227","705428","0.0-41.20-0.20","null","pics2/FR2.jpg,pics2/SA4.jpg","","","","","","","false","null","","","noS.png","","",""
"image-slider-2AFC","228","709186","0.0-41.20-1.20","3745","","","","-36","","","","","","","","heartS.png","2884","-36",""
"html-keyboard-response","229","710164","0.0-41.20-2.20","null","","","","","","","null","","","","","","","",""
"image-selector-fb","230","713319","0.0-41.21-0.21","null","pics2/FR5.jpg,pics2/SA4.jpg","","","","","","","false","null","","","noS.png","","",""
"image-slider-2AFC","231","716732","0.0-41.21-1.21","3406","","","","65","","","","","","","","sizeS.png","2326","65",""
"html-keyboard-response","232","717457","0.0-41.21-2.21","null","","","","","","","null","","","","","","","",""
"image-selector-fb","233","720497","0.0-41.22-0.22","null","pics2/VE6.jpg,pics2/FR2.jpg","","","","","","","false","null","","","noS.png","","",""
"image-slider-2AFC","234","723267","0.0-41.22-1.22","2766","","","","50","","","","","","","","heartS.png","1632","50",""
"html-keyboard-response","235","724078","0.0-41.22-2.22","null","","","","","","","null","","","","","","","",""
"image-selector-fb","236","727202","0.0-41.23-0.23","null","pics2/VE6.jpg,pics2/FR3.jpg","","","","","","","false","null","","","noS.png","","",""
"image-slider-2AFC","237","729456","0.0-41.23-1.23","2246","","","","47","","","","","","","","heartS.png","1462","47",""
"html-keyboard-response","238","730322","0.0-41.23-2.23","null","","","","","","","null","","","","","","","",""
"image-selector-fb","239","732931","0.0-41.24-0.24","2057","pics2/VE6.jpg,pics2/FR3.jpg","","","","","","","false","0","","","sizeS.png","","",""
"image-slider-2AFC","240","735944","0.0-41.24-1.24","3008","","","","-49","","","","","","","","sizeS.png","2134","-49",""
"html-keyboard-response","241","736901","0.0-41.24-2.24","null","","","","","","","null","","","","","","","",""
"image-selector-fb","242","739970","0.0-41.25-0.25","null","pics2/SW6.jpg,pics2/SW5.jpg","","","","","","","false","null","","","noS.png","","",""
"image-slider-2AFC","243","744919","0.0-41.25-1.25","4945","","","","51","","","","","","","","heartS.png","3584","51",""
"html-keyboard-response","244","745714","0.0-41.25-2.25","null","","","","","","","null","","","","","","","",""
"image-selector-fb","245","747460","0.0-41.26-0.26","1211","pics2/FR2.jpg,pics2/SW4.jpg","","","","","","","true","1","","","heartS.png","","",""
"image-slider-2AFC","246","751761","0.0-41.26-1.26","4289","","","","48","","","","","","","","heartS.png","3376","48",""
"html-keyboard-response","247","752647","0.0-41.26-2.26","null","","","","","","","null","","","","","","","",""
"image-selector-fb","248","754422","0.0-41.27-0.27","1215","pics2/SW3.jpg,pics2/FR3.jpg","","","","","","","false","0","","","heartS.png","","",""
"image-slider-2AFC","249","757435","0.0-41.27-1.27","3002","","","","-69","","","","","","","","sizeS.png","1980","-69",""
"html-keyboard-response","250","758183","0.0-41.27-2.27","null","","","","","","","null","","","","","","","",""
"image-selector-fb","251","761222","0.0-41.28-0.28","null","pics2/VE3.jpg,pics2/FR3.jpg","","","","","","","false","null","","","noS.png","","",""
"image-slider-2AFC","252","763921","0.0-41.28-1.28","2692","","","","56","","","","","","","","heartS.png","1734","56",""
"html-keyboard-response","253","764891","0.0-41.28-2.28","null","","","","","","","null","","","","","","","",""
"image-selector-fb","254","766732","0.0-41.29-0.29","1304","pics2/FR1.jpg,pics2/FR3.jpg","","","","","","","true","1","","","heartS.png","","",""
"image-slider-2AFC","255","769865","0.0-41.29-1.29","3128","","","","-94","","","","","","","","sizeS.png","2170","-94",""
"html-keyboard-response","256","770611","0.0-41.29-2.29","null","","","","","","","null","","","","","","","",""
"image-selector-fb","257","772321","0.0-41.30-0.30","1182","pics2/SW3.jpg,pics2/VE6.jpg","","","","","","","false","0","","","heartS.png","","",""
"image-slider-2AFC","258","774785","0.0-41.30-1.30","2458","","","","-79","","","","","","","","sizeS.png","1596","-79",""
"html-keyboard-response","259","775696","0.0-41.30-2.30","null","","","","","","","null","","","","","","","",""
"image-selector-fb","260","777291","0.0-41.31-0.31","1039","pics2/FR5.jpg,pics2/SW4.jpg","","","","","","","true","1","","","heartS.png","","",""
"image-slider-2AFC","261","779283","0.0-41.31-1.31","1973","","","","64","","","","","","","","heartS.png","1058","64",""
"html-keyboard-response","262","780115","0.0-41.31-2.31","null","","","","","","","null","","","","","","","",""
"image-selector-fb","263","781490","0.0-41.32-0.32","821","pics2/VE3.jpg,pics2/FR1.jpg","","","","","","","true","1","","","sizeS.png","","",""
"image-slider-2AFC","264","784049","0.0-41.32-1.32","2552","","","","31","","","","","","","","heartS.png","1836","31",""
"html-keyboard-response","265","784839","0.0-41.32-2.32","null","","","","","","","null","","","","","","","",""
"image-selector-fb","266","787871","0.0-41.33-0.33","null","pics2/SW3.jpg,pics2/VE3.jpg","","","","","","","false","null","","","noS.png","","",""
"image-slider-2AFC","267","790276","0.0-41.33-1.33","2397","","","","-36","","","","","","","","heartS.png","1602","-36",""
"html-keyboard-response","268","791011","0.0-41.33-2.33","null","","","","","","","null","","","","","","","",""
"image-selector-fb","269","794046","0.0-41.34-0.34","null","pics2/FR5.jpg,pics2/VE3.jpg","","","","","","","false","null","","","noS.png","","",""
"image-slider-2AFC","270","796669","0.0-41.34-1.34","2617","","","","39","","","","","","","","sizeS.png","1900","39",""
"html-keyboard-response","271","797385","0.0-41.34-2.34","null","","","","","","","null","","","","","","","",""
"image-selector-fb","272","800461","0.0-41.35-0.35","null","pics2/SW6.jpg,pics2/VE3.jpg","","","","","","","false","null","","","noS.png","","",""
"image-slider-2AFC","273","802787","0.0-41.35-1.35","2310","","","","-23","","","","","","","","sizeS.png","1604","-23",""
"html-keyboard-response","274","803591","0.0-41.35-2.35","null","","","","","","","null","","","","","","","",""
"image-selector-fb","275","805189","0.0-41.36-0.36","1025","pics2/FR3.jpg,pics2/VE6.jpg","","","","","","","false","0","","","heartS.png","","",""
"image-slider-2AFC","276","807484","0.0-41.36-1.36","2284","","","","-38","","","","","","","","heartS.png","1496","-38",""
"html-keyboard-response","277","808308","0.0-41.36-2.36","null","","","","","","","null","","","","","","","",""
"image-selector-fb","278","810255","0.0-41.37-0.37","1433","pics2/FR1.jpg,pics2/SW5.jpg","","","","","","","true","1","","","heartS.png","","",""
"image-slider-2AFC","279","813239","0.0-41.37-1.37","2978","","","","-67","","","","","","","","sizeS.png","2100","-67",""
"html-keyboard-response","280","814012","0.0-41.37-2.37","null","","","","","","","null","","","","","","","",""
"image-selector-fb","281","817048","0.0-41.38-0.38","null","pics2/VE6.jpg,pics2/VE3.jpg","","","","","","","false","null","","","noS.png","","",""
"image-slider-2AFC","282","819439","0.0-41.38-1.38","2387","","","","21","","","","","","","","heartS.png","1723","21",""
"html-keyboard-response","283","820312","0.0-41.38-2.38","null","","","","","","","null","","","","","","","",""
"image-selector-fb","284","823124","0.0-41.39-0.39","2303","pics2/SA4.jpg,pics2/SW4.jpg","","","","","","","true","1","","","heartS.png","","",""
"image-slider-2AFC","285","825876","0.0-41.39-1.39","2746","","","","-61","","","","","","","","sizeS.png","1759","-61",""
"html-keyboard-response","286","826736","0.0-41.39-2.39","null","","","","","","","null","","","","","","","",""
"image-selector-fb","287","829787","0.0-41.40-0.40","null","pics2/SW4.jpg,pics2/SW5.jpg","","","","","","","false","null","","","noS.png","","",""
"image-slider-2AFC","288","832977","0.0-41.40-1.40","3185","","","","-79","","","","","","","","heartS.png","2222","-79",""
"html-keyboard-response","289","833844","0.0-41.40-2.40","null","","","","","","","null","","","","","","","",""
"image-selector-fb","290","835627","0.0-41.41-0.41","1237","pics2/SW4.jpg,pics2/FR3.jpg","","","","","","","false","0","","","sizeS.png","","",""
"image-slider-2AFC","291","837539","0.0-41.41-1.41","1908","","","","-44","","","","","","","","sizeS.png","1108","-44",""
"html-keyboard-response","292","838538","0.0-41.41-2.41","null","","","","","","","null","","","","","","","",""
"image-selector-fb","293","840327","0.0-41.42-0.42","1127","pics2/SW1.jpg,pics2/VE3.jpg","","","","","","","false","0","","","heartS.png","","",""
"image-slider-2AFC","294","842813","0.0-41.42-1.42","2475","","","","-68","","","","","","","","sizeS.png","1646","-68",""
"html-keyboard-response","295","843621","0.0-41.42-2.42","null","","","","","","","null","","","","","","","",""
"image-selector-fb","296","845293","0.0-41.43-0.43","1099","pics2/SW1.jpg,pics2/FR1.jpg","","","","","","","false","0","","","heartS.png","","",""
"image-slider-2AFC","297","847900","0.0-41.43-1.43","2595","","","","-76","","","","","","","","heartS.png","1623","-76",""
"html-keyboard-response","298","848796","0.0-41.43-2.43","null","","","","","","","null","","","","","","","",""
"image-selector-fb","299","851835","0.0-41.44-0.44","null","pics2/VE6.jpg,pics2/SA4.jpg","","","","","","","false","null","","","noS.png","","",""
"image-slider-2AFC","300","854967","0.0-41.44-1.44","3128","","","","-33","","","","","","","","heartS.png","2206","-33",""
"html-keyboard-response","301","855806","0.0-41.44-2.44","null","","","","","","","null","","","","","","","",""
"image-selector-fb","302","857633","0.0-41.45-0.45","1180","pics2/VE6.jpg,pics2/SW1.jpg","","","","","","","true","1","","","sizeS.png","","",""
"image-slider-2AFC","303","859783","0.0-41.45-1.45","2132","","","","86","","","","","","","","sizeS.png","1245","86",""
"html-keyboard-response","304","860633","0.0-41.45-2.45","null","","","","","","","null","","","","","","","",""
"image-selector-fb","305","862204","0.0-41.46-0.46","1034","pics2/SW3.jpg,pics2/VE3.jpg","","","","","","","false","0","","","sizeS.png","","",""
"image-slider-2AFC","306","864140","0.0-41.46-1.46","1915","","","","-47","","","","","","","","heartS.png","839","-47",""
"html-keyboard-response","307","864957","0.0-41.46-2.46","null","","","","","","","null","","","","","","","",""
"image-selector-fb","308","868182","0.0-41.47-0.47","null","pics2/SW5.jpg,pics2/SW1.jpg","","","","","","","false","null","","","noS.png","","",""
"image-slider-2AFC","309","870440","0.0-41.47-1.47","2250","","","","45","","","","","","","","heartS.png","1544","45",""
"html-keyboard-response","310","871306","0.0-41.47-2.47","null","","","","","","","null","","","","","","","",""
"image-selector-fb","311","872873","0.0-41.48-0.48","979","pics2/SW5.jpg,pics2/VE3.jpg","","","","","","","false","0","","","heartS.png","","",""
"image-slider-2AFC","312","875614","0.0-41.48-1.48","2735","","","","36","","","","","","","","sizeS.png","1673","36",""
"html-keyboard-response","313","876483","0.0-41.48-2.48","null","","","","","","","null","","","","","","","",""
"image-selector-fb","314","878022","0.0-41.49-0.49","999","pics2/SW1.jpg,pics2/SW3.jpg","","","","","","","false","0","","","heartS.png","","",""
"image-slider-2AFC","315","880840","0.0-41.49-1.49","2814","","","","-92","","","","","","","","sizeS.png","1797","-92",""
"html-keyboard-response","316","881720","0.0-41.49-2.49","null","","","","","","","null","","","","","","","",""
"image-selector-fb","317","884898","0.0-41.50-0.50","null","pics2/VE3.jpg,pics2/SW5.jpg","","","","","","","false","null","","","noS.png","","",""
"image-slider-2AFC","318","888162","0.0-41.50-1.50","3260","","","","-68","","","","","","","","sizeS.png","2315","-68",""
"html-keyboard-response","319","889143","0.0-41.50-2.50","null","","","","","","","null","","","","","","","",""
"image-selector-fb","320","890940","0.0-41.51-0.51","1282","pics2/SW6.jpg,pics2/SW3.jpg","","","","","","","true","1","","","heartS.png","","",""
"image-slider-2AFC","321","893509","0.0-41.51-1.51","2563","","","","57","","","","","","","","sizeS.png","1492","57",""
"html-keyboard-response","322","894368","0.0-41.51-2.51","null","","","","","","","null","","","","","","","",""
"image-selector-fb","323","897437","0.0-41.52-0.52","null","pics2/SW3.jpg,pics2/FR3.jpg","","","","","","","false","null","","","noS.png","","",""
"image-slider-2AFC","324","900148","0.0-41.52-1.52","2707","","","","-38","","","","","","","","heartS.png","1825","-38",""
"html-keyboard-response","325","900930","0.0-41.52-2.52","null","","","","","","","null","","","","","","","",""
"image-selector-fb","326","903948","0.0-41.53-0.53","null","pics2/VE6.jpg,pics2/SW3.jpg","","","","","","","false","null","","","noS.png","","",""
"image-slider-2AFC","327","906946","0.0-41.53-1.53","2995","","","","74","","","","","","","","sizeS.png","2065","74",""
"html-keyboard-response","328","907937","0.0-41.53-2.53","null","","","","","","","null","","","","","","","",""
"image-selector-fb","329","909730","0.0-41.54-0.54","1157","pics2/SW1.jpg,pics2/SW5.jpg","","","","","","","false","0","","","heartS.png","","",""
"image-slider-2AFC","330","912871","0.0-41.54-1.54","3126","","","","-59","","","","","","","","heartS.png","2277","-59",""
"html-keyboard-response","331","913741","0.0-41.54-2.54","null","","","","","","","null","","","","","","","",""
"image-selector-fb","332","915747","0.0-41.55-0.55","1497","pics2/FR1.jpg,pics2/VE3.jpg","","","","","","","false","0","","","heartS.png","","",""
"image-slider-2AFC","333","918244","0.0-41.55-1.55","2493","","","","-53","","","","","","","","heartS.png","1029","-53",""
"html-keyboard-response","334","919187","0.0-41.55-2.55","null","","","","","","","null","","","","","","","",""
"image-selector-fb","335","920863","0.0-41.56-0.56","1116","pics2/SW1.jpg,pics2/FR3.jpg","","","","","","","false","0","","","heartS.png","","",""
"image-slider-2AFC","336","924418","0.0-41.56-1.56","3545","","","","-71","","","","","","","","heartS.png","2587","-71",""
"html-keyboard-response","337","925177","0.0-41.56-2.56","null","","","","","","","null","","","","","","","",""
"image-selector-fb","338","926857","0.0-41.57-0.57","1154","pics2/SW1.jpg,pics2/SW4.jpg","","","","","","","false","0","","","heartS.png","","",""
"image-slider-2AFC","339","929436","0.0-41.57-1.57","2569","","","","-74","","","","","","","","sizeS.png","1669","-74",""
"html-keyboard-response","340","930285","0.0-41.57-2.57","null","","","","","","","null","","","","","","","",""
"image-selector-fb","341","932102","0.0-41.58-0.58","1295","pics2/SW5.jpg,pics2/SW4.jpg","","","","","","","true","1","","","heartS.png","","",""
"image-slider-2AFC","342","934768","0.0-41.58-1.58","2662","","","","43","","","","","","","","sizeS.png","1968","43",""
"html-keyboard-response","343","935502","0.0-41.58-2.58","null","","","","","","","null","","","","","","","",""
"image-selector-fb","344","937143","0.0-41.59-0.59","1118","pics2/FR2.jpg,pics2/FR1.jpg","","","","","","","true","1","","","sizeS.png","","",""
"image-slider-2AFC","345","940387","0.0-41.59-1.59","3234","","","","68","","","","","","","","sizeS.png","2088","68",""
"html-keyboard-response","346","941299","0.0-41.59-2.59","null","","","","","","","null","","","","","","","",""
"image-selector-fb","347","942848","0.0-41.60-0.60","1036","pics2/FR2.jpg,pics2/VE3.jpg","","","","","","","false","0","","","heartS.png","","",""
"image-slider-2AFC","348","945060","0.0-41.60-1.60","2207","","","","-33","","","","","","","","heartS.png","1550","-33",""
"html-keyboard-response","349","945791","0.0-41.60-2.60","null","","","","","","","null","","","","","","","",""
"image-selector-fb","350","948842","0.0-41.61-0.61","null","pics2/VE6.jpg,pics2/SW1.jpg","","","","","","","false","null","","","noS.png","","",""
"image-slider-2AFC","351","952331","0.0-41.61-1.61","3473","","","","73","","","","","","","","sizeS.png","2630","73",""
"html-keyboard-response","352","953096","0.0-41.61-2.61","null","","","","","","","null","","","","","","","",""
"image-selector-fb","353","956409","0.0-41.62-0.62","null","pics2/FR5.jpg,pics2/SW5.jpg","","","","","","","false","null","","","noS.png","","",""
"image-slider-2AFC","354","958832","0.0-41.62-1.62","2413","","","","50","","","","","","","","heartS.png","1678","50",""
"html-keyboard-response","355","959850","0.0-41.62-2.62","null","","","","","","","null","","","","","","","",""
"image-selector-fb","356","962005","0.0-41.63-0.63","1586","pics2/FR5.jpg,pics2/FR2.jpg","","","","","","","true","1","","","sizeS.png","","",""
"image-slider-2AFC","357","964741","0.0-41.63-1.63","2711","","","","48","","","","","","","","heartS.png","1794","48",""
"html-keyboard-response","358","965659","0.0-41.63-2.63","null","","","","","","","null","","","","","","","",""
"image-selector-fb","359","968714","0.0-41.64-0.64","null","pics2/FR5.jpg,pics2/FR3.jpg","","","","","","","false","null","","","noS.png","","",""
"image-slider-2AFC","360","971299","0.0-41.64-1.64","2576","","","","67","","","","","","","","sizeS.png","1830","67",""
"html-keyboard-response","361","972207","0.0-41.64-2.64","null","","","","","","","null","","","","","","","",""
"image-selector-fb","362","974291","0.0-41.65-0.65","1512","pics2/SW5.jpg,pics2/FR5.jpg","","","","","","","true","1","","","heartS.png","","",""
"image-slider-2AFC","363","977122","0.0-41.65-1.65","2819","","","","62","","","","","","","","heartS.png","1796","62",""
"html-keyboard-response","364","977916","0.0-41.65-2.65","null","","","","","","","null","","","","","","","",""
"pavlovia","365","978044","0.0-42.0","","","","","","","","","","","","","","","",""
"html-keyboard-response","366","983071","0.0-43.0","null","<div style='width: 700px;'> <font size=6><b>SHORT BREAK</font></b><br><br><i> Please wait 5 seconds to continue</i></div> ","","","","","","null","","","","","","","",""
"pavlovia","367","983079","0.0-44.0","","","","","","","","","","","","","","","",""
"html-button-response","368","1058815","0.0-45.0","75726","<div style='width: 700px;'> <font size=6><b>BLOCK 2</font></b><br><br>Press the button whenever you feel ready to start the second block (there are 3 in total)</div>","0","","","","","","","","","","","","",""
"image-selector-fb","369","1060858","0.0-46.0-0.0","1510","pics2/SW1.jpg,pics2/SW6.jpg","","","","","","","false","0","","","heartS.png","","",""
"image-slider-2AFC","370","1063931","0.0-46.0-1.0","3070","","","","-76","","","","","","","","sizeS.png","2422","-76",""
"html-keyboard-response","371","1064769","0.0-46.0-2.0","null","","","","","","","null","","","","","","","",""
"image-selector-fb","372","1066486","0.0-46.1-0.1","1149","pics2/SW6.jpg,pics2/FR3.jpg","","","","","","","true","1","","","heartS.png","","",""
"image-slider-2AFC","373","1068719","0.0-46.1-1.1","2227","","","","68","","","","","","","","heartS.png","1548","68",""
"html-keyboard-response","374","1069506","0.0-46.1-2.1","null","","","","","","","null","","","","","","","",""
"image-selector-fb","375","1072583","0.0-46.2-0.2","null","pics2/SA4.jpg,pics2/SW3.jpg","","","","","","","false","null","","","noS.png","","",""
"image-slider-2AFC","376","1075379","0.0-46.2-1.2","2791","","","","49","","","","","","","","heartS.png","1634","49",""
"html-keyboard-response","377","1076308","0.0-46.2-2.2","null","","","","","","","null","","","","","","","",""
"image-selector-fb","378","1079431","0.0-46.3-0.3","null","pics2/FR5.jpg,pics2/SW1.jpg","","","","","","","false","null","","","noS.png","","",""
"image-slider-2AFC","379","1081829","0.0-46.3-1.3","2392","","","","43","","","","","","","","heartS.png","1685","43",""
"html-keyboard-response","380","1082653","0.0-46.3-2.3","null","","","","","","","null","","","","","","","",""
"image-selector-fb","381","1085795","0.0-46.4-0.4","null","pics2/SW6.jpg,pics2/SW3.jpg","","","","","","","false","null","","","noS.png","","",""
"image-slider-2AFC","382","1088074","0.0-46.4-1.4","2273","","","","39","","","","","","","","heartS.png","1811","39",""
"html-keyboard-response","383","1088943","0.0-46.4-2.4","null","","","","","","","null","","","","","","","",""
"image-selector-fb","384","1092033","0.0-46.5-0.5","null","pics2/VE6.jpg,pics2/FR1.jpg","","","","","","","false","null","","","noS.png","","",""
"image-slider-2AFC","385","1094717","0.0-46.5-1.5","2676","","","","81","","","","","","","","heartS.png","1469","81",""
"html-keyboard-response","386","1095509","0.0-46.5-2.5","null","","","","","","","null","","","","","","","",""
"image-selector-fb","387","1098642","0.0-46.6-0.6","null","pics2/FR3.jpg,pics2/SW1.jpg","","","","","","","false","null","","","noS.png","","",""
"image-slider-2AFC","388","1100896","0.0-46.6-1.6","2246","","","","35","","","","","","","","heartS.png","1754","35",""
"html-keyboard-response","389","1101767","0.0-46.6-2.6","null","","","","","","","null","","","","","","","",""
"image-selector-fb","390","1104264","0.0-46.7-0.7","1976","pics2/SA4.jpg,pics2/FR1.jpg","","","","","","","true","1","","","sizeS.png","","",""
"image-slider-2AFC","391","1106543","0.0-46.7-1.7","2275","","","","48","","","","","","","","heartS.png","1155","48",""
"html-keyboard-response","392","1107547","0.0-46.7-2.7","null","","","","","","","null","","","","","","","",""
"image-selector-fb","393","1109553","0.0-46.8-0.8","1446","pics2/SW4.jpg,pics2/SW6.jpg","","","","","","","false","0","","","sizeS.png","","",""
"image-slider-2AFC","394","1112101","0.0-46.8-1.8","2539","","","","-56","","","","","","","","heartS.png","1418","-56",""
"html-keyboard-response","395","1112829","0.0-46.8-2.8","null","","","","","","","null","","","","","","","",""
"image-selector-fb","396","1114811","0.0-46.9-0.9","1459","pics2/FR2.jpg,pics2/FR3.jpg","","","","","","","false","0","","","heartS.png","","",""
"image-slider-2AFC","397","1116899","0.0-46.9-1.9","2079","","","","-43","","","","","","","","sizeS.png","1398","-43",""
"html-keyboard-response","398","1117675","0.0-46.9-2.9","null","","","","","","","null","","","","","","","",""
"image-selector-fb","399","1119317","0.0-46.10-0.10","1115","pics2/SW5.jpg,pics2/VE6.jpg","","","","","","","false","0","","","heartS.png","","",""
"image-slider-2AFC","400","1121600","0.0-46.10-1.10","2278","","","","-27","","","","","","","","heartS.png","1616","-27",""
"html-keyboard-response","401","1122353","0.0-46.10-2.10","null","","","","","","","null","","","","","","","",""
"image-selector-fb","402","1123950","0.0-46.11-0.11","1075","pics2/FR3.jpg,pics2/SW1.jpg","","","","","","","true","1","","","sizeS.png","","",""
"image-slider-2AFC","403","1125620","0.0-46.11-1.11","1666","","","","65","","","","","","","","heartS.png","991","65",""
"html-keyboard-response","404","1126502","0.0-46.11-2.11","null","","","","","","","null","","","","","","","",""
"image-selector-fb","405","1128085","0.0-46.12-0.12","1053","pics2/SW4.jpg,pics2/FR5.jpg","","","","","","","false","0","","","sizeS.png","","",""
"image-slider-2AFC","406","1130226","0.0-46.12-1.12","2131","","","","-41","","","","","","","","sizeS.png","1260","-41",""
"html-keyboard-response","407","1131040","0.0-46.12-2.12","null","","","","","","","null","","","","","","","",""
"image-selector-fb","408","1132919","0.0-46.13-0.13","1345","pics2/SW4.jpg,pics2/SA4.jpg","","","","","","","true","1","","","sizeS.png","","",""
"image-slider-2AFC","409","1135592","0.0-46.13-1.13","2668","","","","66","","","","","","","","heartS.png","1641","66",""
"html-keyboard-response","410","1136425","0.0-46.13-2.13","null","","","","","","","null","","","","","","","",""
"image-selector-fb","411","1138597","0.0-46.14-0.14","1647","pics2/VE6.jpg,pics2/FR5.jpg","","","","","","","false","0","","","sizeS.png","","",""
"image-slider-2AFC","412","1140681","0.0-46.14-1.14","2070","","","","-42","","","","","","","","sizeS.png","1110","-42",""
"html-keyboard-response","413","1141500","0.0-46.14-2.14","null","","","","","","","null","","","","","","","",""
"image-selector-fb","414","1143258","0.0-46.15-0.15","1250","pics2/FR3.jpg,pics2/SW3.jpg","","","","","","","true","1","","","sizeS.png","","",""
"image-slider-2AFC","415","1145000","0.0-46.15-1.15","1736","","","","70","","","","","","","","sizeS.png","1106","70",""
"html-keyboard-response","416","1145831","0.0-46.15-2.15","null","","","","","","","null","","","","","","","",""
"image-selector-fb","417","1147261","0.0-46.16-0.16","920","pics2/SW4.jpg,pics2/SW1.jpg","","","","","","","true","1","","","sizeS.png","","",""
"image-slider-2AFC","418","1149449","0.0-46.16-1.16","2183","","","","69","","","","","","","","sizeS.png","1056","69",""
"html-keyboard-response","419","1150183","0.0-46.16-2.16","null","","","","","","","null","","","","","","","",""
"image-selector-fb","420","1151877","0.0-46.17-0.17","1175","pics2/VE3.jpg,pics2/FR5.jpg","","","","","","","false","0","","","heartS.png","","",""
"image-slider-2AFC","421","1155084","0.0-46.17-1.17","3196","","","","19","","","","","","","","heartS.png","2059","19",""
"html-keyboard-response","422","1155927","0.0-46.17-2.17","null","","","","","","","null","","","","","","","",""
"image-selector-fb","423","1158059","0.0-46.18-0.18","1600","pics2/SA4.jpg,pics2/SW5.jpg","","","","","","","false","0","","","sizeS.png","","",""
"image-slider-2AFC","424","1160495","0.0-46.18-1.18","2430","","","","53","","","","","","","","heartS.png","1712","53",""
"html-keyboard-response","425","1161271","0.0-46.18-2.18","null","","","","","","","null","","","","","","","",""
"image-selector-fb","426","1163454","0.0-46.19-0.19","1656","pics2/FR2.jpg,pics2/SA4.jpg","","","","","","","false","0","","","heartS.png","","",""
"image-slider-2AFC","427","1165739","0.0-46.19-1.19","2263","","","","-25","","","","","","","","heartS.png","1615","-25",""
"html-keyboard-response","428","1166572","0.0-46.19-2.19","null","","","","","","","null","","","","","","","",""
"image-selector-fb","429","1168450","0.0-46.20-0.20","1317","pics2/FR5.jpg,pics2/VE3.jpg","","","","","","","true","1","","","sizeS.png","","",""
"image-slider-2AFC","430","1170564","0.0-46.20-1.20","2108","","","","-22","","","","","","","","heartS.png","1632","-22",""
"html-keyboard-response","431","1171358","0.0-46.20-2.20","null","","","","","","","null","","","","","","","",""
"image-selector-fb","432","1173278","0.0-46.21-0.21","1366","pics2/SW6.jpg,pics2/FR2.jpg","","","","","","","true","1","","","heartS.png","","",""
"image-slider-2AFC","433","1175244","0.0-46.21-1.21","1959","","","","48","","","","","","","","sizeS.png","664","48",""
"html-keyboard-response","434","1176074","0.0-46.21-2.21","null","","","","","","","null","","","","","","","",""
"image-selector-fb","435","1177935","0.0-46.22-0.22","1351","pics2/FR5.jpg,pics2/VE6.jpg","","","","","","","false","0","","","heartS.png","","",""
"image-slider-2AFC","436","1181047","0.0-46.22-1.22","3106","","","","39","","","","","","","","sizeS.png","774,2465","-41,39",""
"html-keyboard-response","437","1181781","0.0-46.22-2.22","null","","","","","","","null","","","","","","","",""
"image-selector-fb","438","1184010","0.0-46.23-0.23","1697","pics2/VE6.jpg,pics2/VE3.jpg","","","","","","","false","0","","","sizeS.png","","",""
"image-slider-2AFC","439","1185746","0.0-46.23-1.23","1730","","","","16","","","","","","","","heartS.png","1216","16",""
"html-keyboard-response","440","1186662","0.0-46.23-2.23","null","","","","","","","null","","","","","","","",""
"image-selector-fb","441","1190495","0.0-46.24-0.24","3231","pics2/SW4.jpg,pics2/SW3.jpg","","","","","","","true","1","","","sizeS.png","","",""
"image-slider-2AFC","442","1193195","0.0-46.24-1.24","2683","","","","46","","","","","","","","heartS.png","2070","46",""
"html-keyboard-response","443","1194040","0.0-46.24-2.24","null","","","","","","","null","","","","","","","",""
"image-selector-fb","444","1195935","0.0-46.25-0.25","1373","pics2/FR1.jpg,pics2/VE6.jpg","","","","","","","false","0","","","heartS.png","","",""
"image-slider-2AFC","445","1197806","0.0-46.25-1.25","1862","","","","-36","","","","","","","","sizeS.png","1220","-36",""
"html-keyboard-response","446","1198759","0.0-46.25-2.25","null","","","","","","","null","","","","","","","",""
"image-selector-fb","447","1200416","0.0-46.26-0.26","1133","pics2/FR2.jpg,pics2/FR5.jpg","","","","","","","false","0","","","heartS.png","","",""
"image-slider-2AFC","448","1202525","0.0-46.26-1.26","2098","","","","-53","","","","","","","","sizeS.png","1170","-53",""
"html-keyboard-response","449","1203403","0.0-46.26-2.26","null","","","","","","","null","","","","","","","",""
"image-selector-fb","450","1206452","0.0-46.27-0.27","null","pics2/SA4.jpg,pics2/SW1.jpg","","","","","","","false","null","","","noS.png","","",""
"image-slider-2AFC","451","1209238","0.0-46.27-1.27","2779","","","","86","","","","","","","","heartS.png","1713","86",""
"html-keyboard-response","452","1210008","0.0-46.27-2.27","null","","","","","","","null","","","","","","","",""
"image-selector-fb","453","1213051","0.0-46.28-0.28","null","pics2/SW5.jpg,pics2/FR1.jpg","","","","","","","false","null","","","noS.png","","",""
"image-slider-2AFC","454","1216042","0.0-46.28-1.28","2985","","","","70","","","","","","","","sizeS.png","1857","70",""
"html-keyboard-response","455","1216853","0.0-46.28-2.28","null","","","","","","","null","","","","","","","",""
"image-selector-fb","456","1219160","0.0-46.29-0.29","1790","pics2/SA4.jpg,pics2/VE3.jpg","","","","","","","false","0","","","sizeS.png","","",""
"image-slider-2AFC","457","1221742","0.0-46.29-1.29","2578","","","","-72","","","","","","","","sizeS.png","1590","-72",""
"html-keyboard-response","458","1222563","0.0-46.29-2.29","null","","","","","","","null","","","","","","","",""
"image-selector-fb","459","1224293","0.0-46.30-0.30","1198","pics2/FR2.jpg,pics2/SW3.jpg","","","","","","","true","1","","","heartS.png","","",""
"image-slider-2AFC","460","1226735","0.0-46.30-1.30","2432","","","","79","","","","","","","","heartS.png","1447","79",""
"html-keyboard-response","461","1227579","0.0-46.30-2.30","null","","","","","","","null","","","","","","","",""
"image-selector-fb","462","1229281","0.0-46.31-0.31","1159","pics2/SW3.jpg,pics2/FR5.jpg","","","","","","","false","0","","","sizeS.png","","",""
"image-slider-2AFC","463","1232069","0.0-46.31-1.31","2779","","","","-73","","","","","","","","sizeS.png","1887","-73",""
"html-keyboard-response","464","1232871","0.0-46.31-2.31","null","","","","","","","null","","","","","","","",""
"image-selector-fb","465","1234586","0.0-46.32-0.32","1184","pics2/VE3.jpg,pics2/SA4.jpg","","","","","","","true","1","","","heartS.png","","",""
"image-slider-2AFC","466","1236879","0.0-46.32-1.32","2278","","","","64","","","","","","","","sizeS.png","1301","64",""
"html-keyboard-response","467","1237746","0.0-46.32-2.32","null","","","","","","","null","","","","","","","",""
"image-selector-fb","468","1240786","0.0-46.33-0.33","null","pics2/FR2.jpg,pics2/FR3.jpg","","","","","","","false","null","","","noS.png","","",""
"image-slider-2AFC","469","1242881","0.0-46.33-1.33","2090","","","","51","","","","","","","","heartS.png","1232","51",""
"html-keyboard-response","470","1243630","0.0-46.33-2.33","null","","","","","","","null","","","","","","","",""
"image-selector-fb","471","1246849","0.0-46.34-0.34","null","pics2/SW4.jpg,pics2/SA4.jpg","","","","","","","false","null","","","noS.png","","",""
"image-slider-2AFC","472","1250277","0.0-46.34-1.34","3413","","","","75","","","","","","","","sizeS.png","2392","75",""
"html-keyboard-response","473","1251075","0.0-46.34-2.34","null","","","","","","","null","","","","","","","",""
"image-selector-fb","474","1255334","0.0-46.35-0.35","3736","pics2/SW6.jpg,pics2/FR5.jpg","","","","","","","false","0","","","heartS.png","","",""
"image-slider-2AFC","475","1258194","0.0-46.35-1.35","2855","","","","-44","","","","","","","","heartS.png","1820","-44",""
"html-keyboard-response","476","1259054","0.0-46.35-2.35","null","","","","","","","null","","","","","","","",""
"image-selector-fb","477","1262838","0.0-46.36-0.36","3275","pics2/SA4.jpg,pics2/FR2.jpg","","","","","","","false","0","","","sizeS.png","","",""
"image-slider-2AFC","478","1265258","0.0-46.36-1.36","2416","","","","-50","","","","","","","","sizeS.png","1341","-50",""
"html-keyboard-response","479","1266182","0.0-46.36-2.36","null","","","","","","","null","","","","","","","",""
"image-selector-fb","480","1267926","0.0-46.37-0.37","1217","pics2/SW5.jpg,pics2/SW1.jpg","","","","","","","true","1","","","sizeS.png","","",""
"image-slider-2AFC","481","1270061","0.0-46.37-1.37","2131","","","","82","","","","","","","","heartS.png","1078","82",""
"html-keyboard-response","482","1270968","0.0-46.37-2.37","null","","","","","","","null","","","","","","","",""
"image-selector-fb","483","1272905","0.0-46.38-0.38","1413","pics2/FR2.jpg,pics2/SW5.jpg","","","","","","","true","1","","","heartS.png","","",""
"image-slider-2AFC","484","1275994","0.0-46.38-1.38","3082","","","","-53","","","","","","","","sizeS.png","2111","-53",""
"html-keyboard-response","485","1276851","0.0-46.38-2.38","null","","","","","","","null","","","","","","","",""
"image-selector-fb","486","1279922","0.0-46.39-0.39","null","pics2/FR2.jpg,pics2/SW3.jpg","","","","","","","false","null","","","noS.png","","",""
"image-slider-2AFC","487","1283589","0.0-46.39-1.39","3657","","","","79","","","","","","","","sizeS.png","2773","79",""
"html-keyboard-response","488","1284341","0.0-46.39-2.39","null","","","","","","","null","","","","","","","",""
"image-selector-fb","489","1287471","0.0-46.40-0.40","null","pics2/VE6.jpg,pics2/SW4.jpg","","","","","","","false","null","","","noS.png","","",""
"image-slider-2AFC","490","1290246","0.0-46.40-1.40","2759","","","","-69","","","","","","","","sizeS.png","1923","-69",""
"html-keyboard-response","491","1291137","0.0-46.40-2.40","null","","","","","","","null","","","","","","","",""
"image-selector-fb","492","1294245","0.0-46.41-0.41","null","pics2/FR5.jpg,pics2/FR1.jpg","","","","","","","false","null","","","noS.png","","",""
"image-slider-2AFC","493","1297387","0.0-46.41-1.41","3129","","","","86","","","","","","","","sizeS.png","1744","86",""
"html-keyboard-response","494","1298358","0.0-46.41-2.41","null","","","","","","","null","","","","","","","",""
"image-selector-fb","495","1302930","0.0-46.42-0.42","null","pics2/SW3.jpg,pics2/FR2.jpg","","","","","","","false","null","","","sizeS.png","","",""
"image-slider-2AFC","496","1302932","0.0-46.42-1.42","null","","","","null","","","","","","","","heartS.png","","",""
"html-keyboard-response","497","1303664","0.0-46.42-2.42","null","","","","","","","null","","","","","","","",""
"image-selector-fb","498","1305081","0.0-46.43-0.43","899","pics2/FR5.jpg,pics2/SA4.jpg","","","","","","","true","1","","","heartS.png","","",""
"image-slider-2AFC","499","1309434","0.0-46.43-1.43","4349","","","","-23","","","","","","","","heartS.png","2841","-23",""
"html-keyboard-response","500","1310251","0.0-46.43-2.43","null","","","","","","","null","","","","","","","",""
"image-selector-fb","501","1313355","0.0-46.44-0.44","2580","pics2/FR2.jpg,pics2/VE6.jpg","","","","","","","false","0","","","heartS.png","","",""
"image-slider-2AFC","502","1315600","0.0-46.44-1.44","2235","","","","50","","","","","","","","sizeS.png","1444","50",""
"html-keyboard-response","503","1316397","0.0-46.44-2.44","null","","","","","","","null","","","","","","","",""
"image-selector-fb","504","1317987","0.0-46.45-0.45","1039","pics2/SA4.jpg,pics2/SW6.jpg","","","","","","","false","0","","","sizeS.png","","",""
"image-slider-2AFC","505","1320365","0.0-46.45-1.45","2371","","","","-67","","","","","","","","sizeS.png","1548","-67",""
"html-keyboard-response","506","1321393","0.0-46.45-2.45","null","","","","","","","null","","","","","","","",""
"image-selector-fb","507","1322911","0.0-46.46-0.46","962","pics2/FR5.jpg,pics2/SW3.jpg","","","","","","","true","1","","","heartS.png","","",""
"image-slider-2AFC","508","1325109","0.0-46.46-1.46","2179","","","","83","","","","","","","","heartS.png","1491","83",""
"html-keyboard-response","509","1325992","0.0-46.46-2.46","null","","","","","","","null","","","","","","","",""
"image-selector-fb","510","1329045","0.0-46.47-0.47","null","pics2/SW1.jpg,pics2/FR1.jpg","","","","","","","false","null","","","noS.png","","",""
"image-slider-2AFC","511","1331631","0.0-46.47-1.47","2573","","","","-83","","","","","","","","heartS.png","1599","-83",""
"html-keyboard-response","512","1332376","0.0-46.47-2.47","null","","","","","","","null","","","","","","","",""
"image-selector-fb","513","1335326","0.0-46.48-0.48","2429","pics2/FR5.jpg,pics2/SW5.jpg","","","","","","","false","0","","","sizeS.png","","",""
"image-slider-2AFC","514","1337497","0.0-46.48-1.48","2167","","","","-81","","","","","","","","sizeS.png","1376","-81",""
"html-keyboard-response","515","1338245","0.0-46.48-2.48","null","","","","","","","null","","","","","","","",""
"image-selector-fb","516","1340199","0.0-46.49-0.49","1396","pics2/FR1.jpg,pics2/FR5.jpg","","","","","","","false","0","","","heartS.png","","",""
"image-slider-2AFC","517","1342492","0.0-46.49-1.49","2284","","","","-87","","","","","","","","sizeS.png","1668","-87",""
"html-keyboard-response","518","1343423","0.0-46.49-2.49","null","","","","","","","null","","","","","","","",""
"image-selector-fb","519","1346507","0.0-46.50-0.50","null","pics2/FR5.jpg,pics2/SW6.jpg","","","","","","","false","null","","","noS.png","","",""
"image-slider-2AFC","520","1348963","0.0-46.50-1.50","2451","","","","-42","","","","","","","","sizeS.png","1526","-42",""
"html-keyboard-response","521","1349857","0.0-46.50-2.50","null","","","","","","","null","","","","","","","",""
"image-selector-fb","522","1352953","0.0-46.51-0.51","null","pics2/FR5.jpg,pics2/VE6.jpg","","","","","","","false","null","","","noS.png","","",""
"image-slider-2AFC","523","1355593","0.0-46.51-1.51","2636","","","","66","","","","","","","","heartS.png","1430","66",""
"html-keyboard-response","524","1356416","0.0-46.51-2.51","null","","","","","","","null","","","","","","","",""
"image-selector-fb","525","1359481","0.0-46.52-0.52","null","pics2/SW4.jpg,pics2/SW3.jpg","","","","","","","false","null","","","noS.png","","",""
"image-slider-2AFC","526","1362344","0.0-46.52-1.52","2849","","","","79","","","","","","","","heartS.png","1936","79",""
"html-keyboard-response","527","1363247","0.0-46.52-2.52","null","","","","","","","null","","","","","","","",""
"image-selector-fb","528","1365094","0.0-46.53-0.53","1328","pics2/VE6.jpg,pics2/SA4.jpg","","","","","","","true","1","","","sizeS.png","","",""
"image-slider-2AFC","529","1368998","0.0-46.53-1.53","3899","","","","62","","","","","","","","heartS.png","2000","62",""
"html-keyboard-response","530","1370019","0.0-46.53-2.53","null","","","","","","","null","","","","","","","",""
"image-selector-fb","531","1371758","0.0-46.54-0.54","1209","pics2/VE3.jpg,pics2/SW1.jpg","","","","","","","true","1","","","sizeS.png","","",""
"image-slider-2AFC","532","1374243","0.0-46.54-1.54","2464","","","","76","","","","","","","","heartS.png","1503","76",""
"html-keyboard-response","533","1375060","0.0-46.54-2.54","null","","","","","","","null","","","","","","","",""
"image-selector-fb","534","1378091","0.0-46.55-0.55","null","pics2/SW6.jpg,pics2/SW1.jpg","","","","","","","false","null","","","noS.png","","",""
"image-slider-2AFC","535","1383132","0.0-46.55-1.55","null","","","","null","","","","","","","","heartS.png","","",""
"html-keyboard-response","536","1383940","0.0-46.55-2.55","null","","","","","","","null","","","","","","","",""
"image-selector-fb","537","1386416","0.0-46.56-0.56","1963","pics2/SW4.jpg,pics2/VE6.jpg","","","","","","","true","1","","","sizeS.png","","",""
"image-slider-2AFC","538","1389579","0.0-46.56-1.56","3157","","","","73","","","","","","","","sizeS.png","2465","73",""
"html-keyboard-response","539","1390390","0.0-46.56-2.56","null","","","","","","","null","","","","","","","",""
"image-selector-fb","540","1393512","0.0-46.57-0.57","null","pics2/VE3.jpg,pics2/SW1.jpg","","","","","","","false","null","","","noS.png","","",""
"image-slider-2AFC","541","1396367","0.0-46.57-1.57","2850","","","","99","","","","","","","","sizeS.png","1839","99",""
"html-keyboard-response","542","1397284","0.0-46.57-2.57","null","","","","","","","null","","","","","","","",""
"image-selector-fb","543","1398701","0.0-46.58-0.58","899","pics2/FR5.jpg,pics2/SW1.jpg","","","","","","","true","1","","","sizeS.png","","",""
"image-slider-2AFC","544","1401306","0.0-46.58-1.58","2598","","","","89","","","","","","","","sizeS.png","1683","89",""
"html-keyboard-response","545","1402217","0.0-46.58-2.58","null","","","","","","","null","","","","","","","",""
"image-selector-fb","546","1403598","0.0-46.59-0.59","850","pics2/FR5.jpg,pics2/FR1.jpg","","","","","","","true","1","","","sizeS.png","","",""
"image-slider-2AFC","547","1406412","0.0-46.59-1.59","2809","","","","86","","","","","","","","sizeS.png","1845","86",""
"html-keyboard-response","548","1407155","0.0-46.59-2.59","null","","","","","","","null","","","","","","","",""
"image-selector-fb","549","1408797","0.0-46.60-0.60","1099","pics2/SW3.jpg,pics2/SW1.jpg","","","","","","","true","1","","","sizeS.png","","",""
"image-slider-2AFC","550","1411144","0.0-46.60-1.60","2323","","","","89","","","","","","","","sizeS.png","1310","89",""
"html-keyboard-response","551","1412129","0.0-46.60-2.60","null","","","","","","","null","","","","","","","",""
"image-selector-fb","552","1414269","0.0-46.61-0.61","1616","pics2/SA4.jpg,pics2/VE6.jpg","","","","","","","false","0","","","heartS.png","","",""
"image-slider-2AFC","553","1416295","0.0-46.61-1.61","2017","","","","-36","","","","","","","","heartS.png","1377","-36",""
"html-keyboard-response","554","1417258","0.0-46.61-2.61","null","","","","","","","null","","","","","","","",""
"image-selector-fb","555","1420296","0.0-46.62-0.62","null","pics2/SW6.jpg,pics2/SW4.jpg","","","","","","","false","null","","","noS.png","","",""
"image-slider-2AFC","556","1422197","0.0-46.62-1.62","1894","","","","59","","","","","","","","heartS.png","1180","59",""
"html-keyboard-response","557","1422940","0.0-46.62-2.62","null","","","","","","","null","","","","","","","",""
"image-selector-fb","558","1424541","0.0-46.63-0.63","1079","pics2/SW5.jpg,pics2/FR1.jpg","","","","","","","true","1","","","sizeS.png","","",""
"image-slider-2AFC","559","1426916","0.0-46.63-1.63","2369","","","","75","","","","","","","","heartS.png","1475","75",""
"html-keyboard-response","560","1427653","0.0-46.63-2.63","null","","","","","","","null","","","","","","","",""
"image-selector-fb","561","1430711","0.0-46.64-0.64","null","pics2/SW4.jpg,pics2/SW1.jpg","","","","","","","false","null","","","noS.png","","",""
"image-slider-2AFC","562","1432748","0.0-46.64-1.64","2028","","","","69","","","","","","","","heartS.png","1361","69",""
"html-keyboard-response","563","1433576","0.0-46.64-2.64","null","","","","","","","null","","","","","","","",""
"image-selector-fb","564","1436723","0.0-46.65-0.65","null","pics2/VE3.jpg,pics2/FR1.jpg","","","","","","","false","null","","","noS.png","","",""
"image-slider-2AFC","565","1440308","0.0-46.65-1.65","3579","","","","53","","","","","","","","heartS.png","2821","53",""
"html-keyboard-response","566","1441081","0.0-46.65-2.65","null","","","","","","","null","","","","","","","",""
"pavlovia","567","1441175","0.0-47.0","","","","","","","","","","","","","","","",""
"html-keyboard-response","568","1446236","0.0-48.0","null","<div style='width: 700px;'> <font size=6><b>SHORT BREAK</font></b><br><br><i> Please wait 5 seconds to continue</i></div> ","","","","","","null","","","","","","","",""
"pavlovia","569","1446240","0.0-49.0","","","","","","","","","","","","","","","",""
"html-button-response","570","1447733","0.0-50.0","1489","<div style='width: 700px;'> <font size=6><b>BLOCK 3</font></b><br><br>Press the button whenever you feel ready to start the third and final block</div>","0","","","","","","","","","","","","",""
"image-selector-fb","571","1450755","0.0-51.0-0.0","null","pics2/SW6.jpg,pics2/SA4.jpg","","","","","","","false","null","","","noS.png","","",""
"image-slider-2AFC","572","1453285","0.0-51.0-1.0","2525","","","","74","","","","","","","","sizeS.png","1697","74",""
"html-keyboard-response","573","1454212","0.0-51.0-2.0","null","","","","","","","null","","","","","","","",""
"image-selector-fb","574","1457278","0.0-51.1-0.1","null","pics2/FR5.jpg,pics2/SW3.jpg","","","","","","","false","null","","","noS.png","","",""
"image-slider-2AFC","575","1459706","0.0-51.1-1.1","2423","","","","53","","","","","","","","heartS.png","1530","53",""
"html-keyboard-response","576","1460651","0.0-51.1-2.1","null","","","","","","","null","","","","","","","",""
"image-selector-fb","577","1462594","0.0-51.2-0.2","1420","pics2/FR5.jpg,pics2/SW6.jpg","","","","","","","false","0","","","sizeS.png","","",""
"image-slider-2AFC","578","1465045","0.0-51.2-1.2","2440","","","","-55","","","","","","","","heartS.png","1473","-55",""
"html-keyboard-response","579","1465889","0.0-51.2-2.2","null","","","","","","","null","","","","","","","",""
"image-selector-fb","580","1468952","0.0-51.3-0.3","null","pics2/SA4.jpg,pics2/FR3.jpg","","","","","","","false","null","","","noS.png","","",""
"image-slider-2AFC","581","1471099","0.0-51.3-1.3","2142","","","","-63","","","","","","","","sizeS.png","1480","-63",""
"html-keyboard-response","582","1471999","0.0-51.3-2.3","null","","","","","","","null","","","","","","","",""
"image-selector-fb","583","1475068","0.0-51.4-0.4","null","pics2/SW4.jpg,pics2/VE3.jpg","","","","","","","false","null","","","noS.png","","",""
"image-slider-2AFC","584","1477632","0.0-51.4-1.4","2555","","","","41","","","","","","","","sizeS.png","1951","41",""
"html-keyboard-response","585","1478377","0.0-51.4-2.4","null","","","","","","","null","","","","","","","",""
"image-selector-fb","586","1480107","0.0-51.5-0.5","1148","pics2/VE6.jpg,pics2/SW5.jpg","","","","","","","false","0","","","sizeS.png","","",""
"image-slider-2AFC","587","1482676","0.0-51.5-1.5","2562","","","","-56","","","","","","","","sizeS.png","1449","-56",""
"html-keyboard-response","588","1483518","0.0-51.5-2.5","null","","","","","","","null","","","","","","","",""
"image-selector-fb","589","1485102","0.0-51.6-0.6","1062","pics2/SW6.jpg,pics2/FR1.jpg","","","","","","","true","1","","","heartS.png","","",""
"image-slider-2AFC","590","1490117","0.0-51.6-1.6","null","","","","null","","","","","","","","heartS.png","973","62",""
"html-keyboard-response","591","1491029","0.0-51.6-2.6","null","","","","","","","null","","","","","","","",""
"image-selector-fb","592","1493220","0.0-51.7-0.7","1676","pics2/SW3.jpg,pics2/FR1.jpg","","","","","","","true","1","","","sizeS.png","","",""
"image-slider-2AFC","593","1495700","0.0-51.7-1.7","2471","","","","67","","","","","","","","sizeS.png","1307","67",""
"html-keyboard-response","594","1496586","0.0-51.7-2.7","null","","","","","","","null","","","","","","","",""
"image-selector-fb","595","1498314","0.0-51.8-0.8","1177","pics2/SW3.jpg,pics2/SW4.jpg","","","","","","","false","0","","","heartS.png","","",""
"image-slider-2AFC","596","1500441","0.0-51.8-1.8","2120","","","","-70","","","","","","","","heartS.png","1304","-70",""
"html-keyboard-response","597","1501211","0.0-51.8-2.8","null","","","","","","","null","","","","","","","",""
"image-selector-fb","598","1502898","0.0-51.9-0.9","1062","pics2/SW1.jpg,pics2/SA4.jpg","","","","","","","false","0","","","heartS.png","","",""
"image-slider-2AFC","599","1505391","0.0-51.9-1.9","2482","","","","-77","","","","","","","","sizeS.png","1485","-77",""
"html-keyboard-response","600","1506229","0.0-51.9-2.9","null","","","","","","","null","","","","","","","",""
"image-selector-fb","601","1508432","0.0-51.10-0.10","1679","pics2/SW6.jpg,pics2/SW4.jpg","","","","","","","true","1","","","heartS.png","","",""
"image-slider-2AFC","602","1511334","0.0-51.10-1.10","2885","","","","61","","","","","","","","sizeS.png","1937","61",""
"html-keyboard-response","603","1512244","0.0-51.10-2.10","null","","","","","","","null","","","","","","","",""
"image-selector-fb","604","1514325","0.0-51.11-0.11","1557","pics2/FR3.jpg,pics2/VE3.jpg","","","","","","","true","1","","","sizeS.png","","",""
"image-slider-2AFC","605","1516735","0.0-51.11-1.11","2405","","","","9","","","","","","","","sizeS.png","1762","9",""
"html-keyboard-response","606","1517542","0.0-51.11-2.11","null","","","","","","","null","","","","","","","",""
"image-selector-fb","607","1519070","0.0-51.12-0.12","983","pics2/SW3.jpg,pics2/SW6.jpg","","","","","","","false","0","","","sizeS.png","","",""
"image-slider-2AFC","608","1521626","0.0-51.12-1.12","2552","","","","-57","","","","","","","","heartS.png","1554","-57",""
"html-keyboard-response","609","1522532","0.0-51.12-2.12","null","","","","","","","null","","","","","","","",""
"image-selector-fb","610","1524600","0.0-51.13-0.13","1452","pics2/SW3.jpg,pics2/SA4.jpg","","","","","","","false","0","","","heartS.png","","",""
"image-slider-2AFC","611","1527265","0.0-51.13-1.13","2648","","","","-65","","","","","","","","heartS.png","1297,1384","-65,-65",""
"html-keyboard-response","612","1528105","0.0-51.13-2.13","null","","","","","","","null","","","","","","","",""
"image-selector-fb","613","1531174","0.0-51.14-0.14","null","pics2/FR2.jpg,pics2/SW5.jpg","","","","","","","false","null","","","noS.png","","",""
"image-slider-2AFC","614","1533659","0.0-51.14-1.14","2473","","","","-46","","","","","","","","sizeS.png","1617","-46",""
"html-keyboard-response","615","1534535","0.0-51.14-2.14","null","","","","","","","null","","","","","","","",""
"image-selector-fb","616","1537569","0.0-51.15-0.15","null","pics2/FR5.jpg,pics2/FR2.jpg","","","","","","","false","null","","","noS.png","","",""
"image-slider-2AFC","617","1540238","0.0-51.15-1.15","2665","","","","74","","","","","","","","sizeS.png","1856","74",""
"html-keyboard-response","618","1540972","0.0-51.15-2.15","null","","","","","","","null","","","","","","","",""
"image-selector-fb","619","1543201","0.0-51.16-0.16","1719","pics2/FR3.jpg,pics2/SW6.jpg","","","","","","","false","0","","","sizeS.png","","",""
"image-slider-2AFC","620","1546040","0.0-51.16-1.16","2832","","","","-11","","","","","","","","sizeS.png","2227","-11",""
"html-keyboard-response","621","1546871","0.0-51.16-2.16","null","","","","","","","null","","","","","","","",""
"image-selector-fb","622","1548615","0.0-51.17-0.17","1227","pics2/VE6.jpg,pics2/SW6.jpg","","","","","","","false","0","","","sizeS.png","","",""
"image-slider-2AFC","623","1551789","0.0-51.17-1.17","3170","","","","-12","","","","","","","","heartS.png","1479","-12",""
"html-keyboard-response","624","1552666","0.0-51.17-2.17","null","","","","","","","null","","","","","","","",""
"image-selector-fb","625","1554751","0.0-51.18-0.18","1538","pics2/FR3.jpg,pics2/SW5.jpg","","","","","","","false","0","","","sizeS.png","","",""
"image-slider-2AFC","626","1556914","0.0-51.18-1.18","2158","","","","38","","","","","","","","heartS.png","1380","38",""
"html-keyboard-response","627","1557767","0.0-51.18-2.18","null","","","","","","","null","","","","","","","",""
"image-selector-fb","628","1559589","0.0-51.19-0.19","1308","pics2/FR1.jpg,pics2/SA4.jpg","","","","","","","false","0","","","heartS.png","","",""
"image-slider-2AFC","629","1561157","0.0-51.19-1.19","1563","","","","-34","","","","","","","","heartS.png","780","-34",""
"html-keyboard-response","630","1562042","0.0-51.19-2.19","null","","","","","","","null","","","","","","","",""
"image-selector-fb","631","1563766","0.0-51.20-0.20","1172","pics2/SW4.jpg,pics2/VE3.jpg","","","","","","","false","0","","","sizeS.png","","",""
"image-slider-2AFC","632","1565958","0.0-51.20-1.20","2179","","","","-53","","","","","","","","heartS.png","1396","-53",""
"html-keyboard-response","633","1566922","0.0-51.20-2.20","null","","","","","","","null","","","","","","","",""
"image-selector-fb","634","1570085","0.0-51.21-0.21","null","pics2/SW4.jpg,pics2/FR3.jpg","","","","","","","false","null","","","noS.png","","",""
"image-slider-2AFC","635","1572256","0.0-51.21-1.21","2167","","","","-29","","","","","","","","sizeS.png","1461","-29",""
"html-keyboard-response","636","1573143","0.0-51.21-2.21","null","","","","","","","null","","","","","","","",""
"image-selector-fb","637","1574806","0.0-51.22-0.22","1139","pics2/SW3.jpg,pics2/SW5.jpg","","","","","","","false","0","","","sizeS.png","","",""
"image-slider-2AFC","638","1577400","0.0-51.22-1.22","2580","","","","-48","","","","","","","","sizeS.png","1647","-48",""
"html-keyboard-response","639","1578136","0.0-51.22-2.22","null","","","","","","","null","","","","","","","",""
"image-selector-fb","640","1580110","0.0-51.23-0.23","1445","pics2/SW4.jpg,pics2/SW5.jpg","","","","","","","false","0","","","sizeS.png","","",""
"image-slider-2AFC","641","1582664","0.0-51.23-1.23","2532","","","","-37","","","","","","","","sizeS.png","1635","-37",""
"html-keyboard-response","642","1583441","0.0-51.23-2.23","null","","","","","","","null","","","","","","","",""
"image-selector-fb","643","1586477","0.0-51.24-0.24","null","pics2/SW6.jpg,pics2/VE6.jpg","","","","","","","false","null","","","noS.png","","",""
"image-slider-2AFC","644","1589607","0.0-51.24-1.24","3122","","","","-32","","","","","","","","heartS.png","2399","-32",""
"html-keyboard-response","645","1590346","0.0-51.24-2.24","null","","","","","","","null","","","","","","","",""
"image-selector-fb","646","1592471","0.0-51.25-0.25","1604","pics2/SW6.jpg,pics2/VE3.jpg","","","","","","","false","0","","","heartS.png","","",""
"image-slider-2AFC","647","1595053","0.0-51.25-1.25","2570","","","","-42","","","","","","","","sizeS.png","1649","-42",""
"html-keyboard-response","648","1595884","0.0-51.25-2.25","null","","","","","","","null","","","","","","","",""
"image-selector-fb","649","1598962","0.0-51.26-0.26","null","pics2/SW6.jpg,pics2/FR3.jpg","","","","","","","false","null","","","noS.png","","",""
"image-slider-2AFC","650","1601463","0.0-51.26-1.26","2495","","","","28","","","","","","","","sizeS.png","1740","28",""
"html-keyboard-response","651","1602297","0.0-51.26-2.26","null","","","","","","","null","","","","","","","",""
"image-selector-fb","652","1603989","0.0-51.27-0.27","1179","pics2/VE6.jpg,pics2/SW4.jpg","","","","","","","true","1","","","heartS.png","","",""
"image-slider-2AFC","653","1607102","0.0-51.27-1.27","3108","","","","55","","","","","","","","heartS.png","2086","55",""
"html-keyboard-response","654","1608044","0.0-51.27-2.27","null","","","","","","","null","","","","","","","",""
"image-selector-fb","655","1611113","0.0-51.28-0.28","null","pics2/FR5.jpg,pics2/SW4.jpg","","","","","","","false","null","","","noS.png","","",""
"image-slider-2AFC","656","1613564","0.0-51.28-1.28","2438","","","","54","","","","","","","","heartS.png","1553","54",""
"html-keyboard-response","657","1614391","0.0-51.28-2.28","null","","","","","","","null","","","","","","","",""
"image-selector-fb","658","1616303","0.0-51.29-0.29","1398","pics2/SW5.jpg,pics2/SW3.jpg","","","","","","","true","1","","","heartS.png","","",""
"image-slider-2AFC","659","1618245","0.0-51.29-1.29","1936","","","","60","","","","","","","","sizeS.png","1013","60",""
"html-keyboard-response","660","1618994","0.0-51.29-2.29","null","","","","","","","null","","","","","","","",""
"image-selector-fb","661","1620669","0.0-51.30-0.30","1167","pics2/VE3.jpg,pics2/FR3.jpg","","","","","","","true","1","","","heartS.png","","",""
"image-slider-2AFC","662","1622825","0.0-51.30-1.30","2150","","","","56","","","","","","","","heartS.png","1285","56",""
"html-keyboard-response","663","1623683","0.0-51.30-2.30","null","","","","","","","null","","","","","","","",""
"image-selector-fb","664","1626823","0.0-51.31-0.31","null","pics2/FR2.jpg,pics2/FR1.jpg","","","","","","","false","null","","","noS.png","","",""
"image-slider-2AFC","665","1629552","0.0-51.31-1.31","2717","","","","55","","","","","","","","heartS.png","1504","55",""
"html-keyboard-response","666","1630284","0.0-51.31-2.31","null","","","","","","","null","","","","","","","",""
"image-selector-fb","667","1631895","0.0-51.32-0.32","1104","pics2/FR1.jpg,pics2/SW1.jpg","","","","","","","true","1","","","sizeS.png","","",""
"image-slider-2AFC","668","1634405","0.0-51.32-1.32","2503","","","","95","","","","","","","","sizeS.png","1368","95",""
"html-keyboard-response","669","1635178","0.0-51.32-2.32","null","","","","","","","null","","","","","","","",""
"image-selector-fb","670","1637081","0.0-51.33-0.33","1372","pics2/VE3.jpg,pics2/SW3.jpg","","","","","","","true","1","","","heartS.png","","",""
"image-slider-2AFC","671","1639961","0.0-51.33-1.33","2875","","","","72","","","","","","","","sizeS.png","1897","72",""
"html-keyboard-response","672","1640817","0.0-51.33-2.33","null","","","","","","","null","","","","","","","",""
"image-selector-fb","673","1643866","0.0-51.34-0.34","null","pics2/SA4.jpg,pics2/SW5.jpg","","","","","","","false","null","","","noS.png","","",""
"image-slider-2AFC","674","1646569","0.0-51.34-1.34","2698","","","","42","","","","","","","","heartS.png","1826","42",""
"html-keyboard-response","675","1647412","0.0-51.34-2.34","null","","","","","","","null","","","","","","","",""
"image-selector-fb","676","1648964","0.0-51.35-0.35","1026","pics2/SW6.jpg,pics2/SW5.jpg","","","","","","","true","1","","","heartS.png","","",""
"image-slider-2AFC","677","1651753","0.0-51.35-1.35","2781","","","","74","","","","","","","","heartS.png","1794","74",""
"html-keyboard-response","678","1652579","0.0-51.35-2.35","null","","","","","","","null","","","","","","","",""
"image-selector-fb","679","1655621","0.0-51.36-0.36","null","pics2/SW4.jpg,pics2/FR1.jpg","","","","","","","false","null","","","noS.png","","",""
"image-slider-2AFC","680","1658427","0.0-51.36-1.36","2798","","","","61","","","","","","","","sizeS.png","1848","61",""
"html-keyboard-response","681","1659307","0.0-51.36-2.36","null","","","","","","","null","","","","","","","",""
"image-selector-fb","682","1660967","0.0-51.37-0.37","1070","pics2/VE6.jpg,pics2/FR1.jpg","","","","","","","true","1","","","sizeS.png","","",""
"image-slider-2AFC","683","1663179","0.0-51.37-1.37","2198","","","","58","","","","","","","","sizeS.png","1354","58",""
"html-keyboard-response","684","1664136","0.0-51.37-2.37","null","","","","","","","null","","","","","","","",""
"image-selector-fb","685","1665706","0.0-51.38-0.38","1047","pics2/SA4.jpg,pics2/SW1.jpg","","","","","","","true","1","","","sizeS.png","","",""
"image-slider-2AFC","686","1668096","0.0-51.38-1.38","2386","","","","81","","","","","","","","heartS.png","1365","81",""
"html-keyboard-response","687","1668972","0.0-51.38-2.38","null","","","","","","","null","","","","","","","",""
"image-selector-fb","688","1670818","0.0-51.39-0.39","1320","pics2/VE3.jpg,pics2/SW4.jpg","","","","","","","true","1","","","heartS.png","","",""
"image-slider-2AFC","689","1673116","0.0-51.39-1.39","2290","","","","64","","","","","","","","sizeS.png","1332","64",""
"html-keyboard-response","690","1674068","0.0-51.39-2.39","null","","","","","","","null","","","","","","","",""
"image-selector-fb","691","1675905","0.0-51.40-0.40","1311","pics2/SW6.jpg,pics2/SA4.jpg","","","","","","","true","1","","","heartS.png","","",""
"image-slider-2AFC","692","1678671","0.0-51.40-1.40","2763","","","","64","","","","","","","","sizeS.png","1520","64",""
"html-keyboard-response","693","1679514","0.0-51.40-2.40","null","","","","","","","null","","","","","","","",""
"image-selector-fb","694","1682241","0.0-51.41-0.41","2125","pics2/VE6.jpg,pics2/SW3.jpg","","","","","","","true","1","","","sizeS.png","","",""
"image-slider-2AFC","695","1684740","0.0-51.41-1.41","2484","","","","52","","","","","","","","heartS.png","1666","52",""
"html-keyboard-response","696","1685622","0.0-51.41-2.41","null","","","","","","","null","","","","","","","",""
"image-selector-fb","697","1687123","0.0-51.42-0.42","962","pics2/SA4.jpg,pics2/SW3.jpg","","","","","","","true","1","","","sizeS.png","","",""
"image-slider-2AFC","698","1689187","0.0-51.42-1.42","2057","","","","61","","","","","","","","sizeS.png","1109","61",""
"html-keyboard-response","699","1690060","0.0-51.42-2.42","null","","","","","","","null","","","","","","","",""
"image-selector-fb","700","1692313","0.0-51.43-0.43","1732","pics2/VE3.jpg,pics2/SW6.jpg","","","","","","","true","1","","","sizeS.png","","",""
"image-slider-2AFC","701","1694183","0.0-51.43-1.43","1864","","","","31","","","","","","","","sizeS.png","1139","31",""
"html-keyboard-response","702","1694998","0.0-51.43-2.43","null","","","","","","","null","","","","","","","",""
"image-selector-fb","703","1696976","0.0-51.44-0.44","1443","pics2/SW5.jpg,pics2/FR2.jpg","","","","","","","true","1","","","sizeS.png","","",""
"image-slider-2AFC","704","1699417","0.0-51.44-1.44","2433","","","","42","","","","","","","","sizeS.png","1627","42",""
"html-keyboard-response","705","1700264","0.0-51.44-2.44","null","","","","","","","null","","","","","","","",""
"image-selector-fb","706","1703331","0.0-51.45-0.45","null","pics2/SW3.jpg,pics2/FR1.jpg","","","","","","","false","null","","","noS.png","","",""
"image-slider-2AFC","707","1706298","0.0-51.45-1.45","2957","","","","-36","","","","","","","","heartS.png","1903","-36",""
"html-keyboard-response","708","1707108","0.0-51.45-2.45","null","","","","","","","null","","","","","","","",""
"image-selector-fb","709","1708934","0.0-51.46-0.46","1303","pics2/SW1.jpg,pics2/FR2.jpg","","","","","","","false","0","","","heartS.png","","",""
"image-slider-2AFC","710","1711381","0.0-51.46-1.46","2442","","","","-60","","","","","","","","sizeS.png","1368","-60",""
