"trial_type","trial_index","time_elapsed","internal_node_id","rt","stimulus","button_pressed","success","response","cat","value","key_press","correct","image_click","first_click_rt","first_click_val","symbol","all_click_rt","all_click_val","view_history"
"pavlovia","0","14","0.0-0.0","","","","","","","","","","","","","","","",""
"html-button-response","1","5767","0.0-1.0","5746","<div style='width: 700px; font-size: 150%'><font size='40'>  Welcome to our study!</font><br><br><br> <small> Our experiment is about <i>decision making</i>. You will choose and rate different food items, such as these: <br><br> <div><img src='food_combo2.png', height = '400px'></img></div>","0","","","","","","","","","","","","",""
"html-button-response","2","16773","0.0-2.0","10999","<div style='width: 700px; font-size: 150%'><br><br><br><small> <u><i>This is a multi-part study.</i></u><br><br> In the first part you will rate 24 food items twice.<br><br><div><img src=""rat1.png"" style=""width: 25%""></img></div><br>In the second part (longest) you will make repeated choices and judgements concerning the food items.<br><br><div><img src=""mainx.png"" style=""width: 50%""></img></div><br>In the third and final part, you will rate the items again and answer few short questionnaires.<br><br><div><img src=""rat2.png"" style=""width: 50%""></img></div><br><br>","0","","","","","","","","","","","","",""
"fullscreen","3","23587","0.0-3.0","","","","true","","","","","","","","","","","",""
"html-button-response","4","99612","0.0-4.0","76018","<div style='width: 900px; font-size: 150%;' <font size='20%'> In the first part of the task you will use the mouse to rate food items on <i>2 scales</i> </font></div><br><br><div style='width: 900px'><div style='float: left; width: 50%; margin-right:2.5em'><img src='heartS.png'></img><p class='small' style='text-align: justify'>When you see the heart cue you will rate food items in terms of how much like them/would like to eat them <i>right now</i>. You will rate them on a continuous scale from left (strong dislike) to right (strong liking). Before submitting your rating, try imagining how the item tastes and how much you desire it.<br><br></p></div><div ><img src='sizeS.png'></img><p class='small' style='text-align: justify'>When you see the size cue, you will rate the same food items in terms of their size. The scale goes from left (tiny) to right (very large). You should assess picture size <i><u>relative</i></u> to the white background. <b>Remember:</b> rate the size of the picture, <u>not</u> the size of the item in real life. </p></div><div style='width: 900px'><br><br><b><i>Notice:</b> by starting the rating you agree that your sumbission might be rejected at an early stage and the experiment might end, if your size ratings are not at least modestly related to objective sizes, or if you repeat the same value ratings too many times. If you don't agree, please exit by closing the browser window. </i><br><br><br>","0","","","","","","","","","","","","",""
"html-button-response","5","118878","0.0-5.0","19263","<div><img src='heartS.png'></img></div><br><div style='text-align: justify; width: 700px'>Using the mouse, rate the <b><i>likeness</b></i> of the food items (how much you like them/would like to eat them <i>right now</i>). Far right-end of the scale indicates an item you <i>like a lot</i>. Far left-end indicates an item you <i>dislike a lot</i>. Think about each answer.   <ul><li>Try <b><i>not</b></i> to give identical rating to different items.</li><li>Use the whole scale, and <b><i>not</b></i> just the extremes</ul></div><br>","0","","","","","","","","","","","","",""
"image-slider-response","6","130241","0.0-6.0-0.0-0.0","11353","pics2/FR5.jpg","","","69","FR","","","","","","","","","",""
"image-slider-response","7","136045","0.0-6.0-0.0-0.1","5596","pics2/VE5.jpg","","","60","VE","","","","","","","","","",""
"image-slider-response","8","141382","0.0-6.0-0.0-0.2","5127","pics2/SW4.jpg","","","28","SW","","","","","","","","","",""
"image-slider-response","9","146097","0.0-6.0-0.0-0.3","4508","pics2/VE3.jpg","","","51","VE","","","","","","","","","",""
"image-slider-response","10","150355","0.0-6.0-0.0-0.4","4055","pics2/SW3.jpg","","","83","SW","","","","","","","","","",""
"image-slider-response","11","158348","0.0-6.0-0.0-0.5","7785","pics2/SA1.jpg","","","58","SA","","","","","","","","","",""
"image-slider-response","12","164992","0.0-6.0-0.0-0.6","6435","pics2/SA4.jpg","","","91","SA","","","","","","","","","",""
"image-slider-response","13","170400","0.0-6.0-0.0-0.7","5199","pics2/SA2.jpg","","","80","SA","","","","","","","","","",""
"image-slider-response","14","176143","0.0-6.0-0.0-0.8","5535","pics2/SA6.jpg","","","33","SA","","","","","","","","","",""
"image-slider-response","15","180514","0.0-6.0-0.0-0.9","4161","pics2/VE2.jpg","","","50","VE","","","","","","","","","",""
"image-slider-response","16","186128","0.0-6.0-0.0-0.10","5405","pics2/FR6.jpg","","","64","FR","","","","","","","","","",""
"image-slider-response","17","190674","0.0-6.0-0.0-0.11","4339","pics2/FR2.jpg","","","70","FR","","","","","","","","","",""
"image-slider-response","18","195193","0.0-6.0-0.0-0.12","4313","pics2/SA3.jpg","","","94","SA","","","","","","","","","",""
"image-slider-response","19","199576","0.0-6.0-0.0-0.13","4176","pics2/VE6.jpg","","","59","VE","","","","","","","","","",""
"image-slider-response","20","207262","0.0-6.0-0.0-0.14","7478","pics2/SW5.jpg","","","72","SW","","","","","","","","","",""
"image-slider-response","21","213695","0.0-6.0-0.0-0.15","6225","pics2/SW2.jpg","","","43","SW","","","","","","","","","",""
"image-slider-response","22","217630","0.0-6.0-0.0-0.16","3728","pics2/SW6.jpg","","","41","SW","","","","","","","","","",""
"image-slider-response","23","222769","0.0-6.0-0.0-0.17","4932","pics2/FR1.jpg","","","70","FR","","","","","","","","","",""
"image-slider-response","24","228643","0.0-6.0-0.0-0.18","5665","pics2/SA5.jpg","","","55","SA","","","","","","","","","",""
"image-slider-response","25","231891","0.0-6.0-0.0-0.19","3041","pics2/VE1.jpg","","","63","VE","","","","","","","","","",""
"image-slider-response","26","235701","0.0-6.0-0.0-0.20","3603","pics2/FR3.jpg","","","96","FR","","","","","","","","","",""
"image-slider-response","27","238889","0.0-6.0-0.0-0.21","2980","pics2/FR4.jpg","","","85","FR","","","","","","","","","",""
"image-slider-response","28","241612","0.0-6.0-0.0-0.22","2515","pics2/SW1.jpg","","","62","SW","","","","","","","","","",""
"image-slider-response","29","245747","0.0-6.0-0.0-0.23","3926","pics2/VE4.jpg","","","14","VE","","","","","","","","","",""
"html-button-response","30","246974","0.0-7.0","1022","<div style='width: 900px;'> <font size = 6><b> End of the first rating</b><br><br>","0","","","","","","","","","","","","",""
"html-button-response","31","283754","0.0-9.0","36776","<div ><img src='sizeS.png'></img></div><br><div style='text-align: justify; width: 700px'> Using the mouse, rate the <b><i>size</b></i> of the food items <b><i> relative to the white background.</b></i> Right-end of the scale indicates a <i>very large item</i>, which covers a large portion of the white rectangle. Left-end indicates a <i>very tiny</i> item which covers a tiny portion of the white rectangle.<br><br><i><u>Remember</i></u>: everything that is not the white background also contributes to item size (e.g. packing, plates, ect.)<br><br> Please keep in mind that if the accuracy of ratings do not allign well with actual sizes, the experiment will end.  As a result it will be consider incomplete and therefore no payment would be made. Good luck!<br><br></div><br>","0","","","","","","","","","","","","",""
"html-button-response","32","289612","0.0-10.0","5855","<div ><img src='sizeS.png'></img></div><br><b><font size=6>Examples of items that you might encounter</b><br><div style='width: 750px;'><div style='width: 33.33%; float:left'><br><br><br><i>Large Item</i><br><br><img src='large.jpg', width=200px></img></div><div style='float:right'><br><br><br><i>Small Item</i><br><br><img src='small.jpg', width=200px></img></div><div ><br><br><br><i>Medium Item</i><br><br><img src='med.jpg', width=200px></img></div></div><br><br>","0","","","","","","","","","","","","",""
"image-slider-response","33","299334","0.0-11.0-0.0-0.0","9717","pics2/SA2.jpg","","","50","null","","","","","","","","","",""
"image-slider-response","34","303300","0.0-11.0-0.0-0.1","3756","pics2/SW3.jpg","","","58","null","","","","","","","","","",""
"image-slider-response","35","308129","0.0-11.0-0.0-0.2","4621","pics2/SA5.jpg","","","54","null","","","","","","","","","",""
"image-slider-response","36","312572","0.0-11.0-0.0-0.3","4235","pics2/FR1.jpg","","","90","null","","","","","","","","","",""
"image-slider-response","37","316773","0.0-11.0-0.0-0.4","3994","pics2/SW6.jpg","","","53","null","","","","","","","","","",""
"image-slider-response","38","320119","0.0-11.0-0.0-0.5","3140","pics2/FR4.jpg","","","99","null","","","","","","","","","",""
"image-slider-response","39","323512","0.0-11.0-0.0-0.6","3185","pics2/VE5.jpg","","","38","null","","","","","","","","","",""
"image-slider-response","40","330695","0.0-11.0-0.0-0.7","6972","pics2/FR5.jpg","","","66","null","","","","","","","","","",""
"image-slider-response","41","336324","0.0-11.0-0.0-0.8","5421","pics2/SA6.jpg","","","58","null","","","","","","","","","",""
"image-slider-response","42","341878","0.0-11.0-0.0-0.9","5345","pics2/SA4.jpg","","","24","null","","","","","","","","","",""
"image-slider-response","43","344807","0.0-11.0-0.0-0.10","2721","pics2/SW4.jpg","","","57","null","","","","","","","","","",""
"image-slider-response","44","348375","0.0-11.0-0.0-0.11","3360","pics2/FR2.jpg","","","52","null","","","","","","","","","",""
"image-slider-response","45","352842","0.0-11.0-0.0-0.12","4259","pics2/FR3.jpg","","","86","null","","","","","","","","","",""
"image-slider-response","46","355421","0.0-11.0-0.0-0.13","2374","pics2/VE3.jpg","","","86","null","","","","","","","","","",""
"image-slider-response","47","358360","0.0-11.0-0.0-0.14","2732","pics2/FR6.jpg","","","41","null","","","","","","","","","",""
"image-slider-response","48","366198","0.0-11.0-0.0-0.15","7621","pics2/VE6.jpg","","","13","null","","","","","","","","","",""
"image-slider-response","49","369213","0.0-11.0-0.0-0.16","2808","pics2/VE4.jpg","","","43","null","","","","","","","","","",""
"image-slider-response","50","372216","0.0-11.0-0.0-0.17","2794","pics2/VE2.jpg","","","93","null","","","","","","","","","",""
"image-slider-response","51","379880","0.0-11.0-0.0-0.18","7458","pics2/VE1.jpg","","","90","null","","","","","","","","","",""
"image-slider-response","52","387367","0.0-11.0-0.0-0.19","7283","pics2/SA1.jpg","","","100","null","","","","","","","","","",""
"image-slider-response","53","390258","0.0-11.0-0.0-0.20","2681","pics2/SW2.jpg","","","86","null","","","","","","","","","",""
"image-slider-response","54","393110","0.0-11.0-0.0-0.21","2645","pics2/SW5.jpg","","","79","null","","","","","","","","","",""
"image-slider-response","55","396924","0.0-11.0-0.0-0.22","3608","pics2/SA3.jpg","","","76","null","","","","","","","","","",""
"image-slider-response","56","400633","0.0-11.0-0.0-0.23","3505","pics2/SW1.jpg","","","97","null","","","","","","","","","",""
"html-button-response","57","401910","0.0-12.0","1071","<div style='width: 900px;'> <font size = 6><b> End of the second rating</b><br><br>","0","","","","","","","","","","","","",""
"html-button-response","58","405616","0.0-13.0","3703","<div style='width: 900px;'>Now please rate the items for the second time. <br><br>This is not a memory test - you don't need to be consistent with your previous ratings. Just as before, try to make accurate judgements.<br><br>","0","","","","","","","","","","","","",""
"html-button-response","59","411793","0.0-14.0","6174","<div><img src='heartS.png'></img></div><br><div style='text-align: justify; width: 700px'>Using the mouse, rate the <b><i>likeness</b></i> of the food items (how much you like them/would like to eat them <i>right now</i>). Far right-end of the scale indicates an item you <i>like a lot</i>. Far left-end indicates an item you <i>dislike a lot</i>. Think about each answer.   <ul><li>Try <b><i>not</b></i> to give identical rating to different items.</li><li>Use the whole scale, and <b><i>not</b></i> just the extremes</ul></div><br>","0","","","","","","","","","","","","",""
"image-slider-response","60","415190","0.0-15.0-0.0-0.0","3392","pics2/SW3.jpg","","","90","SW","","","","","","","","","",""
"image-slider-response","61","419378","0.0-15.0-0.0-0.1","3979","pics2/SW1.jpg","","","56","SW","","","","","","","","","",""
"image-slider-response","62","425189","0.0-15.0-0.0-0.2","5606","pics2/SW2.jpg","","","40","SW","","","","","","","","","",""
"image-slider-response","63","429023","0.0-15.0-0.0-0.3","3624","pics2/VE5.jpg","","","53","VE","","","","","","","","","",""
"image-slider-response","64","438329","0.0-15.0-0.0-0.4","9099","pics2/FR1.jpg","","","63","FR","","","","","","","","","",""
"image-slider-response","65","441097","0.0-15.0-0.0-0.5","2561","pics2/FR3.jpg","","","100","FR","","","","","","","","","",""
"image-slider-response","66","444221","0.0-15.0-0.0-0.6","2918","pics2/SA5.jpg","","","63","SA","","","","","","","","","",""
"image-slider-response","67","446852","0.0-15.0-0.0-0.7","2422","pics2/SW4.jpg","","","28","SW","","","","","","","","","",""
"image-slider-response","68","449282","0.0-15.0-0.0-0.8","2226","pics2/VE6.jpg","","","38","VE","","","","","","","","","",""
"image-slider-response","69","455560","0.0-15.0-0.0-0.9","6072","pics2/FR2.jpg","","","61","FR","","","","","","","","","",""
"image-slider-response","70","458194","0.0-15.0-0.0-0.10","2431","pics2/FR5.jpg","","","72","FR","","","","","","","","","",""
"image-slider-response","71","460844","0.0-15.0-0.0-0.11","2439","pics2/SW6.jpg","","","36","SW","","","","","","","","","",""
"image-slider-response","72","464550","0.0-15.0-0.0-0.12","3502","pics2/SA4.jpg","","","54","SA","","","","","","","","","",""
"image-slider-response","73","467079","0.0-15.0-0.0-0.13","2324","pics2/VE4.jpg","","","11","VE","","","","","","","","","",""
"image-slider-response","74","469534","0.0-15.0-0.0-0.14","2252","pics2/SA6.jpg","","","30","SA","","","","","","","","","",""
"image-slider-response","75","471917","0.0-15.0-0.0-0.15","2168","pics2/SA2.jpg","","","77","SA","","","","","","","","","",""
"image-slider-response","76","474456","0.0-15.0-0.0-0.16","2329","pics2/FR4.jpg","","","96","FR","","","","","","","","","",""
"image-slider-response","77","477389","0.0-15.0-0.0-0.17","2723","pics2/VE3.jpg","","","50","VE","","","","","","","","","",""
"image-slider-response","78","480614","0.0-15.0-0.0-0.18","3016","pics2/VE2.jpg","","","57","VE","","","","","","","","","",""
"image-slider-response","79","482983","0.0-15.0-0.0-0.19","2158","pics2/VE1.jpg","","","60","VE","","","","","","","","","",""
"image-slider-response","80","485518","0.0-15.0-0.0-0.20","2330","pics2/SA3.jpg","","","95","SA","","","","","","","","","",""
"image-slider-response","81","490442","0.0-15.0-0.0-0.21","4705","pics2/SA1.jpg","","","40","SA","","","","","","","","","",""
"image-slider-response","82","492934","0.0-15.0-0.0-0.22","2288","pics2/SW5.jpg","","","65","SW","","","","","","","","","",""
"image-slider-response","83","497044","0.0-15.0-0.0-0.23","3902","pics2/FR6.jpg","","","58","FR","","","","","","","","","",""
"call-function","84","497277","0.0-16.0","","","","","","","","","","","","","","","",""
"call-function","85","497278","0.0-17.0","","","","","","","","","","","","","","","",""
"html-button-response","86","498267","0.0-18.0","986","<div style='width: 900px;'> <font size = 6><b> End of the first rating</b><br><br>","0","","","","","","","","","","","","",""
"html-button-response","87","504843","0.0-19.0","6570","<div ><img src='sizeS.png'></img></div><br><div style='text-align: justify; width: 700px'> Using the mouse, rate the <b><i>size</b></i> of the food items <b><i> relative to the white background.</b></i> Right-end of the scale indicates a <i>very large item</i>, which covers a large portion of the white rectangle. Left-end indicates a <i>very tiny</i> item which covers a tiny portion of the white rectangle.<br><br><i><u>Remember</i></u>: everything that is not the white background also contributes to item size (e.g. packing, plates, ect.)<br><br> Please keep in mind that if the accuracy of ratings do not allign well with actual sizes, the experiment will end.  As a result it will be consider incomplete and therefore no payment would be made. Good luck!<br><br></div><br>","0","","","","","","","","","","","","",""
"image-slider-response","88","509346","0.0-20.0-0.0-0.0","4495","pics2/VE2.jpg","","","63","null","","","","","","","","","",""
"image-slider-response","89","512370","0.0-20.0-0.0-0.1","2817","pics2/SW3.jpg","","","73","null","","","","","","","","","",""
"image-slider-response","90","515246","0.0-20.0-0.0-0.2","2669","pics2/SA4.jpg","","","57","null","","","","","","","","","",""
"image-slider-response","91","518147","0.0-20.0-0.0-0.3","2696","pics2/FR2.jpg","","","65","null","","","","","","","","","",""
"image-slider-response","92","521435","0.0-20.0-0.0-0.4","3083","pics2/FR6.jpg","","","9","null","","","","","","","","","",""
"image-slider-response","93","523798","0.0-20.0-0.0-0.5","2158","pics2/SA5.jpg","","","29","null","","","","","","","","","",""
"image-slider-response","94","525924","0.0-20.0-0.0-0.6","1922","pics2/SA3.jpg","","","67","null","","","","","","","","","",""
"image-slider-response","95","534198","0.0-20.0-0.0-0.7","8070","pics2/VE6.jpg","","","6","null","","","","","","","","","",""
"image-slider-response","96","538370","0.0-20.0-0.0-0.8","3956","pics2/SA2.jpg","","","49","null","","","","","","","","","",""
"image-slider-response","97","540866","0.0-20.0-0.0-0.9","2291","pics2/SW2.jpg","","","81","null","","","","","","","","","",""
"image-slider-response","98","544620","0.0-20.0-0.0-0.10","3549","pics2/VE4.jpg","","","49","null","","","","","","","","","",""
"image-slider-response","99","554002","0.0-20.0-0.0-0.11","9178","pics2/SW4.jpg","","","53","null","","","","","","","","","",""
"image-slider-response","100","558654","0.0-20.0-0.0-0.12","4443","pics2/FR5.jpg","","","49","null","","","","","","","","","",""
"image-slider-response","101","565369","0.0-20.0-0.0-0.13","6511","pics2/SW6.jpg","","","16","null","","","","","","","","","",""
"image-slider-response","102","567625","0.0-20.0-0.0-0.14","2046","pics2/SW5.jpg","","","64","null","","","","","","","","","",""
"image-slider-response","103","573082","0.0-20.0-0.0-0.15","5250","pics2/SA6.jpg","","","20","null","","","","","","","","","",""
"image-slider-response","104","576642","0.0-20.0-0.0-0.16","3349","pics2/FR1.jpg","","","53","null","","","","","","","","","",""
"image-slider-response","105","579945","0.0-20.0-0.0-0.17","3098","pics2/VE1.jpg","","","100","null","","","","","","","","","",""
"image-slider-response","106","582358","0.0-20.0-0.0-0.18","2203","pics2/FR3.jpg","","","88","null","","","","","","","","","",""
"image-slider-response","107","584682","0.0-20.0-0.0-0.19","2114","pics2/SA1.jpg","","","82","null","","","","","","","","","",""
"image-slider-response","108","589281","0.0-20.0-0.0-0.20","4394","pics2/FR4.jpg","","","56","null","","","","","","","","","",""
"image-slider-response","109","591475","0.0-20.0-0.0-0.21","1990","pics2/VE5.jpg","","","66","null","","","","","","","","","",""
"image-slider-response","110","594132","0.0-20.0-0.0-0.22","2452","pics2/SW1.jpg","","","96","null","","","","","","","","","",""
"image-slider-response","111","597320","0.0-20.0-0.0-0.23","2976","pics2/VE3.jpg","","","79","null","","","","","","","","","",""
"call-function","112","597556","0.0-21.0","","","","","","","","","","","","","","","",""
"html-button-response","113","598591","0.0-22.0","1032","<div style='width: 900px;'> <font size = 6><b> End of the second rating</b><br><br>","0","","","","","","","","","","","","",""
"pavlovia","114","598616","0.0-23.0","","","","","","","","","","","","","","","",""
"html-keyboard-response","115","603623","0.0-24.0","null","<div style='width: 700px;'> <font size=6><b>SHORT BREAK</font></b><br><br><i> Please wait 5 seconds to continue</i></div> ","","","","","","null","","","","","","","",""
"pavlovia","116","603630","0.0-25.0","","","","","","","","","","","","","","","",""
"html-button-response","117","615808","0.0-26.0","12173","<div style='width: 700px;'>In the main part of the study, you will be choosing between 2 items. When it's time to choose,  this symbol will appear: <br><br><img src='chooseS.png'></img><br><br>Below, a cue will signify the type of choice: </div><br><div style='width: 700px;'><div style='float: left; width: 50%'><img src='heartS.png'></img><p class='small'>Heart cue means you should choose the item you <b><i>prefer</b></i> more.</p></div><div class='float: right; width:50%'><img src='sizeS.png'></img><p class='small'>Size cue means you should choose the <b><i>larger</b></i> item. </p></div></div><br><div style='width: 700px;'>When you click, a green square will appear around the item you chose.<br></div><div><br>","0","","","","","","","","","","","","",""
"image-selector-fb-tut","118","620284","0.0-27.0","3463","0232.jpg,0123.jpg","","","","","","","false","0","","","","","",""
"image-selector-fb-tut","119","623876","0.0-28.0","2586","0232.jpg,0123.jpg","","","","","","","false","0","","","","","",""
"html-button-response","120","628143","0.0-29.0","4265","<div style='width: 900px;'>Your choices should be both <b><i>fast and accurate</b></i>. <br><br>You will have <i>4 seconds</i> to make each choice, which should be enough consider the options and click on one of the items.<br><br>","0","","","","","","","","","","","","",""
"html-button-response","121","634947","0.0-30.0","6799","<div style='width: 900px;'>Additionally, on some choice trials you will see the <b><i>no-choice cue</b></i>: <br><br><img src='noS.png'></img> <br><br>This cue means you can't make any choice. You can examine the items, but  can't click on any of them. Just wait patiently for the cue to dissapear.<br><br>","0","","","","","","","","","","","","",""
"image-selector-fb-tut","122","636972","0.0-31.0","null","0232.jpg,0123.jpg","","","","","","","false","null","","","","","",""
"html-button-response","123","656295","0.0-32.0","19316","<div style='width: 900px;'>After each choice the items will remain on the screen and you will see this symbol: <br><br><img src='judgeS.png'></img> <br><br>This means you should rate<b> the magnitude of the difference</b> between the items using a scale: </div><br><div style='width: 900px; '><div style='float: left; width: 50%; margin-right: 2.5em; align-self:left'><img src='heartS.png'></img><p class='small' style = 'text-align: justify;'>Heart cue means you should rate <b>how much you prefer</b> one of the items over the other. Moving the scale indicator to the left means you prefer the left one; moving it to the right - right one. The more you prefer one of them, the more towards that side you should move the scale indicator. </p></div><div class='float: right; width: 50%; margin-left: 2.5em;'><img src='sizeS.png'></img><p class='small' style='text-align: justify'>Size cue means you should rate <b>how much larger</b> is one of the items over the other. Moving the scale indicator to the left means you think the left is larger; moving it to the right - right one. The greater the difference in size, the more towards that side you should move the scale indicator.</div><br>","0","","","","","","","","","","","","",""
"image-slider-2AFC-tut","124","665888","0.0-33.0","9581","","","","26","","","","","","","","","","",""
"image-slider-2AFC-tut","125","671180","0.0-34.0","5284","","","","24","","","","","","","","","","",""
"html-button-response","126","681595","0.0-35.0","10413","<br><br><font size = 36><b> Examples </b></font><br><br><i> 1) I would like to eat some croissants a <b>lot more</b> than doritos right now:</i><br><img src='ex1.PNG', width='62%'></img><br><br><br><i> 2) I would like to eat some doritos a <b>bit more</b> than croissants right now, but just slightly:</i><br><img src='ex2.PNG' width='62%'></img>","0","","","","","","","","","","","","",""
"html-button-response","127","684297","0.0-36.0","2698","<div style='width: 900px;'><i>Now you know everything you need to do the task!</i> <br><br>Let's start by doing a <b>short training</b>, so you'll get used to how it works. </div><br>","0","","","","","","","","","","","","",""
"image-selector-fb","128","687311","0.0-37.0-0.0","null","pics2/VE6.jpg,pics2/SW1.jpg","","","","","","","false","null","","","noS.png","","",""
"image-slider-2AFC","129","692316","0.0-37.0-1.0","null","","","","null","","","","","","","","heartS.png","","",""
"html-keyboard-response","130","693023","0.0-37.0-2.0","null","","","","","","","null","","","","","","","",""
"image-selector-fb","131","697534","0.0-37.1-0.1","null","pics2/SA6.jpg,pics2/SW4.jpg","","","","","","","false","null","","","heartS.png","","",""
"image-slider-2AFC","132","697540","0.0-37.1-1.1","null","","","","null","","","","","","","","heartS.png","","",""
"html-keyboard-response","133","698347","0.0-37.1-2.1","null","","","","","","","null","","","","","","","",""
"image-selector-fb","134","700232","0.0-37.2-0.2","1360","pics2/SA1.jpg,pics2/VE5.jpg","","","","","","","true","1","","","sizeS.png","","",""
"image-slider-2AFC","135","705245","0.0-37.2-1.2","null","","","","null","","","","","","","","heartS.png","","",""
"html-keyboard-response","136","705999","0.0-37.2-2.2","null","","","","","","","null","","","","","","","",""
"image-selector-fb","137","708250","0.0-37.3-0.3","1729","pics2/SA6.jpg,pics2/SA5.jpg","","","","","","","true","1","","","heartS.png","","",""
"image-slider-2AFC","138","713263","0.0-37.3-1.3","null","","","","null","","","","","","","","sizeS.png","","",""
"html-keyboard-response","139","713973","0.0-37.3-2.3","null","","","","","","","null","","","","","","","",""
"image-selector-fb","140","716191","0.0-37.4-0.4","1702","pics2/VE4.jpg,pics2/SW4.jpg","","","","","","","true","1","","","heartS.png","","",""
"image-slider-2AFC","141","721210","0.0-37.4-1.4","null","","","","null","","","","","","","","sizeS.png","","",""
"html-keyboard-response","142","721972","0.0-37.4-2.4","null","","","","","","","null","","","","","","","",""
"image-selector-fb","143","724995","0.0-37.5-0.5","null","pics2/SW4.jpg,pics2/SW6.jpg","","","","","","","false","null","","","noS.png","","",""
"image-slider-2AFC","144","730005","0.0-37.5-1.5","null","","","","null","","","","","","","","sizeS.png","","",""
"html-keyboard-response","145","730862","0.0-37.5-2.5","null","","","","","","","null","","","","","","","",""
"image-selector-fb","146","734538","0.0-37.6-0.6","3148","pics2/SW2.jpg,pics2/VE6.jpg","","","","","","","false","0","","","sizeS.png","","",""
"image-slider-2AFC","147","739553","0.0-37.6-1.6","null","","","","null","","","","","","","","sizeS.png","","",""
"html-keyboard-response","148","740309","0.0-37.6-2.6","null","","","","","","","null","","","","","","","",""
"image-selector-fb","149","743867","0.0-37.7-0.7","3044","pics2/SW2.jpg,pics2/VE2.jpg","","","","","","","true","1","","","sizeS.png","","",""
"image-slider-2AFC","150","748871","0.0-37.7-1.7","null","","","","null","","","","","","","","heartS.png","","",""
"html-keyboard-response","151","749624","0.0-37.7-2.7","null","","","","","","","null","","","","","","","",""
"image-selector-fb","152","752851","0.0-37.8-0.8","2711","pics2/SA1.jpg,pics2/SA5.jpg","","","","","","","false","0","","","sizeS.png","","",""
"image-slider-2AFC","153","757867","0.0-37.8-1.8","null","","","","null","","","","","","","","heartS.png","","",""
"html-keyboard-response","154","758620","0.0-37.8-2.8","null","","","","","","","null","","","","","","","",""
"image-selector-fb","155","762834","0.0-37.9-0.9","3700","pics2/SA6.jpg,pics2/VE6.jpg","","","","","","","false","0","","","heartS.png","","",""
"image-slider-2AFC","156","767844","0.0-37.9-1.9","null","","","","null","","","","","","","","heartS.png","","",""
"html-keyboard-response","157","768554","0.0-37.9-2.9","null","","","","","","","null","","","","","","","",""
"image-selector-fb","158","770292","0.0-37.10-0.10","1213","pics2/VE2.jpg,pics2/SA5.jpg","","","","","","","true","1","","","heartS.png","","",""
"image-slider-2AFC","159","775304","0.0-37.10-1.10","null","","","","null","","","","","","","","sizeS.png","","",""
"html-keyboard-response","160","776162","0.0-37.10-2.10","null","","","","","","","null","","","","","","","",""
"image-selector-fb","161","779196","0.0-37.11-0.11","null","pics2/SA5.jpg,pics2/SW1.jpg","","","","","","","false","null","","","noS.png","","",""
"image-slider-2AFC","162","784204","0.0-37.11-1.11","null","","","","null","","","","","","","","sizeS.png","","",""
"html-keyboard-response","163","784957","0.0-37.11-2.11","null","","","","","","","null","","","","","","","",""
"html-button-response","164","788172","0.0-38.0","3213","<i><font size=10>Good job!</font></i> <br><br>Before we begin, you have a chance to review the rules, in case something was not clear.<br><br>","0","","","","","","","","","","","","",""
"instructions","165","808907","0.0-39.0","20733","","","","","","","","","","","","","","","[{""page_index"":0,""viewing_time"":11558},{""page_index"":1,""viewing_time"":4997},{""page_index"":2,""viewing_time"":4176}]"
"html-button-response","166","824953","0.0-40.0","16042","<div style='width: 900px;'> <font size='40'>Great! Now you're ready to begin</font><br><br>The main part of the experiment will consist of <u>3 blocks</u>. Each block consists of 66 decisions and judgements. You will have time for a short break between blocks.<br><br><br><i><u>Do your best to respond within the time limit.</u></i><br><br><i> Press the button to start the experiment<br><br></i>","0","","","","","","","","","","","","",""
"image-selector-fb","167","827976","0.0-41.0-0.0","null","pics2/SW5.jpg,pics2/SA4.jpg","","","","","","","false","null","","","noS.png","","",""
"image-slider-2AFC","168","832983","0.0-41.0-1.0","null","","","","null","","","","","","","","heartS.png","","",""
"html-keyboard-response","169","833738","0.0-41.0-2.0","null","","","","","","","null","","","","","","","",""
"image-selector-fb","170","836772","0.0-41.1-0.1","null","pics2/VE1.jpg,pics2/SA2.jpg","","","","","","","false","null","","","noS.png","","",""
"image-slider-2AFC","171","841792","0.0-41.1-1.1","null","","","","null","","","","","","","","sizeS.png","","",""
"html-keyboard-response","172","842546","0.0-41.1-2.1","null","","","","","","","null","","","","","","","",""
"image-selector-fb","173","845827","0.0-41.2-0.2","2768","pics2/FR3.jpg,pics2/FR4.jpg","","","","","","","true","1","","","sizeS.png","","",""
"image-slider-2AFC","174","850835","0.0-41.2-1.2","null","","","","null","","","","","","","","sizeS.png","","",""
"html-keyboard-response","175","851538","0.0-41.2-2.2","null","","","","","","","null","","","","","","","",""
"image-selector-fb","176","853762","0.0-41.3-0.3","1713","pics2/FR5.jpg,pics2/SA4.jpg","","","","","","","true","1","","","heartS.png","","",""
"image-slider-2AFC","177","858781","0.0-41.3-1.3","null","","","","null","","","","","","","","heartS.png","","",""
"html-keyboard-response","178","859594","0.0-41.3-2.3","null","","","","","","","null","","","","","","","",""
"image-selector-fb","179","862759","0.0-41.4-0.4","2645","pics2/FR3.jpg,pics2/FR5.jpg","","","","","","","false","0","","","sizeS.png","","",""
"image-slider-2AFC","180","867768","0.0-41.4-1.4","null","","","","null","","","","","","","","heartS.png","","",""
"html-keyboard-response","181","868577","0.0-41.4-2.4","null","","","","","","","null","","","","","","","",""
"image-selector-fb","182","871607","0.0-41.5-0.5","null","pics2/SW3.jpg,pics2/FR5.jpg","","","","","","","false","null","","","noS.png","","",""
"image-slider-2AFC","183","876615","0.0-41.5-1.5","null","","","","null","","","","","","","","heartS.png","","",""
"html-keyboard-response","184","877318","0.0-41.5-2.5","null","","","","","","","null","","","","","","","",""
"image-selector-fb","185","880803","0.0-41.6-0.6","2971","pics2/FR1.jpg,pics2/FR4.jpg","","","","","","","true","1","","","sizeS.png","","",""
"image-slider-2AFC","186","885811","0.0-41.6-1.6","null","","","","null","","","","","","","","sizeS.png","","",""
"html-keyboard-response","187","886670","0.0-41.6-2.6","null","","","","","","","null","","","","","","","",""
"image-selector-fb","188","889697","0.0-41.7-0.7","null","pics2/SA3.jpg,pics2/FR2.jpg","","","","","","","false","null","","","noS.png","","",""
"image-slider-2AFC","189","894710","0.0-41.7-1.7","null","","","","null","","","","","","","","heartS.png","","",""
"html-keyboard-response","190","895565","0.0-41.7-2.7","null","","","","","","","null","","","","","","","",""
"image-selector-fb","191","897975","0.0-41.8-0.8","1894","pics2/VE1.jpg,pics2/SW3.jpg","","","","","","","true","1","","","heartS.png","","",""
"image-slider-2AFC","192","902987","0.0-41.8-1.8","null","","","","null","","","","","","","","heartS.png","","",""
"html-keyboard-response","193","903796","0.0-41.8-2.8","null","","","","","","","null","","","","","","","",""
"image-selector-fb","194","906486","0.0-41.9-0.9","2168","pics2/FR6.jpg,pics2/SW5.jpg","","","","","","","true","1","","","sizeS.png","","",""
"image-slider-2AFC","195","911490","0.0-41.9-1.9","null","","","","null","","","","","","","","heartS.png","","",""
"html-keyboard-response","196","912246","0.0-41.9-2.9","null","","","","","","","null","","","","","","","",""
"image-selector-fb","197","915349","0.0-41.10-0.10","2591","pics2/SA2.jpg,pics2/FR1.jpg","","","","","","","true","1","","","heartS.png","","",""
"image-slider-2AFC","198","920369","0.0-41.10-1.10","null","","","","null","","","","","","","","heartS.png","","",""
"html-keyboard-response","199","921174","0.0-41.10-2.10","null","","","","","","","null","","","","","","","",""
"image-selector-fb","200","923353","0.0-41.11-0.11","1665","pics2/FR5.jpg,pics2/FR3.jpg","","","","","","","true","1","","","heartS.png","","",""
"image-slider-2AFC","201","928369","0.0-41.11-1.11","null","","","","null","","","","","","","","heartS.png","","",""
"html-keyboard-response","202","929127","0.0-41.11-2.11","null","","","","","","","null","","","","","","","",""
"image-selector-fb","203","932156","0.0-41.12-0.12","null","pics2/SA4.jpg,pics2/VE1.jpg","","","","","","","false","null","","","noS.png","","",""
"image-slider-2AFC","204","937166","0.0-41.12-1.12","null","","","","null","","","","","","","","heartS.png","","",""
"html-keyboard-response","205","937973","0.0-41.12-2.12","null","","","","","","","null","","","","","","","",""
"image-selector-fb","206","941209","0.0-41.13-0.13","2717","pics2/SA2.jpg,pics2/FR4.jpg","","","","","","","false","0","","","heartS.png","","",""
"image-slider-2AFC","207","946221","0.0-41.13-1.13","null","","","","null","","","","","","","","sizeS.png","","",""
"html-keyboard-response","208","947028","0.0-41.13-2.13","null","","","","","","","null","","","","","","","",""
"image-selector-fb","209","949573","0.0-41.14-0.14","2027","pics2/SA4.jpg,pics2/VE1.jpg","","","","","","","true","1","","","sizeS.png","","",""
"image-slider-2AFC","210","954582","0.0-41.14-1.14","null","","","","null","","","","","","","","heartS.png","","",""
"html-keyboard-response","211","955437","0.0-41.14-2.14","null","","","","","","","null","","","","","","","",""
"image-selector-fb","212","958552","0.0-41.15-0.15","2593","pics2/SA4.jpg,pics2/SA3.jpg","","","","","","","true","1","","","heartS.png","","",""
"image-slider-2AFC","213","963568","0.0-41.15-1.15","null","","","","null","","","","","","","","sizeS.png","","",""
"html-keyboard-response","214","964275","0.0-41.15-2.15","null","","","","","","","null","","","","","","","",""
"image-selector-fb","215","966680","0.0-41.16-0.16","1887","pics2/SA3.jpg,pics2/VE1.jpg","","","","","","","false","0","","","sizeS.png","","",""
"image-slider-2AFC","216","971694","0.0-41.16-1.16","null","","","","null","","","","","","","","sizeS.png","","",""
"html-keyboard-response","217","972400","0.0-41.16-2.16","null","","","","","","","null","","","","","","","",""
"image-selector-fb","218","974732","0.0-41.17-0.17","1813","pics2/FR6.jpg,pics2/SA4.jpg","","","","","","","true","1","","","heartS.png","","",""
"image-slider-2AFC","219","979743","0.0-41.17-1.17","null","","","","null","","","","","","","","heartS.png","","",""
"html-keyboard-response","220","980449","0.0-41.17-2.17","null","","","","","","","null","","","","","","","",""
"image-selector-fb","221","983001","0.0-41.18-0.18","2032","pics2/FR5.jpg,pics2/FR4.jpg","","","","","","","true","1","","","sizeS.png","","",""
"image-slider-2AFC","222","988010","0.0-41.18-1.18","null","","","","null","","","","","","","","heartS.png","","",""
"html-keyboard-response","223","988819","0.0-41.18-2.18","null","","","","","","","null","","","","","","","",""
"image-selector-fb","224","992427","0.0-41.19-0.19","3083","pics2/SA4.jpg,pics2/SA2.jpg","","","","","","","true","1","","","sizeS.png","","",""
"image-slider-2AFC","225","997439","0.0-41.19-1.19","null","","","","null","","","","","","","","sizeS.png","","",""
"html-keyboard-response","226","998296","0.0-41.19-2.19","null","","","","","","","null","","","","","","","",""
"image-selector-fb","227","1000765","0.0-41.20-0.20","1948","pics2/SW5.jpg,pics2/SA3.jpg","","","","","","","true","1","","","heartS.png","","",""
"image-slider-2AFC","228","1005774","0.0-41.20-1.20","null","","","","null","","","","","","","","heartS.png","","",""
"html-keyboard-response","229","1006632","0.0-41.20-2.20","null","","","","","","","null","","","","","","","",""
"image-selector-fb","230","1010225","0.0-41.21-0.21","3074","pics2/FR2.jpg,pics2/SA4.jpg","","","","","","","false","0","","","sizeS.png","","",""
"image-slider-2AFC","231","1015246","0.0-41.21-1.21","null","","","","null","","","","","","","","sizeS.png","","",""
"html-keyboard-response","232","1016106","0.0-41.21-2.21","null","","","","","","","null","","","","","","","",""
"image-selector-fb","233","1020192","0.0-41.22-0.22","3576","pics2/SW3.jpg,pics2/SW5.jpg","","","","","","","false","0","","","sizeS.png","","",""
"image-slider-2AFC","234","1025204","0.0-41.22-1.22","null","","","","null","","","","","","","","heartS.png","","",""
"html-keyboard-response","235","1026062","0.0-41.22-2.22","null","","","","","","","null","","","","","","","",""
"image-selector-fb","236","1028597","0.0-41.23-0.23","2016","pics2/VE1.jpg,pics2/SA3.jpg","","","","","","","true","1","","","heartS.png","","",""
"image-slider-2AFC","237","1033614","0.0-41.23-1.23","null","","","","null","","","","","","","","sizeS.png","","",""
"html-keyboard-response","238","1034321","0.0-41.23-2.23","null","","","","","","","null","","","","","","","",""
"image-selector-fb","239","1036122","0.0-41.24-0.24","1279","pics2/SA2.jpg,pics2/SA4.jpg","","","","","","","true","1","","","heartS.png","","",""
"image-slider-2AFC","240","1041136","0.0-41.24-1.24","null","","","","null","","","","","","","","sizeS.png","","",""
"html-keyboard-response","241","1041844","0.0-41.24-2.24","null","","","","","","","null","","","","","","","",""
"image-selector-fb","242","1044869","0.0-41.25-0.25","null","pics2/SA4.jpg,pics2/SA2.jpg","","","","","","","false","null","","","noS.png","","",""
"image-slider-2AFC","243","1049883","0.0-41.25-1.25","null","","","","null","","","","","","","","sizeS.png","","",""
"html-keyboard-response","244","1050585","0.0-41.25-2.25","null","","","","","","","null","","","","","","","",""
"image-selector-fb","245","1053209","0.0-41.26-0.26","2109","pics2/FR1.jpg,pics2/SW5.jpg","","","","","","","false","0","","","sizeS.png","","",""
"image-slider-2AFC","246","1058224","0.0-41.26-1.26","null","","","","null","","","","","","","","sizeS.png","","",""
"html-keyboard-response","247","1059033","0.0-41.26-2.26","null","","","","","","","null","","","","","","","",""
"image-selector-fb","248","1060910","0.0-41.27-0.27","1352","pics2/FR6.jpg,pics2/FR1.jpg","","","","","","","true","1","","","heartS.png","","",""
"image-slider-2AFC","249","1065924","0.0-41.27-1.27","null","","","","null","","","","","","","","sizeS.png","","",""
"html-keyboard-response","250","1066727","0.0-41.27-2.27","null","","","","","","","null","","","","","","","",""
"image-selector-fb","251","1069748","0.0-41.28-0.28","null","pics2/FR4.jpg,pics2/SA4.jpg","","","","","","","false","null","","","noS.png","","",""
"image-slider-2AFC","252","1074757","0.0-41.28-1.28","null","","","","null","","","","","","","","sizeS.png","","",""
"html-keyboard-response","253","1075562","0.0-41.28-2.28","null","","","","","","","null","","","","","","","",""
"image-selector-fb","254","1077425","0.0-41.29-0.29","1338","pics2/SA4.jpg,pics2/FR5.jpg","","","","","","","true","1","","","sizeS.png","","",""
"image-slider-2AFC","255","1082436","0.0-41.29-1.29","null","","","","null","","","","","","","","heartS.png","","",""
"html-keyboard-response","256","1083194","0.0-41.29-2.29","null","","","","","","","null","","","","","","","",""
"image-selector-fb","257","1086112","0.0-41.30-0.30","2392","pics2/SA2.jpg,pics2/VE1.jpg","","","","","","","false","0","","","heartS.png","","",""
"image-slider-2AFC","258","1091122","0.0-41.30-1.30","null","","","","null","","","","","","","","heartS.png","","",""
"html-keyboard-response","259","1091882","0.0-41.30-2.30","null","","","","","","","null","","","","","","","",""
"image-selector-fb","260","1094918","0.0-41.31-0.31","null","pics2/SW3.jpg,pics2/VE1.jpg","","","","","","","false","null","","","noS.png","","",""
"image-slider-2AFC","261","1099924","0.0-41.31-1.31","null","","","","null","","","","","","","","sizeS.png","","",""
"html-keyboard-response","262","1100677","0.0-41.31-2.31","null","","","","","","","null","","","","","","","",""
"image-selector-fb","263","1102919","0.0-41.32-0.32","1729","pics2/FR4.jpg,pics2/SW5.jpg","","","","","","","true","1","","","sizeS.png","","",""
"image-slider-2AFC","264","1107941","0.0-41.32-1.32","null","","","","null","","","","","","","","heartS.png","","",""
"html-keyboard-response","265","1108745","0.0-41.32-2.32","null","","","","","","","null","","","","","","","",""
"image-selector-fb","266","1111308","0.0-41.33-0.33","2052","pics2/FR2.jpg,pics2/SW5.jpg","","","","","","","false","0","","","sizeS.png","","",""
"image-slider-2AFC","267","1116321","0.0-41.33-1.33","null","","","","null","","","","","","","","sizeS.png","","",""
"html-keyboard-response","268","1117128","0.0-41.33-2.33","null","","","","","","","null","","","","","","","",""
"image-selector-fb","269","1120336","0.0-41.34-0.34","2690","pics2/FR5.jpg,pics2/FR1.jpg","","","","","","","false","0","","","heartS.png","","",""
"image-slider-2AFC","270","1125346","0.0-41.34-1.34","null","","","","null","","","","","","","","sizeS.png","","",""
"html-keyboard-response","271","1126152","0.0-41.34-2.34","null","","","","","","","null","","","","","","","",""
"image-selector-fb","272","1129173","0.0-41.35-0.35","null","pics2/SW3.jpg,pics2/SA2.jpg","","","","","","","false","null","","","noS.png","","",""
"image-slider-2AFC","273","1134180","0.0-41.35-1.35","null","","","","null","","","","","","","","heartS.png","","",""
"html-keyboard-response","274","1134984","0.0-41.35-2.35","null","","","","","","","null","","","","","","","",""
"image-selector-fb","275","1138003","0.0-41.36-0.36","null","pics2/FR3.jpg,pics2/FR4.jpg","","","","","","","false","null","","","noS.png","","",""
"image-slider-2AFC","276","1143008","0.0-41.36-1.36","null","","","","null","","","","","","","","heartS.png","","",""
"html-keyboard-response","277","1143814","0.0-41.36-2.36","null","","","","","","","null","","","","","","","",""
"image-selector-fb","278","1146409","0.0-41.37-0.37","2072","pics2/SW3.jpg,pics2/FR1.jpg","","","","","","","false","0","","","heartS.png","","",""
"image-slider-2AFC","279","1151421","0.0-41.37-1.37","null","","","","null","","","","","","","","sizeS.png","","",""
"html-keyboard-response","280","1152227","0.0-41.37-2.37","null","","","","","","","null","","","","","","","",""
"image-selector-fb","281","1154702","0.0-41.38-0.38","1966","pics2/FR6.jpg,pics2/SA2.jpg","","","","","","","true","1","","","heartS.png","","",""
"image-slider-2AFC","282","1159713","0.0-41.38-1.38","null","","","","null","","","","","","","","heartS.png","","",""
"html-keyboard-response","283","1160575","0.0-41.38-2.38","null","","","","","","","null","","","","","","","",""
"image-selector-fb","284","1163021","0.0-41.39-0.39","1926","pics2/SW5.jpg,pics2/FR5.jpg","","","","","","","false","0","","","heartS.png","","",""
"image-slider-2AFC","285","1168033","0.0-41.39-1.39","null","","","","null","","","","","","","","sizeS.png","","",""
"html-keyboard-response","286","1168786","0.0-41.39-2.39","null","","","","","","","null","","","","","","","",""
"image-selector-fb","287","1172557","0.0-41.40-0.40","3260","pics2/VE1.jpg,pics2/SA2.jpg","","","","","","","false","0","","","sizeS.png","","",""
"image-slider-2AFC","288","1177569","0.0-41.40-1.40","null","","","","null","","","","","","","","sizeS.png","","",""
"html-keyboard-response","289","1178272","0.0-41.40-2.40","null","","","","","","","null","","","","","","","",""
"image-selector-fb","290","1181289","0.0-41.41-0.41","null","pics2/FR5.jpg,pics2/VE1.jpg","","","","","","","false","null","","","noS.png","","",""
"image-slider-2AFC","291","1186308","0.0-41.41-1.41","null","","","","null","","","","","","","","sizeS.png","","",""
"html-keyboard-response","292","1187111","0.0-41.41-2.41","null","","","","","","","null","","","","","","","",""
"image-selector-fb","293","1191038","0.0-41.42-0.42","3418","pics2/FR1.jpg,pics2/VE1.jpg","","","","","","","false","0","","","sizeS.png","","",""
"image-slider-2AFC","294","1196054","0.0-41.42-1.42","null","","","","null","","","","","","","","heartS.png","","",""
"html-keyboard-response","295","1196807","0.0-41.42-2.42","null","","","","","","","null","","","","","","","",""
"image-selector-fb","296","1199118","0.0-41.43-0.43","1801","pics2/SW5.jpg,pics2/VE1.jpg","","","","","","","false","0","","","heartS.png","","",""
"image-slider-2AFC","297","1204130","0.0-41.43-1.43","null","","","","null","","","","","","","","sizeS.png","","",""
"html-keyboard-response","298","1204940","0.0-41.43-2.43","null","","","","","","","null","","","","","","","",""
"image-selector-fb","299","1207967","0.0-41.44-0.44","null","pics2/FR1.jpg,pics2/FR2.jpg","","","","","","","false","null","","","noS.png","","",""
"image-slider-2AFC","300","1212977","0.0-41.44-1.44","null","","","","null","","","","","","","","sizeS.png","","",""
"html-keyboard-response","301","1213683","0.0-41.44-2.44","null","","","","","","","null","","","","","","","",""
"image-selector-fb","302","1216704","0.0-41.45-0.45","null","pics2/FR4.jpg,pics2/VE1.jpg","","","","","","","false","null","","","noS.png","","",""
"image-slider-2AFC","303","1221712","0.0-41.45-1.45","null","","","","null","","","","","","","","sizeS.png","","",""
"html-keyboard-response","304","1222570","0.0-41.45-2.45","null","","","","","","","null","","","","","","","",""
"image-selector-fb","305","1225598","0.0-41.46-0.46","null","pics2/SA4.jpg,pics2/FR5.jpg","","","","","","","false","null","","","noS.png","","",""
"image-slider-2AFC","306","1230607","0.0-41.46-1.46","null","","","","null","","","","","","","","sizeS.png","","",""
"html-keyboard-response","307","1231313","0.0-41.46-2.46","null","","","","","","","null","","","","","","","",""
"image-selector-fb","308","1234027","0.0-41.47-0.47","2203","pics2/FR4.jpg,pics2/SA3.jpg","","","","","","","true","1","","","heartS.png","","",""
"image-slider-2AFC","309","1239039","0.0-41.47-1.47","null","","","","null","","","","","","","","heartS.png","","",""
"html-keyboard-response","310","1239799","0.0-41.47-2.47","null","","","","","","","null","","","","","","","",""
"image-selector-fb","311","1241783","0.0-41.48-0.48","1462","pics2/FR5.jpg,pics2/VE1.jpg","","","","","","","false","0","","","sizeS.png","","",""
"image-slider-2AFC","312","1246790","0.0-41.48-1.48","null","","","","null","","","","","","","","sizeS.png","","",""
"html-keyboard-response","313","1247492","0.0-41.48-2.48","null","","","","","","","null","","","","","","","",""
"image-selector-fb","314","1250505","0.0-41.49-0.49","null","pics2/FR1.jpg,pics2/FR6.jpg","","","","","","","false","null","","","noS.png","","",""
"image-slider-2AFC","315","1255514","0.0-41.49-1.49","null","","","","null","","","","","","","","heartS.png","","",""
"html-keyboard-response","316","1256371","0.0-41.49-2.49","null","","","","","","","null","","","","","","","",""
"image-selector-fb","317","1259081","0.0-41.50-0.50","2196","pics2/VE1.jpg,pics2/FR1.jpg","","","","","","","false","0","","","heartS.png","","",""
"image-slider-2AFC","318","1264086","0.0-41.50-1.50","null","","","","null","","","","","","","","heartS.png","","",""
"html-keyboard-response","319","1264939","0.0-41.50-2.50","null","","","","","","","null","","","","","","","",""
"image-selector-fb","320","1266668","0.0-41.51-0.51","1219","pics2/FR1.jpg,pics2/SA3.jpg","","","","","","","true","1","","","sizeS.png","","",""
"image-slider-2AFC","321","1271683","0.0-41.51-1.51","null","","","","null","","","","","","","","sizeS.png","","",""
"html-keyboard-response","322","1272543","0.0-41.51-2.51","null","","","","","","","null","","","","","","","",""
"image-selector-fb","323","1275476","0.0-41.52-0.52","2411","pics2/FR3.jpg,pics2/SW3.jpg","","","","","","","true","1","","","sizeS.png","","",""
"image-slider-2AFC","324","1280489","0.0-41.52-1.52","null","","","","null","","","","","","","","heartS.png","","",""
"html-keyboard-response","325","1281297","0.0-41.52-2.52","null","","","","","","","null","","","","","","","",""
"image-selector-fb","326","1284329","0.0-41.53-0.53","null","pics2/FR3.jpg,pics2/FR6.jpg","","","","","","","false","null","","","noS.png","","",""
"image-slider-2AFC","327","1289336","0.0-41.53-1.53","null","","","","null","","","","","","","","heartS.png","","",""
"html-keyboard-response","328","1290189","0.0-41.53-2.53","null","","","","","","","null","","","","","","","",""
"image-selector-fb","329","1293525","0.0-41.54-0.54","2828","pics2/SW5.jpg,pics2/SW3.jpg","","","","","","","true","1","","","heartS.png","","",""
"image-slider-2AFC","330","1298535","0.0-41.54-1.54","null","","","","null","","","","","","","","sizeS.png","","",""
"html-keyboard-response","331","1299294","0.0-41.54-2.54","null","","","","","","","null","","","","","","","",""
"image-selector-fb","332","1302184","0.0-41.55-0.55","2358","pics2/FR3.jpg,pics2/SA2.jpg","","","","","","","false","0","","","sizeS.png","","",""
"image-slider-2AFC","333","1307207","0.0-41.55-1.55","null","","","","null","","","","","","","","sizeS.png","","",""
"html-keyboard-response","334","1308066","0.0-41.55-2.55","null","","","","","","","null","","","","","","","",""
"image-selector-fb","335","1310077","0.0-41.56-0.56","1489","pics2/SA4.jpg,pics2/FR1.jpg","","","","","","","false","0","","","heartS.png","","",""
"image-slider-2AFC","336","1315093","0.0-41.56-1.56","null","","","","null","","","","","","","","heartS.png","","",""
"html-keyboard-response","337","1315849","0.0-41.56-2.56","null","","","","","","","null","","","","","","","",""
"image-selector-fb","338","1317553","0.0-41.57-0.57","1189","pics2/VE1.jpg,pics2/SW5.jpg","","","","","","","true","1","","","sizeS.png","","",""
"image-slider-2AFC","339","1322567","0.0-41.57-1.57","null","","","","null","","","","","","","","sizeS.png","","",""
"html-keyboard-response","340","1323277","0.0-41.57-2.57","null","","","","","","","null","","","","","","","",""
"image-selector-fb","341","1326310","0.0-41.58-0.58","null","pics2/FR5.jpg,pics2/SA2.jpg","","","","","","","false","null","","","noS.png","","",""
"image-slider-2AFC","342","1331319","0.0-41.58-1.58","null","","","","null","","","","","","","","heartS.png","","",""
"html-keyboard-response","343","1332077","0.0-41.58-2.58","null","","","","","","","null","","","","","","","",""
"image-selector-fb","344","1335110","0.0-41.59-0.59","null","pics2/FR1.jpg,pics2/VE1.jpg","","","","","","","false","null","","","noS.png","","",""
"image-slider-2AFC","345","1340117","0.0-41.59-1.59","null","","","","null","","","","","","","","heartS.png","","",""
"html-keyboard-response","346","1340821","0.0-41.59-2.59","null","","","","","","","null","","","","","","","",""
"image-selector-fb","347","1343618","0.0-41.60-0.60","2284","pics2/SW3.jpg,pics2/SA4.jpg","","","","","","","false","0","","","sizeS.png","","",""
"image-slider-2AFC","348","1348622","0.0-41.60-1.60","null","","","","null","","","","","","","","heartS.png","","",""
"html-keyboard-response","349","1349427","0.0-41.60-2.60","null","","","","","","","null","","","","","","","",""
"image-selector-fb","350","1352456","0.0-41.61-0.61","null","pics2/FR3.jpg,pics2/SW5.jpg","","","","","","","false","null","","","noS.png","","",""
"image-slider-2AFC","351","1357466","0.0-41.61-1.61","null","","","","null","","","","","","","","sizeS.png","","",""
"html-keyboard-response","352","1358274","0.0-41.61-2.61","null","","","","","","","null","","","","","","","",""
"image-selector-fb","353","1361362","0.0-41.62-0.62","2578","pics2/FR1.jpg,pics2/SW3.jpg","","","","","","","true","1","","","sizeS.png","","",""
"image-slider-2AFC","354","1366376","0.0-41.62-1.62","null","","","","null","","","","","","","","heartS.png","","",""
"html-keyboard-response","355","1367137","0.0-41.62-2.62","null","","","","","","","null","","","","","","","",""
"image-selector-fb","356","1369548","0.0-41.63-0.63","1892","pics2/SW3.jpg,pics2/SA2.jpg","","","","","","","true","1","","","sizeS.png","","",""
"image-slider-2AFC","357","1374558","0.0-41.63-1.63","null","","","","null","","","","","","","","heartS.png","","",""
"html-keyboard-response","358","1375262","0.0-41.63-2.63","null","","","","","","","null","","","","","","","",""
"image-selector-fb","359","1377226","0.0-41.64-0.64","1450","pics2/FR5.jpg,pics2/SA3.jpg","","","","","","","true","1","","","heartS.png","","",""
"image-slider-2AFC","360","1382239","0.0-41.64-1.64","null","","","","null","","","","","","","","heartS.png","","",""
"html-keyboard-response","361","1382946","0.0-41.64-2.64","null","","","","","","","null","","","","","","","",""
"image-selector-fb","362","1385970","0.0-41.65-0.65","null","pics2/SW5.jpg,pics2/SA3.jpg","","","","","","","false","null","","","noS.png","","",""
"image-slider-2AFC","363","1390981","0.0-41.65-1.65","null","","","","null","","","","","","","","sizeS.png","","",""
"html-keyboard-response","364","1391685","0.0-41.65-2.65","null","","","","","","","null","","","","","","","",""
"pavlovia","365","1391703","0.0-42.0","","","","","","","","","","","","","","","",""
"html-keyboard-response","366","1396707","0.0-43.0","null","<div style='width: 700px;'> <font size=6><b>SHORT BREAK</font></b><br><br><i> Please wait 5 seconds to continue</i></div> ","","","","","","null","","","","","","","",""
"pavlovia","367","1396713","0.0-44.0","","","","","","","","","","","","","","","",""
"html-button-response","368","1430494","0.0-45.0","33779","<div style='width: 700px;'> <font size=6><b>BLOCK 2</font></b><br><br>Press the button whenever you feel ready to start the second block (there are 3 in total)</div>","0","","","","","","","","","","","","",""
"image-selector-fb","369","1432783","0.0-46.0-0.0","1775","pics2/FR6.jpg,pics2/SA3.jpg","","","","","","","true","1","","","heartS.png","","",""
"image-slider-2AFC","370","1437791","0.0-46.0-1.0","null","","","","null","","","","","","","","heartS.png","","",""
"html-keyboard-response","371","1438549","0.0-46.0-2.0","null","","","","","","","null","","","","","","","",""
"image-selector-fb","372","1441066","0.0-46.1-0.1","1995","pics2/SA3.jpg,pics2/SW3.jpg","","","","","","","false","0","","","heartS.png","","",""
"image-slider-2AFC","373","1446072","0.0-46.1-1.1","null","","","","null","","","","","","","","sizeS.png","","",""
"html-keyboard-response","374","1446879","0.0-46.1-2.1","null","","","","","","","null","","","","","","","",""
"image-selector-fb","375","1449327","0.0-46.2-0.2","1939","pics2/SW3.jpg,pics2/FR4.jpg","","","","","","","false","0","","","sizeS.png","","",""
"image-slider-2AFC","376","1454336","0.0-46.2-1.2","null","","","","null","","","","","","","","heartS.png","","",""
"html-keyboard-response","377","1455043","0.0-46.2-2.2","null","","","","","","","null","","","","","","","",""
"image-selector-fb","378","1457571","0.0-46.3-0.3","2008","pics2/FR6.jpg,pics2/FR3.jpg","","","","","","","true","1","","","heartS.png","","",""
"image-slider-2AFC","379","1462592","0.0-46.3-1.3","null","","","","null","","","","","","","","heartS.png","","",""
"html-keyboard-response","380","1463450","0.0-46.3-2.3","null","","","","","","","null","","","","","","","",""
"image-selector-fb","381","1466480","0.0-46.4-0.4","null","pics2/SA4.jpg,pics2/FR2.jpg","","","","","","","false","null","","","noS.png","","",""
"image-slider-2AFC","382","1471489","0.0-46.4-1.4","null","","","","null","","","","","","","","sizeS.png","","",""
"html-keyboard-response","383","1472296","0.0-46.4-2.4","null","","","","","","","null","","","","","","","",""
"image-selector-fb","384","1475320","0.0-46.5-0.5","null","pics2/VE1.jpg,pics2/FR2.jpg","","","","","","","false","null","","","noS.png","","",""
"image-slider-2AFC","385","1480325","0.0-46.5-1.5","null","","","","null","","","","","","","","sizeS.png","","",""
"html-keyboard-response","386","1481181","0.0-46.5-2.5","null","","","","","","","null","","","","","","","",""
"image-selector-fb","387","1483551","0.0-46.6-0.6","1860","pics2/SA4.jpg,pics2/FR3.jpg","","","","","","","false","0","","","heartS.png","","",""
"image-slider-2AFC","388","1488563","0.0-46.6-1.6","null","","","","null","","","","","","","","sizeS.png","","",""
"html-keyboard-response","389","1489270","0.0-46.6-2.6","null","","","","","","","null","","","","","","","",""
"image-selector-fb","390","1491347","0.0-46.7-0.7","1565","pics2/FR2.jpg,pics2/SW3.jpg","","","","","","","true","1","","","heartS.png","","",""
"image-slider-2AFC","391","1496361","0.0-46.7-1.7","null","","","","null","","","","","","","","heartS.png","","",""
"html-keyboard-response","392","1497171","0.0-46.7-2.7","null","","","","","","","null","","","","","","","",""
"image-selector-fb","393","1500193","0.0-46.8-0.8","null","pics2/FR1.jpg,pics2/SW3.jpg","","","","","","","false","null","","","noS.png","","",""
"image-slider-2AFC","394","1505203","0.0-46.8-1.8","null","","","","null","","","","","","","","heartS.png","","",""
"html-keyboard-response","395","1506060","0.0-46.8-2.8","null","","","","","","","null","","","","","","","",""
"image-selector-fb","396","1509095","0.0-46.9-0.9","2507","pics2/FR5.jpg,pics2/FR2.jpg","","","","","","","false","0","","","heartS.png","","",""
"image-slider-2AFC","397","1514104","0.0-46.9-1.9","null","","","","null","","","","","","","","sizeS.png","","",""
"html-keyboard-response","398","1514965","0.0-46.9-2.9","null","","","","","","","null","","","","","","","",""
"image-selector-fb","399","1517354","0.0-46.10-0.10","1869","pics2/SA4.jpg,pics2/FR2.jpg","","","","","","","false","0","","","heartS.png","","",""
"image-slider-2AFC","400","1522367","0.0-46.10-1.10","null","","","","null","","","","","","","","heartS.png","","",""
"html-keyboard-response","401","1523224","0.0-46.10-2.10","null","","","","","","","null","","","","","","","",""
"image-selector-fb","402","1525718","0.0-46.11-0.11","1976","pics2/SA3.jpg,pics2/FR4.jpg","","","","","","","false","0","","","sizeS.png","","",""
"image-slider-2AFC","403","1530730","0.0-46.11-1.11","null","","","","null","","","","","","","","heartS.png","","",""
"html-keyboard-response","404","1531440","0.0-46.11-2.11","null","","","","","","","null","","","","","","","",""
"image-selector-fb","405","1534468","0.0-46.12-0.12","null","pics2/FR4.jpg,pics2/FR1.jpg","","","","","","","false","null","","","noS.png","","",""
"image-slider-2AFC","406","1539473","0.0-46.12-1.12","null","","","","null","","","","","","","","heartS.png","","",""
"html-keyboard-response","407","1540279","0.0-46.12-2.12","null","","","","","","","null","","","","","","","",""
"image-selector-fb","408","1543299","0.0-46.13-0.13","null","pics2/FR3.jpg,pics2/SA3.jpg","","","","","","","false","null","","","noS.png","","",""
"image-slider-2AFC","409","1548309","0.0-46.13-1.13","null","","","","null","","","","","","","","sizeS.png","","",""
"html-keyboard-response","410","1549015","0.0-46.13-2.13","null","","","","","","","null","","","","","","","",""
"image-selector-fb","411","1552050","0.0-46.14-0.14","null","pics2/SW3.jpg,pics2/FR2.jpg","","","","","","","false","null","","","noS.png","","",""
"image-slider-2AFC","412","1557061","0.0-46.14-1.14","null","","","","null","","","","","","","","heartS.png","","",""
"html-keyboard-response","413","1557920","0.0-46.14-2.14","null","","","","","","","null","","","","","","","",""
"image-selector-fb","414","1560952","0.0-46.15-0.15","null","pics2/FR4.jpg,pics2/FR6.jpg","","","","","","","false","null","","","noS.png","","",""
"image-slider-2AFC","415","1565959","0.0-46.15-1.15","null","","","","null","","","","","","","","sizeS.png","","",""
"html-keyboard-response","416","1566666","0.0-46.15-2.15","null","","","","","","","null","","","","","","","",""
"image-selector-fb","417","1569903","0.0-46.16-0.16","2716","pics2/FR2.jpg,pics2/FR4.jpg","","","","","","","false","0","","","sizeS.png","","",""
"image-slider-2AFC","418","1574911","0.0-46.16-1.16","null","","","","null","","","","","","","","sizeS.png","","",""
"html-keyboard-response","419","1575668","0.0-46.16-2.16","null","","","","","","","null","","","","","","","",""
"image-selector-fb","420","1579351","0.0-46.17-0.17","3163","pics2/VE1.jpg,pics2/FR2.jpg","","","","","","","true","1","","","heartS.png","","",""
"image-slider-2AFC","421","1584356","0.0-46.17-1.17","null","","","","null","","","","","","","","heartS.png","","",""
"html-keyboard-response","422","1585165","0.0-46.17-2.17","null","","","","","","","null","","","","","","","",""
"image-selector-fb","423","1587800","0.0-46.18-0.18","2122","pics2/SW3.jpg,pics2/VE1.jpg","","","","","","","false","0","","","sizeS.png","","",""
"image-slider-2AFC","424","1592817","0.0-46.18-1.18","null","","","","null","","","","","","","","sizeS.png","","",""
"html-keyboard-response","425","1593674","0.0-46.18-2.18","null","","","","","","","null","","","","","","","",""
"image-selector-fb","426","1595715","0.0-46.19-0.19","1520","pics2/FR2.jpg,pics2/SA2.jpg","","","","","","","true","1","","","sizeS.png","","",""
"image-slider-2AFC","427","1600728","0.0-46.19-1.19","null","","","","null","","","","","","","","sizeS.png","","",""
"html-keyboard-response","428","1601535","0.0-46.19-2.19","null","","","","","","","null","","","","","","","",""
"image-selector-fb","429","1604344","0.0-46.20-0.20","2286","pics2/FR2.jpg,pics2/FR5.jpg","","","","","","","false","0","","","sizeS.png","","",""
"image-slider-2AFC","430","1609354","0.0-46.20-1.20","null","","","","null","","","","","","","","heartS.png","","",""
"html-keyboard-response","431","1610061","0.0-46.20-2.20","null","","","","","","","null","","","","","","","",""
"image-selector-fb","432","1612637","0.0-46.21-0.21","2052","pics2/VE1.jpg,pics2/FR3.jpg","","","","","","","true","1","","","heartS.png","","",""
"image-slider-2AFC","433","1617649","0.0-46.21-1.21","null","","","","null","","","","","","","","sizeS.png","","",""
"html-keyboard-response","434","1618408","0.0-46.21-2.21","null","","","","","","","null","","","","","","","",""
"image-selector-fb","435","1620804","0.0-46.22-0.22","1869","pics2/FR3.jpg,pics2/SA4.jpg","","","","","","","false","0","","","sizeS.png","","",""
"image-slider-2AFC","436","1625824","0.0-46.22-1.22","null","","","","null","","","","","","","","sizeS.png","","",""
"html-keyboard-response","437","1626532","0.0-46.22-2.22","null","","","","","","","null","","","","","","","",""
"image-selector-fb","438","1629562","0.0-46.23-0.23","null","pics2/FR4.jpg,pics2/SA3.jpg","","","","","","","false","null","","","noS.png","","",""
"image-slider-2AFC","439","1634568","0.0-46.23-1.23","null","","","","null","","","","","","","","heartS.png","","",""
"html-keyboard-response","440","1635321","0.0-46.23-2.23","null","","","","","","","null","","","","","","","",""
"image-selector-fb","441","1637210","0.0-46.24-0.24","1369","pics2/SA3.jpg,pics2/FR1.jpg","","","","","","","false","0","","","heartS.png","","",""
"image-slider-2AFC","442","1642228","0.0-46.24-1.24","null","","","","null","","","","","","","","sizeS.png","","",""
"html-keyboard-response","443","1642936","0.0-46.24-2.24","null","","","","","","","null","","","","","","","",""
"image-selector-fb","444","1646125","0.0-46.25-0.25","2663","pics2/SW3.jpg,pics2/SA3.jpg","","","","","","","false","0","","","sizeS.png","","",""
"image-slider-2AFC","445","1651136","0.0-46.25-1.25","null","","","","null","","","","","","","","heartS.png","","",""
"html-keyboard-response","446","1651942","0.0-46.25-2.25","null","","","","","","","null","","","","","","","",""
"image-selector-fb","447","1654964","0.0-46.26-0.26","null","pics2/SW3.jpg,pics2/FR6.jpg","","","","","","","false","null","","","noS.png","","",""
"image-slider-2AFC","448","1659979","0.0-46.26-1.26","null","","","","null","","","","","","","","sizeS.png","","",""
"html-keyboard-response","449","1660685","0.0-46.26-2.26","null","","","","","","","null","","","","","","","",""
"image-selector-fb","450","1663707","0.0-46.27-0.27","null","pics2/SW5.jpg,pics2/SW3.jpg","","","","","","","false","null","","","noS.png","","",""
"image-slider-2AFC","451","1668717","0.0-46.27-1.27","null","","","","null","","","","","","","","heartS.png","","",""
"html-keyboard-response","452","1669474","0.0-46.27-2.27","null","","","","","","","null","","","","","","","",""
"image-selector-fb","453","1671570","0.0-46.28-0.28","1583","pics2/FR4.jpg,pics2/FR3.jpg","","","","","","","true","1","","","heartS.png","","",""
"image-slider-2AFC","454","1676582","0.0-46.28-1.28","null","","","","null","","","","","","","","heartS.png","","",""
"html-keyboard-response","455","1677441","0.0-46.28-2.28","null","","","","","","","null","","","","","","","",""
"image-selector-fb","456","1680735","0.0-46.29-0.29","2764","pics2/FR3.jpg,pics2/FR6.jpg","","","","","","","false","0","","","sizeS.png","","",""
"image-slider-2AFC","457","1685757","0.0-46.29-1.29","null","","","","null","","","","","","","","heartS.png","","",""
"html-keyboard-response","458","1686614","0.0-46.29-2.29","null","","","","","","","null","","","","","","","",""
"image-selector-fb","459","1689641","0.0-46.30-0.30","null","pics2/SW5.jpg,pics2/FR4.jpg","","","","","","","false","null","","","noS.png","","",""
"image-slider-2AFC","460","1694648","0.0-46.30-1.30","null","","","","null","","","","","","","","heartS.png","","",""
"html-keyboard-response","461","1695406","0.0-46.30-2.30","null","","","","","","","null","","","","","","","",""
"image-selector-fb","462","1697669","0.0-46.31-0.31","1744","pics2/FR3.jpg,pics2/FR1.jpg","","","","","","","false","0","","","heartS.png","","",""
"image-slider-2AFC","463","1702689","0.0-46.31-1.31","null","","","","null","","","","","","","","heartS.png","","",""
"html-keyboard-response","464","1703494","0.0-46.31-2.31","null","","","","","","","null","","","","","","","",""
"image-selector-fb","465","1706521","0.0-46.32-0.32","null","pics2/SA4.jpg,pics2/FR1.jpg","","","","","","","false","null","","","noS.png","","",""
"image-slider-2AFC","466","1711527","0.0-46.32-1.32","null","","","","null","","","","","","","","sizeS.png","","",""
"html-keyboard-response","467","1712230","0.0-46.32-2.32","null","","","","","","","null","","","","","","","",""
"image-selector-fb","468","1714683","0.0-46.33-0.33","1941","pics2/FR2.jpg,pics2/FR6.jpg","","","","","","","false","0","","","sizeS.png","","",""
"image-slider-2AFC","469","1719694","0.0-46.33-1.33","null","","","","null","","","","","","","","heartS.png","","",""
"html-keyboard-response","470","1720399","0.0-46.33-2.33","null","","","","","","","null","","","","","","","",""
"image-selector-fb","471","1723423","0.0-46.34-0.34","null","pics2/SA4.jpg,pics2/FR6.jpg","","","","","","","false","null","","","noS.png","","",""
"image-slider-2AFC","472","1728435","0.0-46.34-1.34","null","","","","null","","","","","","","","heartS.png","","",""
"html-keyboard-response","473","1729198","0.0-46.34-2.34","null","","","","","","","null","","","","","","","",""
"image-selector-fb","474","1732486","0.0-46.35-0.35","2767","pics2/FR4.jpg,pics2/SA2.jpg","","","","","","","false","0","","","sizeS.png","","",""
"image-slider-2AFC","475","1737497","0.0-46.35-1.35","null","","","","null","","","","","","","","heartS.png","","",""
"html-keyboard-response","476","1738203","0.0-46.35-2.35","null","","","","","","","null","","","","","","","",""
"image-selector-fb","477","1741170","0.0-46.36-0.36","2444","pics2/SA4.jpg,pics2/FR4.jpg","","","","","","","true","1","","","sizeS.png","","",""
"image-slider-2AFC","478","1746189","0.0-46.36-1.36","null","","","","null","","","","","","","","sizeS.png","","",""
"html-keyboard-response","479","1747050","0.0-46.36-2.36","null","","","","","","","null","","","","","","","",""
"image-selector-fb","480","1749261","0.0-46.37-0.37","1687","pics2/SA3.jpg,pics2/SW5.jpg","","","","","","","false","0","","","sizeS.png","","",""
"image-slider-2AFC","481","1754277","0.0-46.37-1.37","null","","","","null","","","","","","","","heartS.png","","",""
"html-keyboard-response","482","1755038","0.0-46.37-2.37","null","","","","","","","null","","","","","","","",""
"image-selector-fb","483","1758068","0.0-46.38-0.38","null","pics2/FR3.jpg,pics2/FR5.jpg","","","","","","","false","null","","","noS.png","","",""
"image-slider-2AFC","484","1763076","0.0-46.38-1.38","null","","","","null","","","","","","","","sizeS.png","","",""
"html-keyboard-response","485","1763783","0.0-46.38-2.38","null","","","","","","","null","","","","","","","",""
"image-selector-fb","486","1766803","0.0-46.39-0.39","null","pics2/SA3.jpg,pics2/SA2.jpg","","","","","","","false","null","","","noS.png","","",""
"image-slider-2AFC","487","1771813","0.0-46.39-1.39","null","","","","null","","","","","","","","heartS.png","","",""
"html-keyboard-response","488","1772521","0.0-46.39-2.39","null","","","","","","","null","","","","","","","",""
"image-selector-fb","489","1774443","0.0-46.40-0.40","1407","pics2/SW5.jpg,pics2/SA4.jpg","","","","","","","true","1","","","heartS.png","","",""
"image-slider-2AFC","490","1779452","0.0-46.40-1.40","null","","","","null","","","","","","","","heartS.png","","",""
"html-keyboard-response","491","1780211","0.0-46.40-2.40","null","","","","","","","null","","","","","","","",""
"image-selector-fb","492","1782245","0.0-46.41-0.41","1509","pics2/SW5.jpg,pics2/FR2.jpg","","","","","","","false","0","","","heartS.png","","",""
"image-slider-2AFC","493","1787260","0.0-46.41-1.41","null","","","","null","","","","","","","","sizeS.png","","",""
"html-keyboard-response","494","1788070","0.0-46.41-2.41","null","","","","","","","null","","","","","","","",""
"image-selector-fb","495","1790927","0.0-46.42-0.42","2334","pics2/FR5.jpg,pics2/SW5.jpg","","","","","","","true","1","","","sizeS.png","","",""
"image-slider-2AFC","496","1795939","0.0-46.42-1.42","null","","","","null","","","","","","","","heartS.png","","",""
"html-keyboard-response","497","1796798","0.0-46.42-2.42","null","","","","","","","null","","","","","","","",""
"image-selector-fb","498","1799688","0.0-46.43-0.43","2370","pics2/FR3.jpg,pics2/SW5.jpg","","","","","","","true","1","","","sizeS.png","","",""
"image-slider-2AFC","499","1804701","0.0-46.43-1.43","null","","","","null","","","","","","","","sizeS.png","","",""
"html-keyboard-response","500","1805509","0.0-46.43-2.43","null","","","","","","","null","","","","","","","",""
"image-selector-fb","501","1808099","0.0-46.44-0.44","2068","pics2/SW5.jpg,pics2/FR1.jpg","","","","","","","false","0","","","heartS.png","","",""
"image-slider-2AFC","502","1813104","0.0-46.44-1.44","null","","","","null","","","","","","","","sizeS.png","","",""
"html-keyboard-response","503","1813812","0.0-46.44-2.44","null","","","","","","","null","","","","","","","",""
"image-selector-fb","504","1816843","0.0-46.45-0.45","null","pics2/SW5.jpg,pics2/SA2.jpg","","","","","","","false","null","","","noS.png","","",""
"image-slider-2AFC","505","1821851","0.0-46.45-1.45","null","","","","null","","","","","","","","sizeS.png","","",""
"html-keyboard-response","506","1822558","0.0-46.45-2.45","null","","","","","","","null","","","","","","","",""
"image-selector-fb","507","1825576","0.0-46.46-0.46","null","pics2/SA3.jpg,pics2/FR6.jpg","","","","","","","false","null","","","noS.png","","",""
"image-slider-2AFC","508","1830586","0.0-46.46-1.46","null","","","","null","","","","","","","","sizeS.png","","",""
"html-keyboard-response","509","1831345","0.0-46.46-2.46","null","","","","","","","null","","","","","","","",""
"image-selector-fb","510","1833664","0.0-46.47-0.47","1792","pics2/FR2.jpg,pics2/FR3.jpg","","","","","","","true","1","","","heartS.png","","",""
"image-slider-2AFC","511","1838691","0.0-46.47-1.47","null","","","","null","","","","","","","","sizeS.png","","",""
"html-keyboard-response","512","1839553","0.0-46.47-2.47","null","","","","","","","null","","","","","","","",""
"image-selector-fb","513","1841536","0.0-46.48-0.48","1460","pics2/FR2.jpg,pics2/SA3.jpg","","","","","","","true","1","","","heartS.png","","",""
"image-slider-2AFC","514","1846549","0.0-46.48-1.48","null","","","","null","","","","","","","","sizeS.png","","",""
"html-keyboard-response","515","1847357","0.0-46.48-2.48","null","","","","","","","null","","","","","","","",""
"image-selector-fb","516","1850391","0.0-46.49-0.49","null","pics2/VE1.jpg,pics2/FR6.jpg","","","","","","","false","null","","","noS.png","","",""
"image-slider-2AFC","517","1855403","0.0-46.49-1.49","null","","","","null","","","","","","","","heartS.png","","",""
"html-keyboard-response","518","1856216","0.0-46.49-2.49","null","","","","","","","null","","","","","","","",""
"image-selector-fb","519","1858610","0.0-46.50-0.50","1879","pics2/FR6.jpg,pics2/FR2.jpg","","","","","","","false","0","","","heartS.png","","",""
"image-slider-2AFC","520","1863626","0.0-46.50-1.50","null","","","","null","","","","","","","","sizeS.png","","",""
"html-keyboard-response","521","1864483","0.0-46.50-2.50","null","","","","","","","null","","","","","","","",""
"image-selector-fb","522","1866487","0.0-46.51-0.51","1472","pics2/VE1.jpg,pics2/FR5.jpg","","","","","","","true","1","","","heartS.png","","",""
"image-slider-2AFC","523","1871501","0.0-46.51-1.51","null","","","","null","","","","","","","","heartS.png","","",""
"html-keyboard-response","524","1872360","0.0-46.51-2.51","null","","","","","","","null","","","","","","","",""
"image-selector-fb","525","1874149","0.0-46.52-0.52","1264","pics2/FR1.jpg,pics2/SA4.jpg","","","","","","","true","1","","","sizeS.png","","",""
"image-slider-2AFC","526","1879160","0.0-46.52-1.52","null","","","","null","","","","","","","","sizeS.png","","",""
"html-keyboard-response","527","1879969","0.0-46.52-2.52","null","","","","","","","null","","","","","","","",""
"image-selector-fb","528","1882993","0.0-46.53-0.53","null","pics2/SW5.jpg,pics2/VE1.jpg","","","","","","","false","null","","","noS.png","","",""
"image-slider-2AFC","529","1888002","0.0-46.53-1.53","null","","","","null","","","","","","","","heartS.png","","",""
"html-keyboard-response","530","1888760","0.0-46.53-2.53","null","","","","","","","null","","","","","","","",""
"image-selector-fb","531","1891795","0.0-46.54-0.54","null","pics2/SA3.jpg,pics2/FR5.jpg","","","","","","","false","null","","","noS.png","","",""
"image-slider-2AFC","532","1896806","0.0-46.54-1.54","null","","","","null","","","","","","","","heartS.png","","",""
"html-keyboard-response","533","1897562","0.0-46.54-2.54","null","","","","","","","null","","","","","","","",""
"image-selector-fb","534","1900584","0.0-46.55-0.55","null","pics2/FR4.jpg,pics2/FR5.jpg","","","","","","","false","null","","","noS.png","","",""
"image-slider-2AFC","535","1905594","0.0-46.55-1.55","null","","","","null","","","","","","","","heartS.png","","",""
"html-keyboard-response","536","1906353","0.0-46.55-2.55","null","","","","","","","null","","","","","","","",""
"image-selector-fb","537","1909380","0.0-46.56-0.56","null","pics2/FR3.jpg,pics2/SA2.jpg","","","","","","","false","null","","","noS.png","","",""
"image-slider-2AFC","538","1914385","0.0-46.56-1.56","null","","","","null","","","","","","","","sizeS.png","","",""
"html-keyboard-response","539","1915245","0.0-46.56-2.56","null","","","","","","","null","","","","","","","",""
"image-selector-fb","540","1918347","0.0-46.57-0.57","2586","pics2/FR4.jpg,pics2/VE1.jpg","","","","","","","false","0","","","sizeS.png","","",""
"image-slider-2AFC","541","1923359","0.0-46.57-1.57","null","","","","null","","","","","","","","sizeS.png","","",""
"html-keyboard-response","542","1924118","0.0-46.57-2.57","null","","","","","","","null","","","","","","","",""
"image-selector-fb","543","1926010","0.0-46.58-0.58","1375","pics2/FR6.jpg,pics2/SW3.jpg","","","","","","","true","1","","","heartS.png","","",""
"image-slider-2AFC","544","1931027","0.0-46.58-1.58","null","","","","null","","","","","","","","sizeS.png","","",""
"html-keyboard-response","545","1931835","0.0-46.58-2.58","null","","","","","","","null","","","","","","","",""
"image-selector-fb","546","1934571","0.0-46.59-0.59","2218","pics2/SA2.jpg,pics2/SW5.jpg","","","","","","","true","1","","","sizeS.png","","",""
"image-slider-2AFC","547","1939579","0.0-46.59-1.59","null","","","","null","","","","","","","","sizeS.png","","",""
"html-keyboard-response","548","1940338","0.0-46.59-2.59","null","","","","","","","null","","","","","","","",""
"image-selector-fb","549","1942700","0.0-46.60-0.60","1847","pics2/SW5.jpg,pics2/FR6.jpg","","","","","","","false","0","","","heartS.png","","",""
"image-slider-2AFC","550","1947713","0.0-46.60-1.60","null","","","","null","","","","","","","","sizeS.png","","",""
"html-keyboard-response","551","1948423","0.0-46.60-2.60","null","","","","","","","null","","","","","","","",""
"image-selector-fb","552","1950797","0.0-46.61-0.61","1855","pics2/SA2.jpg,pics2/FR5.jpg","","","","","","","false","0","","","heartS.png","","",""
"image-slider-2AFC","553","1955808","0.0-46.61-1.61","null","","","","null","","","","","","","","heartS.png","","",""
"html-keyboard-response","554","1956668","0.0-46.61-2.61","null","","","","","","","null","","","","","","","",""
"image-selector-fb","555","1959312","0.0-46.62-0.62","2126","pics2/SA3.jpg,pics2/FR6.jpg","","","","","","","false","0","","","sizeS.png","","",""
"image-slider-2AFC","556","1964327","0.0-46.62-1.62","null","","","","null","","","","","","","","sizeS.png","","",""
"html-keyboard-response","557","1965037","0.0-46.62-2.62","null","","","","","","","null","","","","","","","",""
"image-selector-fb","558","1967299","0.0-46.63-0.63","1740","pics2/FR3.jpg,pics2/FR2.jpg","","","","","","","false","0","","","sizeS.png","","",""
"image-slider-2AFC","559","1972304","0.0-46.63-1.63","null","","","","null","","","","","","","","heartS.png","","",""
"html-keyboard-response","560","1973113","0.0-46.63-2.63","null","","","","","","","null","","","","","","","",""
"image-selector-fb","561","1976144","0.0-46.64-0.64","null","pics2/FR2.jpg,pics2/SA2.jpg","","","","","","","false","null","","","noS.png","","",""
"image-slider-2AFC","562","1981156","0.0-46.64-1.64","null","","","","null","","","","","","","","sizeS.png","","",""
"html-keyboard-response","563","1981963","0.0-46.64-2.64","null","","","","","","","null","","","","","","","",""
"image-selector-fb","564","1984157","0.0-46.65-0.65","1684","pics2/SW5.jpg,pics2/FR3.jpg","","","","","","","false","0","","","heartS.png","","",""
"image-slider-2AFC","565","1989170","0.0-46.65-1.65","null","","","","null","","","","","","","","heartS.png","","",""
"html-keyboard-response","566","1989930","0.0-46.65-2.65","null","","","","","","","null","","","","","","","",""
