"trial_type","trial_index","time_elapsed","internal_node_id","rt","stimulus","button_pressed","success","response","cat","value","key_press","correct","image_click","first_click_rt","first_click_val","symbol","all_click_rt","all_click_val","view_history"
"pavlovia","0","19","0.0-0.0","","","","","","","","","","","","","","","",""
"html-button-response","1","6953","0.0-1.0","6930","<div style='width: 700px; font-size: 150%'><font size='40'>  Welcome to our study!</font><br><br><br> <small> Our experiment is about <i>decision making</i>. You will choose and rate different food items, such as these: <br><br> <div><img src='food_combo2.png', height = '400px'></img></div>","0","","","","","","","","","","","","",""
"html-button-response","2","11397","0.0-2.0","4440","<div style='width: 700px; font-size: 150%'><br><br><br><small> <u><i>This is a multi-part study.</i></u><br><br> In the first part you will rate 24 food items twice.<br><br><div><img src=""rat1.png"" style=""width: 25%""></img></div><br>In the second part (longest) you will make repeated choices and judgements concerning the food items.<br><br><div><img src=""mainx.png"" style=""width: 50%""></img></div><br>In the third and final part, you will rate the items again and answer few short questionnaires.<br><br><div><img src=""rat2.png"" style=""width: 50%""></img></div><br><br>","0","","","","","","","","","","","","",""
"fullscreen","3","14845","0.0-3.0","","","","true","","","","","","","","","","","",""
"html-button-response","4","17664","0.0-4.0","2815","<div style='width: 900px; font-size: 150%;' <font size='20%'> In the first part of the task you will use the mouse to rate food items on <i>2 scales</i> </font></div><br><br><div style='width: 900px'><div style='float: left; width: 50%; margin-right:2.5em'><img src='heartS.png'></img><p class='small' style='text-align: justify'>When you see the heart cue you will rate food items in terms of how much like them/would like to eat them <i>right now</i>. You will rate them on a continuous scale from left (strong dislike) to right (strong liking). Before submitting your rating, try imagining how the item tastes and how much you desire it.<br><br></p></div><div ><img src='sizeS.png'></img><p class='small' style='text-align: justify'>When you see the size cue, you will rate the same food items in terms of their size. The scale goes from left (tiny) to right (very large). You should assess picture size <i><u>relative</i></u> to the white background. <b>Remember:</b> rate the size of the picture, <u>not</u> the size of the item in real life. </p></div><div style='width: 900px'><br><br><b><i>Notice:</b> by starting the rating you agree that your sumbission might be rejected at an early stage and the experiment might end, if your size ratings are not at least modestly related to objective sizes, or if you repeat the same value ratings too many times. If you don't agree, please exit by closing the browser window. </i><br><br><br>","0","","","","","","","","","","","","",""
"html-button-response","5","19185","0.0-5.0","1516","<div><img src='heartS.png'></img></div><br><div style='text-align: justify; width: 700px'>Using the mouse, rate the <b><i>likeness</b></i> of the food items (how much you like them/would like to eat them <i>right now</i>). Far right-end of the scale indicates an item you <i>like a lot</i>. Far left-end indicates an item you <i>dislike a lot</i>. Think about each answer.   <ul><li>Try <b><i>not</b></i> to give identical rating to different items.</li><li>Use the whole scale, and <b><i>not</b></i> just the extremes</ul></div><br>","0","","","","","","","","","","","","",""
"image-slider-response","6","22373","0.0-6.0-0.0-0.0","3179","pics2/SW5.jpg","","","72","SW","","","","","","","","","",""
"image-slider-response","7","25542","0.0-6.0-0.0-0.1","2963","pics2/FR1.jpg","","","84","FR","","","","","","","","","",""
"image-slider-response","8","33452","0.0-6.0-0.0-0.2","7705","pics2/VE4.jpg","","","36","VE","","","","","","","","","",""
"image-slider-response","9","39400","0.0-6.0-0.0-0.3","5743","pics2/FR3.jpg","","","86","FR","","","","","","","","","",""
"image-slider-response","10","47979","0.0-6.0-0.0-0.4","8373","pics2/VE3.jpg","","","72","VE","","","","","","","","","",""
"image-slider-response","11","67103","0.0-6.0-0.0-0.5","18918","pics2/FR2.jpg","","","84","FR","","","","","","","","","",""
"image-slider-response","12","71595","0.0-6.0-0.0-0.6","4286","pics2/SW2.jpg","","","95","SW","","","","","","","","","",""
"image-slider-response","13","86318","0.0-6.0-0.0-0.7","14517","pics2/VE1.jpg","","","65","VE","","","","","","","","","",""
"image-slider-response","14","90284","0.0-6.0-0.0-0.8","3761","pics2/VE5.jpg","","","67","VE","","","","","","","","","",""
"image-slider-response","15","93618","0.0-6.0-0.0-0.9","3127","pics2/SA5.jpg","","","10","SA","","","","","","","","","",""
"image-slider-response","16","96471","0.0-6.0-0.0-0.10","2647","pics2/SA3.jpg","","","71","SA","","","","","","","","","",""
"image-slider-response","17","99683","0.0-6.0-0.0-0.11","3007","pics2/VE2.jpg","","","65","VE","","","","","","","","","",""
"image-slider-response","18","104258","0.0-6.0-0.0-0.12","4370","pics2/SW1.jpg","","","53","SW","","","","","","","","","",""
"image-slider-response","19","121299","0.0-6.0-0.0-0.13","16836","pics2/SW6.jpg","","","67","SW","","","","","","","","","",""
"image-slider-response","20","125524","0.0-6.0-0.0-0.14","4020","pics2/VE6.jpg","","","9","VE","","","","","","","","","",""
"image-slider-response","21","146115","0.0-6.0-0.0-0.15","20385","pics2/SW4.jpg","","","63","SW","","","","","","","","","",""
"image-slider-response","22","149081","0.0-6.0-0.0-0.16","2760","pics2/FR6.jpg","","","78","FR","","","","","","","","","",""
"image-slider-response","23","152956","0.0-6.0-0.0-0.17","3669","pics2/SW3.jpg","","","81","SW","","","","","","","","","",""
"image-slider-response","24","157680","0.0-6.0-0.0-0.18","4519","pics2/SA6.jpg","","","64","SA","","","","","","","","","",""
"image-slider-response","25","161431","0.0-6.0-0.0-0.19","3544","pics2/FR4.jpg","","","88","FR","","","","","","","","","",""
"image-slider-response","26","166955","0.0-6.0-0.0-0.20","5319","pics2/SA1.jpg","","","67","SA","","","","","","","","","",""
"image-slider-response","27","171211","0.0-6.0-0.0-0.21","4050","pics2/SA2.jpg","","","68","SA","","","","","","","","","",""
"image-slider-response","28","175106","0.0-6.0-0.0-0.22","3689","pics2/FR5.jpg","","","71","FR","","","","","","","","","",""
"image-slider-response","29","177839","0.0-6.0-0.0-0.23","2528","pics2/SA4.jpg","","","82","SA","","","","","","","","","",""
"html-button-response","30","179836","0.0-7.0","1793","<div style='width: 900px;'> <font size = 6><b> End of the first rating</b><br><br>","0","","","","","","","","","","","","",""
"html-button-response","31","198121","0.0-9.0","18281","<div ><img src='sizeS.png'></img></div><br><div style='text-align: justify; width: 700px'> Using the mouse, rate the <b><i>size</b></i> of the food items <b><i> relative to the white background.</b></i> Right-end of the scale indicates a <i>very large item</i>, which covers a large portion of the white rectangle. Left-end indicates a <i>very tiny</i> item which covers a tiny portion of the white rectangle.<br><br><i><u>Remember</i></u>: everything that is not the white background also contributes to item size (e.g. packing, plates, ect.)<br><br> Please keep in mind that if the accuracy of ratings do not allign well with actual sizes, the experiment will end.  As a result it will be consider incomplete and therefore no payment would be made. Good luck!<br><br></div><br>","0","","","","","","","","","","","","",""
"html-button-response","32","202227","0.0-10.0","4102","<div ><img src='sizeS.png'></img></div><br><b><font size=6>Examples of items that you might encounter</b><br><div style='width: 750px;'><div style='width: 33.33%; float:left'><br><br><br><i>Large Item</i><br><br><img src='large.jpg', width=200px></img></div><div style='float:right'><br><br><br><i>Small Item</i><br><br><img src='small.jpg', width=200px></img></div><div ><br><br><br><i>Medium Item</i><br><br><img src='med.jpg', width=200px></img></div></div><br><br>","0","","","","","","","","","","","","",""
"image-slider-response","33","209516","0.0-11.0-0.0-0.0","7284","pics2/FR4.jpg","","","36","null","","","","","","","","","",""
"image-slider-response","34","214818","0.0-11.0-0.0-0.1","5098","pics2/SW5.jpg","","","26","null","","","","","","","","","",""
"image-slider-response","35","219738","0.0-11.0-0.0-0.2","4713","pics2/SW3.jpg","","","44","null","","","","","","","","","",""
"image-slider-response","36","224496","0.0-11.0-0.0-0.3","4552","pics2/FR2.jpg","","","24","null","","","","","","","","","",""
"image-slider-response","37","229211","0.0-11.0-0.0-0.4","4511","pics2/SA2.jpg","","","53","null","","","","","","","","","",""
"image-slider-response","38","238693","0.0-11.0-0.0-0.5","9277","pics2/FR6.jpg","","","50","null","","","","","","","","","",""
"image-slider-response","39","252346","0.0-11.0-0.0-0.6","13447","pics2/SW1.jpg","","","32","null","","","","","","","","","",""
"image-slider-response","40","255974","0.0-11.0-0.0-0.7","3410","pics2/FR3.jpg","","","80","null","","","","","","","","","",""
"image-slider-response","41","258721","0.0-11.0-0.0-0.8","2541","pics2/VE4.jpg","","","31","null","","","","","","","","","",""
"image-slider-response","42","260608","0.0-11.0-0.0-0.9","1683","pics2/SA6.jpg","","","50","null","","","","","","","","","",""
"image-slider-response","43","264684","0.0-11.0-0.0-0.10","3872","pics2/VE6.jpg","","","22","null","","","","","","","","","",""
"image-slider-response","44","267848","0.0-11.0-0.0-0.11","2957","pics2/VE1.jpg","","","50","null","","","","","","","","","",""
"image-slider-response","45","271584","0.0-11.0-0.0-0.12","3532","pics2/FR1.jpg","","","87","null","","","","","","","","","",""
"image-slider-response","46","273884","0.0-11.0-0.0-0.13","2094","pics2/SW6.jpg","","","50","null","","","","","","","","","",""
"image-slider-response","47","276372","0.0-11.0-0.0-0.14","2283","pics2/VE2.jpg","","","50","null","","","","","","","","","",""
"image-slider-response","48","280492","0.0-11.0-0.0-0.15","3914","pics2/SW4.jpg","","","71","null","","","","","","","","","",""
"image-slider-response","49","286376","0.0-11.0-0.0-0.16","5675","pics2/FR5.jpg","","","87","null","","","","","","","","","",""
"image-slider-response","50","290754","0.0-11.0-0.0-0.17","4172","pics2/SA5.jpg","","","50","null","","","","","","","","","",""
"image-slider-response","51","293415","0.0-11.0-0.0-0.18","2456","pics2/VE3.jpg","","","79","null","","","","","","","","","",""
"image-slider-response","52","297192","0.0-11.0-0.0-0.19","3572","pics2/SA4.jpg","","","47","null","","","","","","","","","",""
"image-slider-response","53","300157","0.0-11.0-0.0-0.20","2759","pics2/VE5.jpg","","","88","null","","","","","","","","","",""
"image-slider-response","54","303182","0.0-11.0-0.0-0.21","2820","pics2/SW2.jpg","","","91","null","","","","","","","","","",""
"image-slider-response","55","307190","0.0-11.0-0.0-0.22","3802","pics2/SA1.jpg","","","88","null","","","","","","","","","",""
"image-slider-response","56","310022","0.0-11.0-0.0-0.23","2608","pics2/SA3.jpg","","","76","null","","","","","","","","","",""
"html-button-response","57","311616","0.0-12.0","1388","<div style='width: 900px;'> <font size = 6><b> End of the second rating</b><br><br>","0","","","","","","","","","","","","",""
"html-button-response","58","318139","0.0-13.0","6521","<div style='width: 900px;'>Now please rate the items for the second time. <br><br>This is not a memory test - you don't need to be consistent with your previous ratings. Just as before, try to make accurate judgements.<br><br>","0","","","","","","","","","","","","",""
"html-button-response","59","319529","0.0-14.0","1386","<div><img src='heartS.png'></img></div><br><div style='text-align: justify; width: 700px'>Using the mouse, rate the <b><i>likeness</b></i> of the food items (how much you like them/would like to eat them <i>right now</i>). Far right-end of the scale indicates an item you <i>like a lot</i>. Far left-end indicates an item you <i>dislike a lot</i>. Think about each answer.   <ul><li>Try <b><i>not</b></i> to give identical rating to different items.</li><li>Use the whole scale, and <b><i>not</b></i> just the extremes</ul></div><br>","0","","","","","","","","","","","","",""
"image-slider-response","60","321809","0.0-15.0-0.0-0.0","2276","pics2/SA2.jpg","","","66","SA","","","","","","","","","",""
"image-slider-response","61","324706","0.0-15.0-0.0-0.1","2691","pics2/FR3.jpg","","","79","FR","","","","","","","","","",""
"image-slider-response","62","327640","0.0-15.0-0.0-0.2","2728","pics2/FR2.jpg","","","74","FR","","","","","","","","","",""
"image-slider-response","63","330198","0.0-15.0-0.0-0.3","2353","pics2/SW6.jpg","","","69","SW","","","","","","","","","",""
"image-slider-response","64","336206","0.0-15.0-0.0-0.4","5803","pics2/SW1.jpg","","","67","SW","","","","","","","","","",""
"image-slider-response","65","338655","0.0-15.0-0.0-0.5","2243","pics2/VE3.jpg","","","67","VE","","","","","","","","","",""
"image-slider-response","66","341556","0.0-15.0-0.0-0.6","2695","pics2/VE1.jpg","","","64","VE","","","","","","","","","",""
"image-slider-response","67","344020","0.0-15.0-0.0-0.7","2259","pics2/VE4.jpg","","","30","VE","","","","","","","","","",""
"image-slider-response","68","346711","0.0-15.0-0.0-0.8","2485","pics2/SA3.jpg","","","64","SA","","","","","","","","","",""
"image-slider-response","69","349221","0.0-15.0-0.0-0.9","2304","pics2/VE6.jpg","","","50","VE","","","","","","","","","",""
"image-slider-response","70","351878","0.0-15.0-0.0-0.10","2452","pics2/FR6.jpg","","","77","FR","","","","","","","","","",""
"image-slider-response","71","354146","0.0-15.0-0.0-0.11","2063","pics2/SW3.jpg","","","85","SW","","","","","","","","","",""
"image-slider-response","72","356235","0.0-15.0-0.0-0.12","1883","pics2/VE5.jpg","","","50","VE","","","","","","","","","",""
"image-slider-response","73","358455","0.0-15.0-0.0-0.13","2013","pics2/FR5.jpg","","","72","FR","","","","","","","","","",""
"image-slider-response","74","360904","0.0-15.0-0.0-0.14","2243","pics2/SW2.jpg","","","75","SW","","","","","","","","","",""
"image-slider-response","75","363235","0.0-15.0-0.0-0.15","2125","pics2/SW4.jpg","","","50","SW","","","","","","","","","",""
"image-slider-response","76","368889","0.0-15.0-0.0-0.16","5448","pics2/SA5.jpg","","","54","SA","","","","","","","","","",""
"image-slider-response","77","373153","0.0-15.0-0.0-0.17","4059","pics2/SW5.jpg","","","68","SW","","","","","","","","","",""
"image-slider-response","78","377408","0.0-15.0-0.0-0.18","4049","pics2/FR1.jpg","","","79","FR","","","","","","","","","",""
"image-slider-response","79","383033","0.0-15.0-0.0-0.19","5420","pics2/SA1.jpg","","","33","SA","","","","","","","","","",""
"image-slider-response","80","385537","0.0-15.0-0.0-0.20","2298","pics2/VE2.jpg","","","70","VE","","","","","","","","","",""
"image-slider-response","81","389194","0.0-15.0-0.0-0.21","3453","pics2/SA6.jpg","","","67","SA","","","","","","","","","",""
"image-slider-response","82","391563","0.0-15.0-0.0-0.22","2162","pics2/FR4.jpg","","","83","FR","","","","","","","","","",""
"image-slider-response","83","394795","0.0-15.0-0.0-0.23","3026","pics2/SA4.jpg","","","69","SA","","","","","","","","","",""
"call-function","84","395021","0.0-16.0","","","","","","","","","","","","","","","",""
"call-function","85","395028","0.0-17.0","","","","","","","","","","","","","","","",""
"html-button-response","86","396393","0.0-18.0","1364","<div style='width: 900px;'> <font size = 6><b> End of the first rating</b><br><br>","0","","","","","","","","","","","","",""
"html-button-response","87","399369","0.0-19.0","2971","<div ><img src='sizeS.png'></img></div><br><div style='text-align: justify; width: 700px'> Using the mouse, rate the <b><i>size</b></i> of the food items <b><i> relative to the white background.</b></i> Right-end of the scale indicates a <i>very large item</i>, which covers a large portion of the white rectangle. Left-end indicates a <i>very tiny</i> item which covers a tiny portion of the white rectangle.<br><br><i><u>Remember</i></u>: everything that is not the white background also contributes to item size (e.g. packing, plates, ect.)<br><br> Please keep in mind that if the accuracy of ratings do not allign well with actual sizes, the experiment will end.  As a result it will be consider incomplete and therefore no payment would be made. Good luck!<br><br></div><br>","0","","","","","","","","","","","","",""
"image-slider-response","88","401929","0.0-20.0-0.0-0.0","2556","pics2/VE2.jpg","","","89","null","","","","","","","","","",""
"image-slider-response","89","407112","0.0-20.0-0.0-0.1","4978","pics2/FR3.jpg","","","85","null","","","","","","","","","",""
"image-slider-response","90","410480","0.0-20.0-0.0-0.2","3162","pics2/SW2.jpg","","","81","null","","","","","","","","","",""
"image-slider-response","91","412735","0.0-20.0-0.0-0.3","2050","pics2/SA6.jpg","","","64","null","","","","","","","","","",""
"image-slider-response","92","414995","0.0-20.0-0.0-0.4","2055","pics2/FR1.jpg","","","86","null","","","","","","","","","",""
"image-slider-response","93","418253","0.0-20.0-0.0-0.5","3053","pics2/SW4.jpg","","","78","null","","","","","","","","","",""
"image-slider-response","94","422466","0.0-20.0-0.0-0.6","4008","pics2/VE4.jpg","","","50","null","","","","","","","","","",""
"image-slider-response","95","426077","0.0-20.0-0.0-0.7","3407","pics2/VE6.jpg","","","66","null","","","","","","","","","",""
"image-slider-response","96","428410","0.0-20.0-0.0-0.8","2128","pics2/SW6.jpg","","","70","null","","","","","","","","","",""
"image-slider-response","97","430591","0.0-20.0-0.0-0.9","1978","pics2/FR5.jpg","","","78","null","","","","","","","","","",""
"image-slider-response","98","433016","0.0-20.0-0.0-0.10","2220","pics2/FR6.jpg","","","80","null","","","","","","","","","",""
"image-slider-response","99","436224","0.0-20.0-0.0-0.11","3003","pics2/SW5.jpg","","","95","null","","","","","","","","","",""
"image-slider-response","100","438534","0.0-20.0-0.0-0.12","2105","pics2/SW1.jpg","","","87","null","","","","","","","","","",""
"image-slider-response","101","444791","0.0-20.0-0.0-0.13","6052","pics2/FR2.jpg","","","74","null","","","","","","","","","",""
"image-slider-response","102","448536","0.0-20.0-0.0-0.14","3540","pics2/SA1.jpg","","","95","null","","","","","","","","","",""
"image-slider-response","103","451171","0.0-20.0-0.0-0.15","2431","pics2/VE5.jpg","","","54","null","","","","","","","","","",""
"image-slider-response","104","453642","0.0-20.0-0.0-0.16","2266","pics2/SW3.jpg","","","88","null","","","","","","","","","",""
"image-slider-response","105","457051","0.0-20.0-0.0-0.17","3204","pics2/SA3.jpg","","","89","null","","","","","","","","","",""
"image-slider-response","106","459375","0.0-20.0-0.0-0.18","2118","pics2/FR4.jpg","","","82","null","","","","","","","","","",""
"image-slider-response","107","461699","0.0-20.0-0.0-0.19","2119","pics2/SA2.jpg","","","76","null","","","","","","","","","",""
"image-slider-response","108","463956","0.0-20.0-0.0-0.20","2052","pics2/VE3.jpg","","","77","null","","","","","","","","","",""
"image-slider-response","109","466065","0.0-20.0-0.0-0.21","1905","pics2/SA4.jpg","","","76","null","","","","","","","","","",""
"image-slider-response","110","469887","0.0-20.0-0.0-0.22","3617","pics2/VE1.jpg","","","94","null","","","","","","","","","",""
"image-slider-response","111","473299","0.0-20.0-0.0-0.23","3206","pics2/SA5.jpg","","","37","null","","","","","","","","","",""
"call-function","112","473514","0.0-21.0","","","","","","","","","","","","","","","",""
"html-button-response","113","474703","0.0-22.0","1188","<div style='width: 900px;'> <font size = 6><b> End of the second rating</b><br><br>","0","","","","","","","","","","","","",""
"pavlovia","114","474740","0.0-23.0","","","","","","","","","","","","","","","",""
"html-keyboard-response","115","479747","0.0-24.0","null","<div style='width: 700px;'> <font size=6><b>SHORT BREAK</font></b><br><br><i> Please wait 5 seconds to continue</i></div> ","","","","","","null","","","","","","","",""
"pavlovia","116","479756","0.0-25.0","","","","","","","","","","","","","","","",""
"html-button-response","117","483811","0.0-26.0","4051","<div style='width: 700px;'>In the main part of the study, you will be choosing between 2 items. When it's time to choose,  this symbol will appear: <br><br><img src='chooseS.png'></img><br><br>Below, a cue will signify the type of choice: </div><br><div style='width: 700px;'><div style='float: left; width: 50%'><img src='heartS.png'></img><p class='small'>Heart cue means you should choose the item you <b><i>prefer</b></i> more.</p></div><div class='float: right; width:50%'><img src='sizeS.png'></img><p class='small'>Size cue means you should choose the <b><i>larger</b></i> item. </p></div></div><br><div style='width: 700px;'>When you click, a green square will appear around the item you chose.<br></div><div><br>","0","","","","","","","","","","","","",""
"image-selector-fb-tut","118","491447","0.0-27.0","6623","0232.jpg,0123.jpg","","","","","","","true","1","","","","","",""
"image-selector-fb-tut","119","496408","0.0-28.0","3953","0232.jpg,0123.jpg","","","","","","","true","1","","","","","",""
"html-button-response","120","498365","0.0-29.0","1955","<div style='width: 900px;'>Your choices should be both <b><i>fast and accurate</b></i>. <br><br>You will have <i>4 seconds</i> to make each choice, which should be enough consider the options and click on one of the items.<br><br>","0","","","","","","","","","","","","",""
"html-button-response","121","501473","0.0-30.0","3105","<div style='width: 900px;'>Additionally, on some choice trials you will see the <b><i>no-choice cue</b></i>: <br><br><img src='noS.png'></img> <br><br>This cue means you can't make any choice. You can examine the items, but  can't click on any of them. Just wait patiently for the cue to dissapear.<br><br>","0","","","","","","","","","","","","",""
"image-selector-fb-tut","122","503491","0.0-31.0","null","0232.jpg,0123.jpg","","","","","","","false","null","","","","","",""
"html-button-response","123","505030","0.0-32.0","1535","<div style='width: 900px;'>After each choice the items will remain on the screen and you will see this symbol: <br><br><img src='judgeS.png'></img> <br><br>This means you should rate<b> the magnitude of the difference</b> between the items using a scale: </div><br><div style='width: 900px; '><div style='float: left; width: 50%; margin-right: 2.5em; align-self:left'><img src='heartS.png'></img><p class='small' style = 'text-align: justify;'>Heart cue means you should rate <b>how much you prefer</b> one of the items over the other. Moving the scale indicator to the left means you prefer the left one; moving it to the right - right one. The more you prefer one of them, the more towards that side you should move the scale indicator. </p></div><div class='float: right; width: 50%; margin-left: 2.5em;'><img src='sizeS.png'></img><p class='small' style='text-align: justify'>Size cue means you should rate <b>how much larger</b> is one of the items over the other. Moving the scale indicator to the left means you think the left is larger; moving it to the right - right one. The greater the difference in size, the more towards that side you should move the scale indicator.</div><br>","0","","","","","","","","","","","","",""
"image-slider-2AFC-tut","124","513140","0.0-33.0","8101","","","","50","","","","","","","","","","",""
"image-slider-2AFC-tut","125","517041","0.0-34.0","3897","","","","96","","","","","","2659","96","","","",""
"html-button-response","126","530010","0.0-35.0","12965","<br><br><font size = 36><b> Examples </b></font><br><br><i> 1) I would like to eat some croissants a <b>lot more</b> than doritos right now:</i><br><img src='ex1.PNG', width='62%'></img><br><br><br><i> 2) I would like to eat some doritos a <b>bit more</b> than croissants right now, but just slightly:</i><br><img src='ex2.PNG' width='62%'></img>","0","","","","","","","","","","","","",""
"html-button-response","127","532677","0.0-36.0","2665","<div style='width: 900px;'><i>Now you know everything you need to do the task!</i> <br><br>Let's start by doing a <b>short training</b>, so you'll get used to how it works. </div><br>","0","","","","","","","","","","","","",""
"image-selector-fb","128","535971","0.0-37.0-0.0","2780","pics2/VE1.jpg,pics2/VE5.jpg","","","","","","","false","0","","","heartS.png","","",""
"image-slider-2AFC","129","539680","0.0-37.0-1.0","3700","","","","-41","","","","","","","","heartS.png","2262","-41",""
"html-keyboard-response","130","540484","0.0-37.0-2.0","null","","","","","","","null","","","","","","","",""
"image-selector-fb","131","543234","0.0-37.1-0.1","2237","pics2/VE4.jpg,pics2/VE2.jpg","","","","","","","true","1","","","sizeS.png","","",""
"image-slider-2AFC","132","546103","0.0-37.1-1.1","2864","","","","43","","","","","","","","heartS.png","1795","43",""
"html-keyboard-response","133","546907","0.0-37.1-2.1","null","","","","","","","null","","","","","","","",""
"image-selector-fb","134","549918","0.0-37.2-0.2","null","pics2/SW4.jpg,pics2/VE5.jpg","","","","","","","false","null","","","noS.png","","",""
"image-slider-2AFC","135","552670","0.0-37.2-1.2","2749","","","","-42","","","","","","","","heartS.png","1645","-42",""
"html-keyboard-response","136","553425","0.0-37.2-2.2","null","","","","","","","null","","","","","","","",""
"image-selector-fb","137","556016","0.0-37.3-0.3","2082","pics2/SA3.jpg,pics2/SA1.jpg","","","","","","","false","0","","","heartS.png","","",""
"image-slider-2AFC","138","558938","0.0-37.3-1.3","2917","","","","-47","","","","","","","","heartS.png","1895","-47",""
"html-keyboard-response","139","559743","0.0-37.3-2.3","null","","","","","","","null","","","","","","","",""
"image-selector-fb","140","562753","0.0-37.4-0.4","null","pics2/SA5.jpg,pics2/VE5.jpg","","","","","","","false","null","","","noS.png","","",""
"image-slider-2AFC","141","565771","0.0-37.4-1.4","3013","","","","84","","","","","","","","sizeS.png","1280,2002","63,84",""
"html-keyboard-response","142","566525","0.0-37.4-2.4","null","","","","","","","null","","","","","","","",""
"image-selector-fb","143","568621","0.0-37.5-0.5","1588","pics2/SW1.jpg,pics2/VE2.jpg","","","","","","","false","0","","","sizeS.png","","",""
"image-slider-2AFC","144","570695","0.0-37.5-1.5","2068","","","","-50","","","","","","","","heartS.png","1086","-50",""
"html-keyboard-response","145","571450","0.0-37.5-2.5","null","","","","","","","null","","","","","","","",""
"image-selector-fb","146","574447","0.0-37.6-0.6","2489","pics2/VE4.jpg,pics2/SA5.jpg","","","","","","","false","0","","","sizeS.png","","",""
"image-slider-2AFC","147","579353","0.0-37.6-1.6","4901","","","","-10","","","","","","","","heartS.png","3833","-10",""
"html-keyboard-response","148","580107","0.0-37.6-2.6","null","","","","","","","null","","","","","","","",""
"image-selector-fb","149","584120","0.0-37.7-0.7","3505","pics2/SA3.jpg,pics2/SA2.jpg","","","","","","","true","1","","","heartS.png","","",""
"image-slider-2AFC","150","586336","0.0-37.7-1.7","2212","","","","39","","","","","","","","sizeS.png","1211","39",""
"html-keyboard-response","151","587190","0.0-37.7-2.7","null","","","","","","","null","","","","","","","",""
"image-selector-fb","152","590200","0.0-37.8-0.8","null","pics2/VE2.jpg,pics2/SA1.jpg","","","","","","","false","null","","","noS.png","","",""
"image-slider-2AFC","153","593034","0.0-37.8-1.8","2830","","","","-19","","","","","","","","sizeS.png","1742","-19",""
"html-keyboard-response","154","593738","0.0-37.8-2.8","null","","","","","","","null","","","","","","","",""
"image-selector-fb","155","596778","0.0-37.9-0.9","2532","pics2/SA5.jpg,pics2/SA1.jpg","","","","","","","true","1","","","heartS.png","","",""
"image-slider-2AFC","156","601787","0.0-37.9-1.9","null","","","","null","","","","","","","","sizeS.png","3972","12",""
"html-keyboard-response","157","602541","0.0-37.9-2.9","null","","","","","","","null","","","","","","","",""
"image-selector-fb","158","605240","0.0-37.10-0.10","2190","pics2/SW1.jpg,pics2/SW4.jpg","","","","","","","false","0","","","sizeS.png","","",""
"image-slider-2AFC","159","607652","0.0-37.10-1.10","2407","","","","-36","","","","","","","","heartS.png","1478","-36",""
"html-keyboard-response","160","608455","0.0-37.10-2.10","null","","","","","","","null","","","","","","","",""
"image-selector-fb","161","610898","0.0-37.11-0.11","1934","pics2/SW1.jpg,pics2/SA5.jpg","","","","","","","false","0","","","sizeS.png","","",""
"image-slider-2AFC","162","612650","0.0-37.11-1.11","1747","","","","-73","","","","","","","","heartS.png","711","-73",""
"html-keyboard-response","163","613453","0.0-37.11-2.11","null","","","","","","","null","","","","","","","",""
"html-button-response","164","615480","0.0-38.0","2024","<i><font size=10>Good job!</font></i> <br><br>Before we begin, you have a chance to review the rules, in case something was not clear.<br><br>","0","","","","","","","","","","","","",""
"instructions","165","628222","0.0-39.0","12739","","","","","","","","","","","","","","","[{""page_index"":0,""viewing_time"":7523},{""page_index"":1,""viewing_time"":3306},{""page_index"":2,""viewing_time"":1909}]"
"html-button-response","166","630131","0.0-40.0","1906","<div style='width: 900px;'> <font size='40'>Great! Now you're ready to begin</font><br><br>The main part of the experiment will consist of <u>3 blocks</u>. Each block consists of 66 decisions and judgements. You will have time for a short break between blocks.<br><br><br><i><u>Do your best to respond within the time limit.</u></i><br><br><i> Press the button to start the experiment<br><br></i>","0","","","","","","","","","","","","",""
"image-selector-fb","167","634638","0.0-41.0-0.0","null","pics2/FR2.jpg,pics2/SW6.jpg","","","","","","","false","null","","","heartS.png","","",""
"image-slider-2AFC","168","634640","0.0-41.0-1.0","null","","","","null","","","","","","","","sizeS.png","","",""
"html-keyboard-response","169","635444","0.0-41.0-2.0","null","","","","","","","null","","","","","","","",""
"image-selector-fb","170","638455","0.0-41.1-0.1","null","pics2/SW5.jpg,pics2/FR4.jpg","","","","","","","false","null","","","noS.png","","",""
"image-slider-2AFC","171","641676","0.0-41.1-1.1","3217","","","","-38","","","","","","","","sizeS.png","1320","-38",""
"html-keyboard-response","172","642480","0.0-41.1-2.1","null","","","","","","","null","","","","","","","",""
"image-selector-fb","173","645293","0.0-41.2-0.2","2305","pics2/SW5.jpg,pics2/SW2.jpg","","","","","","","false","0","","","heartS.png","","",""
"image-slider-2AFC","174","647332","0.0-41.2-1.2","2035","","","","-67","","","","","","","","sizeS.png","1052","-67",""
"html-keyboard-response","175","648186","0.0-41.2-2.2","null","","","","","","","null","","","","","","","",""
"image-selector-fb","176","651377","0.0-41.3-0.3","2682","pics2/FR5.jpg,pics2/FR4.jpg","","","","","","","false","0","","","sizeS.png","","",""
"image-slider-2AFC","177","653265","0.0-41.3-1.3","1882","","","","-40","","","","","","","","sizeS.png","929","-40",""
"html-keyboard-response","178","654069","0.0-41.3-2.3","null","","","","","","","null","","","","","","","",""
"image-selector-fb","179","656819","0.0-41.4-0.4","2242","pics2/FR2.jpg,pics2/FR3.jpg","","","","","","","true","1","","","sizeS.png","","",""
"image-slider-2AFC","180","658715","0.0-41.4-1.4","1892","","","","43","","","","","","","","heartS.png","746","43",""
"html-keyboard-response","181","659469","0.0-41.4-2.4","null","","","","","","","null","","","","","","","",""
"image-selector-fb","182","662300","0.0-41.5-0.5","2323","pics2/SW5.jpg,pics2/SA4.jpg","","","","","","","false","0","","","heartS.png","","",""
"image-slider-2AFC","183","665922","0.0-41.5-1.5","3617","","","","-73","","","","","","","","heartS.png","2480","-73",""
"html-keyboard-response","184","666725","0.0-41.5-2.5","null","","","","","","","null","","","","","","","",""
"image-selector-fb","185","669735","0.0-41.6-0.6","null","pics2/FR3.jpg,pics2/FR4.jpg","","","","","","","false","null","","","noS.png","","",""
"image-slider-2AFC","186","673072","0.0-41.6-1.6","3333","","","","-78","","","","","","","","sizeS.png","1222,2434","-59,-78",""
"html-keyboard-response","187","673875","0.0-41.6-2.6","null","","","","","","","null","","","","","","","",""
"image-selector-fb","188","676832","0.0-41.7-0.7","2449","pics2/FR2.jpg,pics2/SW5.jpg","","","","","","","true","1","","","sizeS.png","","",""
"image-slider-2AFC","189","679030","0.0-41.7-1.7","2192","","","","70","","","","","","","","heartS.png","858","70",""
"html-keyboard-response","190","679834","0.0-41.7-2.7","null","","","","","","","null","","","","","","","",""
"image-selector-fb","191","681742","0.0-41.8-0.8","1399","pics2/SW2.jpg,pics2/FR1.jpg","","","","","","","false","0","","","sizeS.png","","",""
"image-slider-2AFC","192","683664","0.0-41.8-1.8","1917","","","","-77","","","","","","","","heartS.png","780","-77",""
"html-keyboard-response","193","684517","0.0-41.8-2.8","null","","","","","","","null","","","","","","","",""
"image-selector-fb","194","688058","0.0-41.9-0.9","3032","pics2/FR5.jpg,pics2/VE3.jpg","","","","","","","false","0","","","sizeS.png","","",""
"image-slider-2AFC","195","690537","0.0-41.9-1.9","2474","","","","-44","","","","","","","","sizeS.png","1521","-44",""
"html-keyboard-response","196","691290","0.0-41.9-2.9","null","","","","","","","null","","","","","","","",""
"image-selector-fb","197","694365","0.0-41.10-0.10","2565","pics2/SA4.jpg,pics2/FR3.jpg","","","","","","","true","1","","","sizeS.png","","",""
"image-slider-2AFC","198","696129","0.0-41.10-1.10","1758","","","","49","","","","","","","","sizeS.png","698","49",""
"html-keyboard-response","199","696932","0.0-41.10-2.10","null","","","","","","","null","","","","","","","",""
"image-selector-fb","200","699398","0.0-41.11-0.11","1958","pics2/SW2.jpg,pics2/FR2.jpg","","","","","","","false","0","","","heartS.png","","",""
"image-slider-2AFC","201","701797","0.0-41.11-1.11","2394","","","","-48","","","","","","","","heartS.png","1439","-48",""
"html-keyboard-response","202","702600","0.0-41.11-2.11","null","","","","","","","null","","","","","","","",""
"image-selector-fb","203","705349","0.0-41.12-0.12","2240","pics2/FR4.jpg,pics2/FR1.jpg","","","","","","","true","1","","","sizeS.png","","",""
"image-slider-2AFC","204","707379","0.0-41.12-1.12","2025","","","","40","","","","","","","","sizeS.png","947","40",""
"html-keyboard-response","205","708083","0.0-41.12-2.12","null","","","","","","","null","","","","","","","",""
"image-selector-fb","206","710307","0.0-41.13-0.13","1716","pics2/SW5.jpg,pics2/FR1.jpg","","","","","","","false","0","","","heartS.png","","",""
"image-slider-2AFC","207","712778","0.0-41.13-1.13","2466","","","","-65","","","","","","","","heartS.png","1060","-65",""
"html-keyboard-response","208","713481","0.0-41.13-2.13","null","","","","","","","null","","","","","","","",""
"image-selector-fb","209","716491","0.0-41.14-0.14","null","pics2/FR2.jpg,pics2/FR5.jpg","","","","","","","false","null","","","noS.png","","",""
"image-slider-2AFC","210","719995","0.0-41.14-1.14","3499","","","","58","","","","","","","","sizeS.png","1220","58",""
"html-keyboard-response","211","720849","0.0-41.14-2.14","null","","","","","","","null","","","","","","","",""
"image-selector-fb","212","722821","0.0-41.15-0.15","1463","pics2/SW2.jpg,pics2/SW5.jpg","","","","","","","false","0","","","sizeS.png","","",""
"image-slider-2AFC","213","725311","0.0-41.15-1.15","2485","","","","-62","","","","","","","","heartS.png","1465","-62",""
"html-keyboard-response","214","726115","0.0-41.15-2.15","null","","","","","","","null","","","","","","","",""
"image-selector-fb","215","728780","0.0-41.16-0.16","2156","pics2/SW3.jpg,pics2/SW5.jpg","","","","","","","true","1","","","sizeS.png","","",""
"image-slider-2AFC","216","731310","0.0-41.16-1.16","2525","","","","59","","","","","","","","sizeS.png","673","59",""
"html-keyboard-response","217","732113","0.0-41.16-2.16","null","","","","","","","null","","","","","","","",""
"image-selector-fb","218","735122","0.0-41.17-0.17","null","pics2/SW2.jpg,pics2/SW6.jpg","","","","","","","false","null","","","noS.png","","",""
"image-slider-2AFC","219","737480","0.0-41.17-1.17","2353","","","","-74","","","","","","","","sizeS.png","1351","-74",""
"html-keyboard-response","220","738234","0.0-41.17-2.17","null","","","","","","","null","","","","","","","",""
"image-selector-fb","221","741244","0.0-41.18-0.18","null","pics2/SW5.jpg,pics2/FR3.jpg","","","","","","","false","null","","","noS.png","","",""
"image-slider-2AFC","222","743459","0.0-41.18-1.18","2211","","","","-57","","","","","","","","sizeS.png","1194","-57",""
"html-keyboard-response","223","744313","0.0-41.18-2.18","null","","","","","","","null","","","","","","","",""
"image-selector-fb","224","747323","0.0-41.19-0.19","null","pics2/SW3.jpg,pics2/VE3.jpg","","","","","","","false","null","","","noS.png","","",""
"image-slider-2AFC","225","748977","0.0-41.19-1.19","1649","","","","25","","","","","","","","sizeS.png","644","25",""
"html-keyboard-response","226","749781","0.0-41.19-2.19","null","","","","","","","null","","","","","","","",""
"image-selector-fb","227","752495","0.0-41.20-0.20","2196","pics2/SW2.jpg,pics2/SW6.jpg","","","","","","","false","0","","","heartS.png","","",""
"image-slider-2AFC","228","754467","0.0-41.20-1.20","1966","","","","-73","","","","","","","","sizeS.png","922","-73",""
"html-keyboard-response","229","755172","0.0-41.20-2.20","null","","","","","","","null","","","","","","","",""
"image-selector-fb","230","757338","0.0-41.21-0.21","1655","pics2/SW6.jpg,pics2/SW2.jpg","","","","","","","true","1","","","sizeS.png","","",""
"image-slider-2AFC","231","759502","0.0-41.21-1.21","2159","","","","95","","","","","","","","heartS.png","814,1095","82,95",""
"html-keyboard-response","232","760357","0.0-41.21-2.21","null","","","","","","","null","","","","","","","",""
"image-selector-fb","233","762662","0.0-41.22-0.22","1795","pics2/FR1.jpg,pics2/FR4.jpg","","","","","","","false","0","","","heartS.png","","",""
"image-slider-2AFC","234","765109","0.0-41.22-1.22","2442","","","","-38","","","","","","","","sizeS.png","1177","-38",""
"html-keyboard-response","235","765813","0.0-41.22-2.22","null","","","","","","","null","","","","","","","",""
"image-selector-fb","236","768825","0.0-41.23-0.23","null","pics2/FR2.jpg,pics2/FR4.jpg","","","","","","","false","null","","","noS.png","","",""
"image-slider-2AFC","237","770717","0.0-41.23-1.23","1887","","","","-55","","","","","","","","heartS.png","1026","-55",""
"html-keyboard-response","238","771472","0.0-41.23-2.23","null","","","","","","","null","","","","","","","",""
"image-selector-fb","239","774483","0.0-41.24-0.24","null","pics2/SW3.jpg,pics2/FR1.jpg","","","","","","","false","null","","","noS.png","","",""
"image-slider-2AFC","240","777358","0.0-41.24-1.24","2871","","","","46","","","","","","","","heartS.png","918","46",""
"html-keyboard-response","241","778062","0.0-41.24-2.24","null","","","","","","","null","","","","","","","",""
"image-selector-fb","242","780453","0.0-41.25-0.25","1882","pics2/FR5.jpg,pics2/SA4.jpg","","","","","","","false","0","","","heartS.png","","",""
"image-slider-2AFC","243","782661","0.0-41.25-1.25","2195","","","","-63","","","","","","","","heartS.png","1161","-63",""
"html-keyboard-response","244","783466","0.0-41.25-2.25","null","","","","","","","null","","","","","","","",""
"image-selector-fb","245","785346","0.0-41.26-0.26","1368","pics2/VE3.jpg,pics2/FR4.jpg","","","","","","","false","0","","","heartS.png","","",""
"image-slider-2AFC","246","787409","0.0-41.26-1.26","2059","","","","-85","","","","","","","","sizeS.png","752","-85",""
"html-keyboard-response","247","788164","0.0-41.26-2.26","null","","","","","","","null","","","","","","","",""
"image-selector-fb","248","790660","0.0-41.27-0.27","1988","pics2/FR6.jpg,pics2/FR5.jpg","","","","","","","true","1","","","heartS.png","","",""
"image-slider-2AFC","249","792509","0.0-41.27-1.27","1840","","","","54","","","","","","","","heartS.png","839","54",""
"html-keyboard-response","250","793364","0.0-41.27-2.27","null","","","","","","","null","","","","","","","",""
"image-selector-fb","251","796375","0.0-41.28-0.28","null","pics2/SW5.jpg,pics2/SW6.jpg","","","","","","","false","null","","","noS.png","","",""
"image-slider-2AFC","252","798165","0.0-41.28-1.28","1785","","","","-61","","","","","","","","sizeS.png","709","-61",""
"html-keyboard-response","253","798920","0.0-41.28-2.28","null","","","","","","","null","","","","","","","",""
"image-selector-fb","254","801931","0.0-41.29-0.29","null","pics2/VE3.jpg,pics2/FR4.jpg","","","","","","","false","null","","","noS.png","","",""
"image-slider-2AFC","255","804516","0.0-41.29-1.29","2582","","","","-39","","","","","","","","heartS.png","1635","-39",""
"html-keyboard-response","256","805370","0.0-41.29-2.29","null","","","","","","","null","","","","","","","",""
"image-selector-fb","257","808379","0.0-41.30-0.30","null","pics2/FR1.jpg,pics2/FR5.jpg","","","","","","","false","null","","","noS.png","","",""
"image-slider-2AFC","258","810179","0.0-41.30-1.30","1791","","","","22","","","","","","","","sizeS.png","874","22",""
"html-keyboard-response","259","810985","0.0-41.30-2.30","null","","","","","","","null","","","","","","","",""
"image-selector-fb","260","812902","0.0-41.31-0.31","1407","pics2/SW3.jpg,pics2/SA4.jpg","","","","","","","true","1","","","heartS.png","","",""
"image-slider-2AFC","261","814819","0.0-41.31-1.31","1911","","","","41","","","","","","","","sizeS.png","1047","41",""
"html-keyboard-response","262","815523","0.0-41.31-2.31","null","","","","","","","null","","","","","","","",""
"image-selector-fb","263","818188","0.0-41.32-0.32","2155","pics2/FR1.jpg,pics2/FR2.jpg","","","","","","","true","1","","","heartS.png","","",""
"image-slider-2AFC","264","820431","0.0-41.32-1.32","2238","","","","67","","","","","","","","heartS.png","753","67",""
"html-keyboard-response","265","821236","0.0-41.32-2.32","null","","","","","","","null","","","","","","","",""
"image-selector-fb","266","823418","0.0-41.33-0.33","1674","pics2/SW2.jpg,pics2/FR4.jpg","","","","","","","false","0","","","heartS.png","","",""
"image-slider-2AFC","267","825474","0.0-41.33-1.33","2050","","","","-64","","","","","","","","sizeS.png","1104","-64",""
"html-keyboard-response","268","826177","0.0-41.33-2.33","null","","","","","","","null","","","","","","","",""
"image-selector-fb","269","828562","0.0-41.34-0.34","1872","pics2/FR4.jpg,pics2/VE3.jpg","","","","","","","true","1","","","sizeS.png","","",""
"image-slider-2AFC","270","830462","0.0-41.34-1.34","1894","","","","52","","","","","","","","heartS.png","890","52",""
"html-keyboard-response","271","831316","0.0-41.34-2.34","null","","","","","","","null","","","","","","","",""
"image-selector-fb","272","833270","0.0-41.35-0.35","1443","pics2/SW6.jpg,pics2/FR2.jpg","","","","","","","true","1","","","sizeS.png","","",""
"image-slider-2AFC","273","835557","0.0-41.35-1.35","2282","","","","79","","","","","","","","sizeS.png","1246","79",""
"html-keyboard-response","274","836260","0.0-41.35-2.35","null","","","","","","","null","","","","","","","",""
"image-selector-fb","275","838147","0.0-41.36-0.36","1363","pics2/FR4.jpg,pics2/SW5.jpg","","","","","","","true","1","","","sizeS.png","","",""
"image-slider-2AFC","276","839990","0.0-41.36-1.36","1837","","","","99","","","","","","","","sizeS.png","665","99",""
"html-keyboard-response","277","840794","0.0-41.36-2.36","null","","","","","","","null","","","","","","","",""
"image-selector-fb","278","842566","0.0-41.37-0.37","1261","pics2/SA4.jpg,pics2/FR4.jpg","","","","","","","true","1","","","sizeS.png","","",""
"image-slider-2AFC","279","844813","0.0-41.37-1.37","2242","","","","56","","","","","","","","heartS.png","746,1372","35,56",""
"html-keyboard-response","280","845567","0.0-41.37-2.37","null","","","","","","","null","","","","","","","",""
"image-selector-fb","281","848577","0.0-41.38-0.38","null","pics2/SA4.jpg,pics2/SW6.jpg","","","","","","","false","null","","","noS.png","","",""
"image-slider-2AFC","282","852844","0.0-41.38-1.38","4263","","","","43","","","","","","","","heartS.png","3259","43",""
"html-keyboard-response","283","853697","0.0-41.38-2.38","null","","","","","","","null","","","","","","","",""
"image-selector-fb","284","856160","0.0-41.39-0.39","1953","pics2/SW3.jpg,pics2/FR3.jpg","","","","","","","true","1","","","heartS.png","","",""
"image-slider-2AFC","285","858534","0.0-41.39-1.39","2362","","","","59","","","","","","","","sizeS.png","1246","59",""
"html-keyboard-response","286","859288","0.0-41.39-2.39","null","","","","","","","null","","","","","","","",""
"image-selector-fb","287","862300","0.0-41.40-0.40","null","pics2/SW2.jpg,pics2/FR5.jpg","","","","","","","false","null","","","noS.png","","",""
"image-slider-2AFC","288","864342","0.0-41.40-1.40","2037","","","","-72","","","","","","","","heartS.png","1050","-72",""
"html-keyboard-response","289","865096","0.0-41.40-2.40","null","","","","","","","null","","","","","","","",""
"image-selector-fb","290","866943","0.0-41.41-0.41","1338","pics2/FR1.jpg,pics2/FR5.jpg","","","","","","","false","0","","","heartS.png","","",""
"image-slider-2AFC","291","868674","0.0-41.41-1.41","1725","","","","-55","","","","","","","","sizeS.png","746","-55",""
"html-keyboard-response","292","869528","0.0-41.41-2.41","null","","","","","","","null","","","","","","","",""
"image-selector-fb","293","872538","0.0-41.42-0.42","null","pics2/SW3.jpg,pics2/SA4.jpg","","","","","","","false","null","","","noS.png","","",""
"image-slider-2AFC","294","876282","0.0-41.42-1.42","3739","","","","-46","","","","","","","","heartS.png","2629","-46",""
"html-keyboard-response","295","877137","0.0-41.42-2.42","null","","","","","","","null","","","","","","","",""
"image-selector-fb","296","878910","0.0-41.43-0.43","1262","pics2/FR3.jpg,pics2/SW5.jpg","","","","","","","true","1","","","sizeS.png","","",""
"image-slider-2AFC","297","881473","0.0-41.43-1.43","2558","","","","99","","","","","","","","sizeS.png","1359","99",""
"html-keyboard-response","298","882328","0.0-41.43-2.43","null","","","","","","","null","","","","","","","",""
"image-selector-fb","299","885338","0.0-41.44-0.44","null","pics2/FR6.jpg,pics2/SW6.jpg","","","","","","","false","null","","","noS.png","","",""
"image-slider-2AFC","300","887989","0.0-41.44-1.44","2645","","","","50","","","","","","","","sizeS.png","1524","50",""
"html-keyboard-response","301","888793","0.0-41.44-2.44","null","","","","","","","null","","","","","","","",""
"image-selector-fb","302","891534","0.0-41.45-0.45","2231","pics2/SW6.jpg,pics2/FR6.jpg","","","","","","","true","1","","","sizeS.png","","",""
"image-slider-2AFC","303","893288","0.0-41.45-1.45","1749","","","","49","","","","","","","","heartS.png","733","49",""
"html-keyboard-response","304","894142","0.0-41.45-2.45","null","","","","","","","null","","","","","","","",""
"image-selector-fb","305","895941","0.0-41.46-0.46","1291","pics2/FR5.jpg,pics2/SW3.jpg","","","","","","","true","1","","","sizeS.png","","",""
"image-slider-2AFC","306","897839","0.0-41.46-1.46","1893","","","","81","","","","","","","","heartS.png","888","81",""
"html-keyboard-response","307","898693","0.0-41.46-2.46","null","","","","","","","null","","","","","","","",""
"image-selector-fb","308","900463","0.0-41.47-0.47","1255","pics2/VE3.jpg,pics2/SW3.jpg","","","","","","","false","0","","","heartS.png","","",""
"image-slider-2AFC","309","902063","0.0-41.47-1.47","1594","","","","-68","","","","","","","","heartS.png","707","-68",""
"html-keyboard-response","310","902917","0.0-41.47-2.47","null","","","","","","","null","","","","","","","",""
"image-selector-fb","311","905928","0.0-41.48-0.48","null","pics2/SA4.jpg,pics2/FR5.jpg","","","","","","","false","null","","","noS.png","","",""
"image-slider-2AFC","312","908596","0.0-41.48-1.48","2663","","","","86","","","","","","","","sizeS.png","1139","86",""
"html-keyboard-response","313","909399","0.0-41.48-2.48","null","","","","","","","null","","","","","","","",""
"image-selector-fb","314","911127","0.0-41.49-0.49","1210","pics2/FR2.jpg,pics2/FR5.jpg","","","","","","","false","0","","","heartS.png","","",""
"image-slider-2AFC","315","912971","0.0-41.49-1.49","1838","","","","-77","","","","","","","","sizeS.png","858","-77",""
"html-keyboard-response","316","913676","0.0-41.49-2.49","null","","","","","","","null","","","","","","","",""
"image-selector-fb","317","916688","0.0-41.50-0.50","null","pics2/FR6.jpg,pics2/FR2.jpg","","","","","","","false","null","","","noS.png","","",""
"image-slider-2AFC","318","919262","0.0-41.50-1.50","2568","","","","75","","","","","","","","sizeS.png","1148","75",""
"html-keyboard-response","319","919966","0.0-41.50-2.50","null","","","","","","","null","","","","","","","",""
"image-selector-fb","320","922977","0.0-41.51-0.51","null","pics2/SW3.jpg,pics2/FR3.jpg","","","","","","","false","null","","","noS.png","","",""
"image-slider-2AFC","321","925019","0.0-41.51-1.51","2037","","","","71","","","","","","","","sizeS.png","908","71",""
"html-keyboard-response","322","925723","0.0-41.51-2.51","null","","","","","","","null","","","","","","","",""
"image-selector-fb","323","928734","0.0-41.52-0.52","null","pics2/FR2.jpg,pics2/SW2.jpg","","","","","","","false","null","","","noS.png","","",""
"image-slider-2AFC","324","931227","0.0-41.52-1.52","2488","","","","33","","","","","","","","sizeS.png","1443","33",""
"html-keyboard-response","325","932081","0.0-41.52-2.52","null","","","","","","","null","","","","","","","",""
"image-selector-fb","326","935092","0.0-41.53-0.53","null","pics2/FR2.jpg,pics2/SW6.jpg","","","","","","","false","null","","","noS.png","","",""
"image-slider-2AFC","327","937510","0.0-41.53-1.53","2409","","","","-47","","","","","","","","heartS.png","863,1530","42,-47",""
"html-keyboard-response","328","938266","0.0-41.53-2.53","null","","","","","","","null","","","","","","","",""
"image-selector-fb","329","941279","0.0-41.54-0.54","null","pics2/FR1.jpg,pics2/SW6.jpg","","","","","","","false","null","","","noS.png","","",""
"image-slider-2AFC","330","943585","0.0-41.54-1.54","2302","","","","-32","","","","","","","","heartS.png","881,1493","42,-32",""
"html-keyboard-response","331","944440","0.0-41.54-2.54","null","","","","","","","null","","","","","","","",""
"image-selector-fb","332","946788","0.0-41.55-0.55","1835","pics2/VE3.jpg,pics2/SA4.jpg","","","","","","","false","0","","","heartS.png","","",""
"image-slider-2AFC","333","948710","0.0-41.55-1.55","1915","","","","41","","","","","","","","heartS.png","920","41",""
"html-keyboard-response","334","949415","0.0-41.55-2.55","null","","","","","","","null","","","","","","","",""
"image-selector-fb","335","952426","0.0-41.56-0.56","null","pics2/FR6.jpg,pics2/FR1.jpg","","","","","","","false","null","","","noS.png","","",""
"image-slider-2AFC","336","954318","0.0-41.56-1.56","1886","","","","49","","","","","","","","heartS.png","765","49",""
"html-keyboard-response","337","955172","0.0-41.56-2.56","null","","","","","","","null","","","","","","","",""
"image-selector-fb","338","957411","0.0-41.57-0.57","1730","pics2/VE3.jpg,pics2/FR6.jpg","","","","","","","false","0","","","heartS.png","","",""
"image-slider-2AFC","339","959610","0.0-41.57-1.57","2194","","","","-40","","","","","","","","sizeS.png","823,1382","47,-40",""
"html-keyboard-response","340","960414","0.0-41.57-2.57","null","","","","","","","null","","","","","","","",""
"image-selector-fb","341","963425","0.0-41.58-0.58","null","pics2/VE3.jpg,pics2/SW6.jpg","","","","","","","false","null","","","noS.png","","",""
"image-slider-2AFC","342","965885","0.0-41.58-1.58","2455","","","","89","","","","","","","","heartS.png","1470","89",""
"html-keyboard-response","343","966739","0.0-41.58-2.58","null","","","","","","","null","","","","","","","",""
"image-selector-fb","344","968913","0.0-41.59-0.59","1664","pics2/FR3.jpg,pics2/FR4.jpg","","","","","","","false","0","","","heartS.png","","",""
"image-slider-2AFC","345","970610","0.0-41.59-1.59","1692","","","","91","","","","","","","","heartS.png","704","91",""
"html-keyboard-response","346","971314","0.0-41.59-2.59","null","","","","","","","null","","","","","","","",""
"image-selector-fb","347","974325","0.0-41.60-0.60","null","pics2/SW2.jpg,pics2/FR4.jpg","","","","","","","false","null","","","noS.png","","",""
"image-slider-2AFC","348","976126","0.0-41.60-1.60","1795","","","","-46","","","","","","","","sizeS.png","852","-46",""
"html-keyboard-response","349","976831","0.0-41.60-2.60","null","","","","","","","null","","","","","","","",""
"image-selector-fb","350","978679","0.0-41.61-0.61","1337","pics2/FR5.jpg,pics2/SW2.jpg","","","","","","","true","1","","","sizeS.png","","",""
"image-slider-2AFC","351","980776","0.0-41.61-1.61","2085","","","","76","","","","","","","","sizeS.png","1094","76",""
"html-keyboard-response","352","981479","0.0-41.61-2.61","null","","","","","","","null","","","","","","","",""
"image-selector-fb","353","983285","0.0-41.62-0.62","1297","pics2/SW2.jpg,pics2/FR3.jpg","","","","","","","false","0","","","heartS.png","","",""
"image-slider-2AFC","354","985800","0.0-41.62-1.62","2509","","","","-74","","","","","","","","heartS.png","621","-74",""
"html-keyboard-response","355","986603","0.0-41.62-2.62","null","","","","","","","null","","","","","","","",""
"image-selector-fb","356","988620","0.0-41.63-0.63","1507","pics2/FR3.jpg,pics2/SW2.jpg","","","","","","","true","1","","","sizeS.png","","",""
"image-slider-2AFC","357","990359","0.0-41.63-1.63","1734","","","","74","","","","","","","","heartS.png","721","74",""
"html-keyboard-response","358","991163","0.0-41.63-2.63","null","","","","","","","null","","","","","","","",""
"image-selector-fb","359","993511","0.0-41.64-0.64","1838","pics2/SW6.jpg,pics2/FR1.jpg","","","","","","","true","1","","","sizeS.png","","",""
"image-slider-2AFC","360","996482","0.0-41.64-1.64","2965","","","","56","","","","","","","","sizeS.png","864","56",""
"html-keyboard-response","361","997286","0.0-41.64-2.64","null","","","","","","","null","","","","","","","",""
"image-selector-fb","362","1000252","0.0-41.65-0.65","2456","pics2/FR3.jpg,pics2/SW6.jpg","","","","","","","false","0","","","heartS.png","","",""
"image-slider-2AFC","363","1003908","0.0-41.65-1.65","3651","","","","82","","","","","","","","heartS.png","2625","82",""
"html-keyboard-response","364","1004713","0.0-41.65-2.65","null","","","","","","","null","","","","","","","",""
"pavlovia","365","1004748","0.0-42.0","","","","","","","","","","","","","","","",""
"html-keyboard-response","366","1009750","0.0-43.0","null","<div style='width: 700px;'> <font size=6><b>SHORT BREAK</font></b><br><br><i> Please wait 5 seconds to continue</i></div> ","","","","","","null","","","","","","","",""
"pavlovia","367","1009755","0.0-44.0","","","","","","","","","","","","","","","",""
"html-button-response","368","1014345","0.0-45.0","4588","<div style='width: 700px;'> <font size=6><b>BLOCK 2</font></b><br><br>Press the button whenever you feel ready to start the second block (there are 3 in total)</div>","0","","","","","","","","","","","","",""
"image-selector-fb","369","1017366","0.0-46.0-0.0","null","pics2/SW5.jpg,pics2/VE3.jpg","","","","","","","false","null","","","noS.png","","",""
"image-slider-2AFC","370","1019591","0.0-46.0-1.0","2220","","","","68","","","","","","","","sizeS.png","898","68",""
"html-keyboard-response","371","1020346","0.0-46.0-2.0","null","","","","","","","null","","","","","","","",""
"image-selector-fb","372","1023393","0.0-46.1-0.1","2536","pics2/FR1.jpg,pics2/FR6.jpg","","","","","","","false","0","","","sizeS.png","","",""
"image-slider-2AFC","373","1025140","0.0-46.1-1.1","1741","","","","-49","","","","","","","","sizeS.png","821","-49",""
"html-keyboard-response","374","1025844","0.0-46.1-2.1","null","","","","","","","null","","","","","","","",""
"image-selector-fb","375","1028200","0.0-46.2-0.2","1845","pics2/FR3.jpg,pics2/SA4.jpg","","","","","","","false","0","","","heartS.png","","",""
"image-slider-2AFC","376","1030732","0.0-46.2-1.2","2528","","","","-83","","","","","","","","sizeS.png","1592","-83",""
"html-keyboard-response","377","1031436","0.0-46.2-2.2","null","","","","","","","null","","","","","","","",""
"image-selector-fb","378","1033318","0.0-46.3-0.3","1372","pics2/VE3.jpg,pics2/SW5.jpg","","","","","","","true","1","","","sizeS.png","","",""
"image-slider-2AFC","379","1035073","0.0-46.3-1.3","1750","","","","86","","","","","","","","heartS.png","659","86",""
"html-keyboard-response","380","1035928","0.0-46.3-2.3","null","","","","","","","null","","","","","","","",""
"image-selector-fb","381","1037833","0.0-46.4-0.4","1393","pics2/FR4.jpg,pics2/FR6.jpg","","","","","","","false","0","","","sizeS.png","","",""
"image-slider-2AFC","382","1040671","0.0-46.4-1.4","2832","","","","-56","","","","","","","","heartS.png","844","-56",""
"html-keyboard-response","383","1041425","0.0-46.4-2.4","null","","","","","","","null","","","","","","","",""
"image-selector-fb","384","1043567","0.0-46.5-0.5","1632","pics2/SW6.jpg,pics2/SW5.jpg","","","","","","","true","1","","","sizeS.png","","",""
"image-slider-2AFC","385","1045805","0.0-46.5-1.5","2234","","","","92","","","","","","","","sizeS.png","1095","92",""
"html-keyboard-response","386","1046560","0.0-46.5-2.5","null","","","","","","","null","","","","","","","",""
"image-selector-fb","387","1049571","0.0-46.6-0.6","null","pics2/SW3.jpg,pics2/FR2.jpg","","","","","","","false","null","","","noS.png","","",""
"image-slider-2AFC","388","1051480","0.0-46.6-1.6","1899","","","","72","","","","","","","","sizeS.png","887","72",""
"html-keyboard-response","389","1052236","0.0-46.6-2.6","null","","","","","","","null","","","","","","","",""
"image-selector-fb","390","1054900","0.0-46.7-0.7","2152","pics2/SW3.jpg,pics2/FR5.jpg","","","","","","","true","1","","","heartS.png","","",""
"image-slider-2AFC","391","1056564","0.0-46.7-1.7","1659","","","","79","","","","","","","","heartS.png","703","79",""
"html-keyboard-response","392","1057317","0.0-46.7-2.7","null","","","","","","","null","","","","","","","",""
"image-selector-fb","393","1059065","0.0-46.8-0.8","1238","pics2/VE3.jpg,pics2/FR3.jpg","","","","","","","false","0","","","heartS.png","","",""
"image-slider-2AFC","394","1062130","0.0-46.8-1.8","3060","","","","-91","","","","","","","","heartS.png","771,1347,2257","-79,0,-91",""
"html-keyboard-response","395","1062934","0.0-46.8-2.8","null","","","","","","","null","","","","","","","",""
"image-selector-fb","396","1065265","0.0-46.9-0.9","1821","pics2/FR6.jpg,pics2/SW6.jpg","","","","","","","true","1","","","heartS.png","","",""
"image-slider-2AFC","397","1066672","0.0-46.9-1.9","1402","","","","39","","","","","","","","heartS.png","579","39",""
"html-keyboard-response","398","1067375","0.0-46.9-2.9","null","","","","","","","null","","","","","","","",""
"image-selector-fb","399","1069087","0.0-46.10-0.10","1198","pics2/SW5.jpg,pics2/FR6.jpg","","","","","","","false","0","","","heartS.png","","",""
"image-slider-2AFC","400","1070696","0.0-46.10-1.10","1604","","","","-63","","","","","","","","sizeS.png","698","-63",""
"html-keyboard-response","401","1071401","0.0-46.10-2.10","null","","","","","","","null","","","","","","","",""
"image-selector-fb","402","1074707","0.0-46.11-0.11","2794","pics2/SW3.jpg,pics2/FR1.jpg","","","","","","","true","1","","","heartS.png","","",""
"image-slider-2AFC","403","1076520","0.0-46.11-1.11","1809","","","","60","","","","","","","","sizeS.png","870","60",""
"html-keyboard-response","404","1077274","0.0-46.11-2.11","null","","","","","","","null","","","","","","","",""
"image-selector-fb","405","1081109","0.0-46.12-0.12","3327","pics2/FR6.jpg,pics2/FR1.jpg","","","","","","","true","1","","","heartS.png","","",""
"image-slider-2AFC","406","1082829","0.0-46.12-1.12","1715","","","","47","","","","","","","","sizeS.png","711","47",""
"html-keyboard-response","407","1083683","0.0-46.12-2.12","null","","","","","","","null","","","","","","","",""
"image-selector-fb","408","1086012","0.0-46.13-0.13","1814","pics2/SW3.jpg,pics2/SW2.jpg","","","","","","","true","1","","","heartS.png","","",""
"image-slider-2AFC","409","1087977","0.0-46.13-1.13","1953","","","","54","","","","","","","","heartS.png","1053","54",""
"html-keyboard-response","410","1088831","0.0-46.13-2.13","null","","","","","","","null","","","","","","","",""
"image-selector-fb","411","1091031","0.0-46.14-0.14","1688","pics2/SW5.jpg,pics2/FR4.jpg","","","","","","","false","0","","","heartS.png","","",""
"image-slider-2AFC","412","1093604","0.0-46.14-1.14","2568","","","","-38","","","","","","","","sizeS.png","1610","-38",""
"html-keyboard-response","413","1094408","0.0-46.14-2.14","null","","","","","","","null","","","","","","","",""
"image-selector-fb","414","1097420","0.0-46.15-0.15","null","pics2/SW5.jpg,pics2/SA4.jpg","","","","","","","false","null","","","noS.png","","",""
"image-slider-2AFC","415","1099769","0.0-46.15-1.15","2345","","","","-51","","","","","","","","heartS.png","1090,1581","43,-51",""
"html-keyboard-response","416","1100574","0.0-46.15-2.15","null","","","","","","","null","","","","","","","",""
"image-selector-fb","417","1102388","0.0-46.16-0.16","1304","pics2/SW3.jpg,pics2/FR2.jpg","","","","","","","true","1","","","heartS.png","","",""
"image-slider-2AFC","418","1104144","0.0-46.16-1.16","1751","","","","50","","","","","","","","sizeS.png","838","50",""
"html-keyboard-response","419","1104848","0.0-46.16-2.16","null","","","","","","","null","","","","","","","",""
"image-selector-fb","420","1106650","0.0-46.17-0.17","1292","pics2/FR4.jpg,pics2/SA4.jpg","","","","","","","true","1","","","heartS.png","","",""
"image-slider-2AFC","421","1110012","0.0-46.17-1.17","3351","","","","-26","","","","","","","","sizeS.png","1839,2620","49,-26",""
"html-keyboard-response","422","1110766","0.0-46.17-2.17","null","","","","","","","null","","","","","","","",""
"image-selector-fb","423","1113029","0.0-46.18-0.18","1754","pics2/SW3.jpg,pics2/FR6.jpg","","","","","","","false","0","","","heartS.png","","",""
"image-slider-2AFC","424","1114514","0.0-46.18-1.18","1480","","","","-35","","","","","","","","heartS.png","646","-35",""
"html-keyboard-response","425","1115318","0.0-46.18-2.18","null","","","","","","","null","","","","","","","",""
"image-selector-fb","426","1116969","0.0-46.19-0.19","1133","pics2/SA4.jpg,pics2/FR1.jpg","","","","","","","true","1","","","sizeS.png","","",""
"image-slider-2AFC","427","1118627","0.0-46.19-1.19","1651","","","","83","","","","","","","","sizeS.png","554","83",""
"html-keyboard-response","428","1119332","0.0-46.19-2.19","null","","","","","","","null","","","","","","","",""
"image-selector-fb","429","1122146","0.0-46.20-0.20","2303","pics2/FR6.jpg,pics2/FR4.jpg","","","","","","","true","1","","","heartS.png","","",""
"image-slider-2AFC","430","1123751","0.0-46.20-1.20","1600","","","","36","","","","","","","","heartS.png","729","36",""
"html-keyboard-response","431","1124555","0.0-46.20-2.20","null","","","","","","","null","","","","","","","",""
"image-selector-fb","432","1126262","0.0-46.21-0.21","1197","pics2/FR5.jpg,pics2/SW5.jpg","","","","","","","true","1","","","sizeS.png","","",""
"image-slider-2AFC","433","1128068","0.0-46.21-1.21","1801","","","","56","","","","","","","","heartS.png","714","56",""
"html-keyboard-response","434","1128772","0.0-46.21-2.21","null","","","","","","","null","","","","","","","",""
"image-selector-fb","435","1131782","0.0-46.22-0.22","null","pics2/SW3.jpg,pics2/FR4.jpg","","","","","","","false","null","","","noS.png","","",""
"image-slider-2AFC","436","1136767","0.0-46.22-1.22","4980","","","","-46","","","","","","","","sizeS.png","4087","-46",""
"html-keyboard-response","437","1137572","0.0-46.22-2.22","null","","","","","","","null","","","","","","","",""
"image-selector-fb","438","1140653","0.0-46.23-0.23","2570","pics2/SW6.jpg,pics2/FR3.jpg","","","","","","","true","1","","","sizeS.png","","",""
"image-slider-2AFC","439","1142167","0.0-46.23-1.23","1509","","","","45","","","","","","","","sizeS.png","612","45",""
"html-keyboard-response","440","1142971","0.0-46.23-2.23","null","","","","","","","null","","","","","","","",""
"image-selector-fb","441","1144777","0.0-46.24-0.24","1296","pics2/SW6.jpg,pics2/SA4.jpg","","","","","","","true","1","","","sizeS.png","","",""
"image-slider-2AFC","442","1147410","0.0-46.24-1.24","2628","","","","30","","","","","","","","sizeS.png","1693","30",""
"html-keyboard-response","443","1148266","0.0-46.24-2.24","null","","","","","","","null","","","","","","","",""
"image-selector-fb","444","1151444","0.0-46.25-0.25","2666","pics2/SW5.jpg,pics2/VE3.jpg","","","","","","","false","0","","","heartS.png","","",""
"image-slider-2AFC","445","1153200","0.0-46.25-1.25","1750","","","","-35","","","","","","","","sizeS.png","878","-35",""
"html-keyboard-response","446","1153905","0.0-46.25-2.25","null","","","","","","","null","","","","","","","",""
"image-selector-fb","447","1155969","0.0-46.26-0.26","1553","pics2/FR2.jpg,pics2/SA4.jpg","","","","","","","false","0","","","heartS.png","","",""
"image-slider-2AFC","448","1160499","0.0-46.26-1.26","4525","","","","-32","","","","","","","","heartS.png","3645","-32",""
"html-keyboard-response","449","1161204","0.0-46.26-2.26","null","","","","","","","null","","","","","","","",""
"image-selector-fb","450","1162885","0.0-46.27-0.27","1163","pics2/SA4.jpg,pics2/SW3.jpg","","","","","","","true","1","","","sizeS.png","","",""
"image-slider-2AFC","451","1167893","0.0-46.27-1.27","null","","","","null","","","","","","","","sizeS.png","637","32",""
"html-keyboard-response","452","1168648","0.0-46.27-2.27","null","","","","","","","null","","","","","","","",""
"image-selector-fb","453","1171391","0.0-46.28-0.28","2234","pics2/SW5.jpg,pics2/SW3.jpg","","","","","","","true","1","","","heartS.png","","",""
"image-slider-2AFC","454","1174749","0.0-46.28-1.28","3355","","","","56","","","","","","","","heartS.png","2344","56",""
"html-keyboard-response","455","1175503","0.0-46.28-2.28","null","","","","","","","null","","","","","","","",""
"image-selector-fb","456","1178519","0.0-46.29-0.29","null","pics2/FR1.jpg,pics2/VE3.jpg","","","","","","","false","null","","","noS.png","","",""
"image-slider-2AFC","457","1180481","0.0-46.29-1.29","1955","","","","-52","","","","","","","","heartS.png","1027","-52",""
"html-keyboard-response","458","1181336","0.0-46.29-2.29","null","","","","","","","null","","","","","","","",""
"image-selector-fb","459","1183242","0.0-46.30-0.30","1395","pics2/FR3.jpg,pics2/SW3.jpg","","","","","","","false","0","","","sizeS.png","","",""
"image-slider-2AFC","460","1185647","0.0-46.30-1.30","2399","","","","-76","","","","","","","","sizeS.png","1546","-76",""
"html-keyboard-response","461","1186501","0.0-46.30-2.30","null","","","","","","","null","","","","","","","",""
"image-selector-fb","462","1189058","0.0-46.31-0.31","2046","pics2/FR3.jpg,pics2/VE3.jpg","","","","","","","false","0","","","sizeS.png","","",""
"image-slider-2AFC","463","1190622","0.0-46.31-1.31","1559","","","","69","","","","","","","","heartS.png","572","69",""
"html-keyboard-response","464","1191476","0.0-46.31-2.31","null","","","","","","","null","","","","","","","",""
"image-selector-fb","465","1194026","0.0-46.32-0.32","2040","pics2/SW5.jpg,pics2/FR2.jpg","","","","","","","false","0","","","heartS.png","","",""
"image-slider-2AFC","466","1196164","0.0-46.32-1.32","2133","","","","77","","","","","","","","heartS.png","890","77",""
"html-keyboard-response","467","1196969","0.0-46.32-2.32","null","","","","","","","null","","","","","","","",""
"image-selector-fb","468","1199980","0.0-46.33-0.33","null","pics2/FR1.jpg,pics2/SA4.jpg","","","","","","","false","null","","","noS.png","","",""
"image-slider-2AFC","469","1203231","0.0-46.33-1.33","3244","","","","-62","","","","","","","","sizeS.png","2206","-62",""
"html-keyboard-response","470","1204036","0.0-46.33-2.33","null","","","","","","","null","","","","","","","",""
"image-selector-fb","471","1207049","0.0-46.34-0.34","null","pics2/SA4.jpg,pics2/VE3.jpg","","","","","","","false","null","","","noS.png","","",""
"image-slider-2AFC","472","1209056","0.0-46.34-1.34","2000","","","","82","","","","","","","","heartS.png","892","82",""
"html-keyboard-response","473","1209860","0.0-46.34-2.34","null","","","","","","","null","","","","","","","",""
"image-selector-fb","474","1212872","0.0-46.35-0.35","null","pics2/FR6.jpg,pics2/FR5.jpg","","","","","","","false","null","","","noS.png","","",""
"image-slider-2AFC","475","1217164","0.0-46.35-1.35","4288","","","","65","","","","","","","","heartS.png","3284","65",""
"html-keyboard-response","476","1217918","0.0-46.35-2.35","null","","","","","","","null","","","","","","","",""
"image-selector-fb","477","1220928","0.0-46.36-0.36","null","pics2/FR6.jpg,pics2/VE3.jpg","","","","","","","false","null","","","noS.png","","",""
"image-slider-2AFC","478","1223029","0.0-46.36-1.36","2095","","","","-68","","","","","","","","sizeS.png","1152","-68",""
"html-keyboard-response","479","1223835","0.0-46.36-2.36","null","","","","","","","null","","","","","","","",""
"image-selector-fb","480","1226847","0.0-46.37-0.37","null","pics2/FR2.jpg,pics2/FR3.jpg","","","","","","","false","null","","","noS.png","","",""
"image-slider-2AFC","481","1229471","0.0-46.37-1.37","2618","","","","68","","","","","","","","heartS.png","1447","68",""
"html-keyboard-response","482","1230176","0.0-46.37-2.37","null","","","","","","","null","","","","","","","",""
"image-selector-fb","483","1232389","0.0-46.38-0.38","1698","pics2/FR1.jpg,pics2/FR3.jpg","","","","","","","true","1","","","heartS.png","","",""
"image-slider-2AFC","484","1234862","0.0-46.38-1.38","2467","","","","73","","","","","","","","heartS.png","1200","73",""
"html-keyboard-response","485","1235716","0.0-46.38-2.38","null","","","","","","","null","","","","","","","",""
"image-selector-fb","486","1238015","0.0-46.39-0.39","1787","pics2/SW2.jpg,pics2/FR6.jpg","","","","","","","false","0","","","sizeS.png","","",""
"image-slider-2AFC","487","1239769","0.0-46.39-1.39","1749","","","","65","","","","","","","","sizeS.png","837","65",""
"html-keyboard-response","488","1240574","0.0-46.39-2.39","null","","","","","","","null","","","","","","","",""
"image-selector-fb","489","1243586","0.0-46.40-0.40","null","pics2/FR5.jpg,pics2/FR4.jpg","","","","","","","false","null","","","noS.png","","",""
"image-slider-2AFC","490","1245686","0.0-46.40-1.40","2095","","","","-50","","","","","","","","heartS.png","1235","-50",""
"html-keyboard-response","491","1246542","0.0-46.40-2.40","null","","","","","","","null","","","","","","","",""
"image-selector-fb","492","1248722","0.0-46.41-0.41","1669","pics2/FR3.jpg,pics2/FR5.jpg","","","","","","","false","0","","","heartS.png","","",""
"image-slider-2AFC","493","1250143","0.0-46.41-1.41","1416","","","","74","","","","","","","","heartS.png","518","74",""
"html-keyboard-response","494","1250997","0.0-46.41-2.41","null","","","","","","","null","","","","","","","",""
"image-selector-fb","495","1252704","0.0-46.42-0.42","1197","pics2/FR1.jpg,pics2/SW5.jpg","","","","","","","true","1","","","sizeS.png","","",""
"image-slider-2AFC","496","1254959","0.0-46.42-1.42","2250","","","","91","","","","","","","","heartS.png","547,1198","73,91",""
"html-keyboard-response","497","1255763","0.0-46.42-2.42","null","","","","","","","null","","","","","","","",""
"image-selector-fb","498","1257521","0.0-46.43-0.43","1248","pics2/FR6.jpg,pics2/SW2.jpg","","","","","","","true","1","","","heartS.png","","",""
"image-slider-2AFC","499","1259277","0.0-46.43-1.43","1751","","","","75","","","","","","","","heartS.png","659","75",""
"html-keyboard-response","500","1260083","0.0-46.43-2.43","null","","","","","","","null","","","","","","","",""
"image-selector-fb","501","1262447","0.0-46.44-0.44","1853","pics2/SW3.jpg,pics2/SW6.jpg","","","","","","","false","0","","","heartS.png","","",""
"image-slider-2AFC","502","1264035","0.0-46.44-1.44","1582","","","","-73","","","","","","","","heartS.png","619","-73",""
"html-keyboard-response","503","1264889","0.0-46.44-2.44","null","","","","","","","null","","","","","","","",""
"image-selector-fb","504","1267905","0.0-46.45-0.45","null","pics2/FR1.jpg,pics2/FR2.jpg","","","","","","","false","null","","","noS.png","","",""
"image-slider-2AFC","505","1270935","0.0-46.45-1.45","3024","","","","68","","","","","","","","heartS.png","2004","68",""
"html-keyboard-response","506","1271689","0.0-46.45-2.45","null","","","","","","","null","","","","","","","",""
"image-selector-fb","507","1274604","0.0-46.46-0.46","2404","pics2/VE3.jpg,pics2/FR1.jpg","","","","","","","true","1","","","heartS.png","","",""
"image-slider-2AFC","508","1276135","0.0-46.46-1.46","1527","","","","65","","","","","","","","heartS.png","612","65",""
"html-keyboard-response","509","1276890","0.0-46.46-2.46","null","","","","","","","null","","","","","","","",""
"image-selector-fb","510","1278608","0.0-46.47-0.47","1209","pics2/FR5.jpg,pics2/FR1.jpg","","","","","","","true","1","","","sizeS.png","","",""
"image-slider-2AFC","511","1282627","0.0-46.47-1.47","4014","","","","-63","","","","","","","","heartS.png","2492,3232","60,-63",""
"html-keyboard-response","512","1283331","0.0-46.47-2.47","null","","","","","","","null","","","","","","","",""
"image-selector-fb","513","1285483","0.0-46.48-0.48","1637","pics2/VE3.jpg,pics2/SW2.jpg","","","","","","","true","1","","","heartS.png","","",""
"image-slider-2AFC","514","1287100","0.0-46.48-1.48","1611","","","","65","","","","","","","","sizeS.png","615","65",""
"html-keyboard-response","515","1287955","0.0-46.48-2.48","null","","","","","","","null","","","","","","","",""
"image-selector-fb","516","1290966","0.0-46.49-0.49","null","pics2/FR1.jpg,pics2/SW2.jpg","","","","","","","false","null","","","noS.png","","",""
"image-slider-2AFC","517","1293324","0.0-46.49-1.49","2354","","","","-37","","","","","","","","sizeS.png","1356","-37",""
"html-keyboard-response","518","1294078","0.0-46.49-2.49","null","","","","","","","null","","","","","","","",""
"image-selector-fb","519","1298119","0.0-46.50-0.50","3523","pics2/SA4.jpg,pics2/FR6.jpg","","","","","","","true","1","","","sizeS.png","","",""
"image-slider-2AFC","520","1299774","0.0-46.50-1.50","1648","","","","82","","","","","","","","heartS.png","711","82",""
"html-keyboard-response","521","1300478","0.0-46.50-2.50","null","","","","","","","null","","","","","","","",""
"image-selector-fb","522","1302951","0.0-46.51-0.51","1962","pics2/SA4.jpg,pics2/SW6.jpg","","","","","","","true","1","","","heartS.png","","",""
"image-slider-2AFC","523","1304400","0.0-46.51-1.51","1444","","","","59","","","","","","","","heartS.png","614","59",""
"html-keyboard-response","524","1305254","0.0-46.51-2.51","null","","","","","","","null","","","","","","","",""
"image-selector-fb","525","1308264","0.0-46.52-0.52","null","pics2/VE3.jpg,pics2/FR5.jpg","","","","","","","false","null","","","noS.png","","",""
"image-slider-2AFC","526","1312782","0.0-46.52-1.52","4513","","","","44","","","","","","","","sizeS.png","3435","44",""
"html-keyboard-response","527","1313536","0.0-46.52-2.52","null","","","","","","","null","","","","","","","",""
"image-selector-fb","528","1316502","0.0-46.53-0.53","2449","pics2/FR3.jpg,pics2/FR2.jpg","","","","","","","false","0","","","heartS.png","","",""
"image-slider-2AFC","529","1318223","0.0-46.53-1.53","1716","","","","87","","","","","","","","sizeS.png","656","87",""
"html-keyboard-response","530","1319078","0.0-46.53-2.53","null","","","","","","","null","","","","","","","",""
"image-selector-fb","531","1320835","0.0-46.54-0.54","1248","pics2/SW2.jpg,pics2/SW3.jpg","","","","","","","false","0","","","sizeS.png","","",""
"image-slider-2AFC","532","1322448","0.0-46.54-1.54","1608","","","","45","","","","","","","","heartS.png","713","45",""
"html-keyboard-response","533","1323302","0.0-46.54-2.54","null","","","","","","","null","","","","","","","",""
"image-selector-fb","534","1325023","0.0-46.55-0.55","1206","pics2/FR3.jpg,pics2/FR1.jpg","","","","","","","false","0","","","sizeS.png","","",""
"image-slider-2AFC","535","1326665","0.0-46.55-1.55","1635","","","","70","","","","","","","","sizeS.png","622","70",""
"html-keyboard-response","536","1327518","0.0-46.55-2.55","null","","","","","","","null","","","","","","","",""
"image-selector-fb","537","1329393","0.0-46.56-0.56","1363","pics2/FR2.jpg,pics2/VE3.jpg","","","","","","","false","0","","","sizeS.png","","",""
"image-slider-2AFC","538","1331272","0.0-46.56-1.56","1874","","","","-35","","","","","","","","sizeS.png","1047","-35",""
"html-keyboard-response","539","1332076","0.0-46.56-2.56","null","","","","","","","null","","","","","","","",""
"image-selector-fb","540","1333683","0.0-46.57-0.57","1097","pics2/FR2.jpg,pics2/FR6.jpg","","","","","","","false","0","","","sizeS.png","","",""
"image-slider-2AFC","541","1335472","0.0-46.57-1.57","1783","","","","-38","","","","","","","","sizeS.png","954","-38",""
"html-keyboard-response","542","1336176","0.0-46.57-2.57","null","","","","","","","null","","","","","","","",""
"image-selector-fb","543","1339187","0.0-46.58-0.58","null","pics2/FR6.jpg,pics2/SW5.jpg","","","","","","","false","null","","","noS.png","","",""
"image-slider-2AFC","544","1342323","0.0-46.58-1.58","3131","","","","76","","","","","","","","heartS.png","2147","76",""
"html-keyboard-response","545","1343079","0.0-46.58-2.58","null","","","","","","","null","","","","","","","",""
"image-selector-fb","546","1346092","0.0-46.59-0.59","null","pics2/SW3.jpg,pics2/SW2.jpg","","","","","","","false","null","","","noS.png","","",""
"image-slider-2AFC","547","1348455","0.0-46.59-1.59","2357","","","","69","","","","","","","","heartS.png","1463","69",""
"html-keyboard-response","548","1349209","0.0-46.59-2.59","null","","","","","","","null","","","","","","","",""
"image-selector-fb","549","1350975","0.0-46.60-0.60","1257","pics2/SA4.jpg,pics2/VE3.jpg","","","","","","","true","1","","","sizeS.png","","",""
"image-slider-2AFC","550","1352931","0.0-46.60-1.60","1951","","","","81","","","","","","","","heartS.png","886","81",""
"html-keyboard-response","551","1353737","0.0-46.60-2.60","null","","","","","","","null","","","","","","","",""
"image-selector-fb","552","1356748","0.0-46.61-0.61","null","pics2/FR6.jpg,pics2/SW2.jpg","","","","","","","false","null","","","noS.png","","",""
"image-slider-2AFC","553","1358938","0.0-46.61-1.61","2185","","","","75","","","","","","","","heartS.png","1206","75",""
"html-keyboard-response","554","1359792","0.0-46.61-2.61","null","","","","","","","null","","","","","","","",""
"image-selector-fb","555","1361449","0.0-46.62-0.62","1147","pics2/SA4.jpg,pics2/FR2.jpg","","","","","","","true","1","","","sizeS.png","","",""
"image-slider-2AFC","556","1363671","0.0-46.62-1.62","2218","","","","80","","","","","","","","sizeS.png","1181","80",""
"html-keyboard-response","557","1364526","0.0-46.62-2.62","null","","","","","","","null","","","","","","","",""
"image-selector-fb","558","1367507","0.0-46.63-0.63","2469","pics2/VE3.jpg,pics2/SW6.jpg","","","","","","","true","1","","","heartS.png","","",""
"image-slider-2AFC","559","1369239","0.0-46.63-1.63","1726","","","","64","","","","","","","","sizeS.png","879","64",""
"html-keyboard-response","560","1370043","0.0-46.63-2.63","null","","","","","","","null","","","","","","","",""
"image-selector-fb","561","1373055","0.0-46.64-0.64","null","pics2/SW3.jpg,pics2/FR5.jpg","","","","","","","false","null","","","noS.png","","",""
"image-slider-2AFC","562","1375904","0.0-46.64-1.64","2845","","","","-41","","","","","","","","heartS.png","1994","-41",""
"html-keyboard-response","563","1376758","0.0-46.64-2.64","null","","","","","","","null","","","","","","","",""
"image-selector-fb","564","1379774","0.0-46.65-0.65","null","pics2/FR1.jpg,pics2/FR4.jpg","","","","","","","false","null","","","noS.png","","",""
"image-slider-2AFC","565","1382128","0.0-46.65-1.65","2348","","","","-43","","","","","","","","heartS.png","1477","-43",""
"html-keyboard-response","566","1382933","0.0-46.65-2.65","null","","","","","","","null","","","","","","","",""
"pavlovia","567","1382973","0.0-47.0","","","","","","","","","","","","","","","",""
"html-keyboard-response","568","1387975","0.0-48.0","null","<div style='width: 700px;'> <font size=6><b>SHORT BREAK</font></b><br><br><i> Please wait 5 seconds to continue</i></div> ","","","","","","null","","","","","","","",""
"pavlovia","569","1387980","0.0-49.0","","","","","","","","","","","","","","","",""
"html-button-response","570","1390350","0.0-50.0","2367","<div style='width: 700px;'> <font size=6><b>BLOCK 3</font></b><br><br>Press the button whenever you feel ready to start the third and final block</div>","0","","","","","","","","","","","","",""
"image-selector-fb","571","1392763","0.0-51.0-0.0","1903","pics2/SW2.jpg,pics2/VE3.jpg","","","","","","","false","0","","","sizeS.png","","",""
"image-slider-2AFC","572","1394846","0.0-51.0-1.0","2077","","","","-46","","","","","","","","sizeS.png","1172","-46",""
"html-keyboard-response","573","1395650","0.0-51.0-2.0","null","","","","","","","null","","","","","","","",""
"image-selector-fb","574","1397464","0.0-51.1-0.1","1301","pics2/FR5.jpg,pics2/FR2.jpg","","","","","","","true","1","","","sizeS.png","","",""
"image-slider-2AFC","575","1399185","0.0-51.1-1.1","1711","","","","54","","","","","","","","heartS.png","859","54",""
"html-keyboard-response","576","1400039","0.0-51.1-2.1","null","","","","","","","null","","","","","","","",""
"image-selector-fb","577","1403813","0.0-51.2-0.2","3264","pics2/FR4.jpg,pics2/SW3.jpg","","","","","","","false","0","","","sizeS.png","","",""
"image-slider-2AFC","578","1406812","0.0-51.2-1.2","2993","","","","-73","","","","","","","","sizeS.png","2147","-73",""
"html-keyboard-response","579","1407566","0.0-51.2-2.2","null","","","","","","","null","","","","","","","",""
"image-selector-fb","580","1410580","0.0-51.3-0.3","null","pics2/VE3.jpg,pics2/SW2.jpg","","","","","","","false","null","","","noS.png","","",""
"image-slider-2AFC","581","1412402","0.0-51.3-1.3","1817","","","","-77","","","","","","","","sizeS.png","788","-77",""
"html-keyboard-response","582","1413105","0.0-51.3-2.3","null","","","","","","","null","","","","","","","",""
"image-selector-fb","583","1415679","0.0-51.4-0.4","2062","pics2/SW6.jpg,pics2/FR4.jpg","","","","","","","true","1","","","sizeS.png","","",""
"image-slider-2AFC","584","1417877","0.0-51.4-1.4","2192","","","","84","","","","","","","","heartS.png","678","84",""
"html-keyboard-response","585","1418581","0.0-51.4-2.4","null","","","","","","","null","","","","","","","",""
"image-selector-fb","586","1421221","0.0-51.5-0.5","2129","pics2/SW6.jpg,pics2/VE3.jpg","","","","","","","true","1","","","sizeS.png","","",""
"image-slider-2AFC","587","1424053","0.0-51.5-1.5","2825","","","","-66","","","","","","","","heartS.png","1936","-66",""
"html-keyboard-response","588","1424757","0.0-51.5-2.5","null","","","","","","","null","","","","","","","",""
"image-selector-fb","589","1427770","0.0-51.6-0.6","null","pics2/SW5.jpg,pics2/SW2.jpg","","","","","","","false","null","","","noS.png","","",""
"image-slider-2AFC","590","1431168","0.0-51.6-1.6","3392","","","","-50","","","","","","","","heartS.png","2271","-50",""
"html-keyboard-response","591","1431923","0.0-51.6-2.6","null","","","","","","","null","","","","","","","",""
"image-selector-fb","592","1435184","0.0-51.7-0.7","2752","pics2/FR1.jpg,pics2/SW6.jpg","","","","","","","false","0","","","heartS.png","","",""
"image-slider-2AFC","593","1437785","0.0-51.7-1.7","2595","","","","74","","","","","","","","sizeS.png","1624","74",""
"html-keyboard-response","594","1438489","0.0-51.7-2.7","null","","","","","","","null","","","","","","","",""
"image-selector-fb","595","1440727","0.0-51.8-0.8","1730","pics2/FR6.jpg,pics2/FR2.jpg","","","","","","","true","1","","","heartS.png","","",""
"image-slider-2AFC","596","1442317","0.0-51.8-1.8","1585","","","","43","","","","","","","","sizeS.png","709","43",""
"html-keyboard-response","597","1443123","0.0-51.8-2.8","null","","","","","","","null","","","","","","","",""
"image-selector-fb","598","1445163","0.0-51.9-0.9","1529","pics2/FR1.jpg,pics2/SW2.jpg","","","","","","","false","0","","","heartS.png","","",""
"image-slider-2AFC","599","1446744","0.0-51.9-1.9","1576","","","","-58","","","","","","","","sizeS.png","661","-58",""
"html-keyboard-response","600","1447448","0.0-51.9-2.9","null","","","","","","","null","","","","","","","",""
"image-selector-fb","601","1450319","0.0-51.10-0.10","2360","pics2/VE3.jpg,pics2/FR5.jpg","","","","","","","false","0","","","heartS.png","","",""
"image-slider-2AFC","602","1451867","0.0-51.10-1.10","1543","","","","62","","","","","","","","sizeS.png","663","62",""
"html-keyboard-response","603","1452572","0.0-51.10-2.10","null","","","","","","","null","","","","","","","",""
"image-selector-fb","604","1455588","0.0-51.11-0.11","null","pics2/FR1.jpg,pics2/SW5.jpg","","","","","","","false","null","","","noS.png","","",""
"image-slider-2AFC","605","1457310","0.0-51.11-1.11","1715","","","","51","","","","","","","","sizeS.png","717","51",""
"html-keyboard-response","606","1458014","0.0-51.11-2.11","null","","","","","","","null","","","","","","","",""
"image-selector-fb","607","1461025","0.0-51.12-0.12","null","pics2/FR3.jpg,pics2/SW2.jpg","","","","","","","false","null","","","noS.png","","",""
"image-slider-2AFC","608","1462500","0.0-51.12-1.12","1469","","","","-42","","","","","","","","heartS.png","698","-42",""
"html-keyboard-response","609","1463204","0.0-51.12-2.12","null","","","","","","","null","","","","","","","",""
"image-selector-fb","610","1466378","0.0-51.13-0.13","2657","pics2/FR4.jpg,pics2/SW6.jpg","","","","","","","false","0","","","heartS.png","","",""
"image-slider-2AFC","611","1467912","0.0-51.13-1.13","1528","","","","-72","","","","","","","","heartS.png","728","-72",""
"html-keyboard-response","612","1468766","0.0-51.13-2.13","null","","","","","","","null","","","","","","","",""
"image-selector-fb","613","1471778","0.0-51.14-0.14","null","pics2/SW3.jpg,pics2/SW6.jpg","","","","","","","false","null","","","noS.png","","",""
"image-slider-2AFC","614","1473664","0.0-51.14-1.14","1881","","","","-35","","","","","","","","sizeS.png","988","-35",""
"html-keyboard-response","615","1474369","0.0-51.14-2.14","null","","","","","","","null","","","","","","","",""
"image-selector-fb","616","1476766","0.0-51.15-0.15","1885","pics2/SW5.jpg,pics2/FR3.jpg","","","","","","","false","0","","","heartS.png","","",""
"image-slider-2AFC","617","1478365","0.0-51.15-1.15","1592","","","","-51","","","","","","","","heartS.png","722","-51",""
"html-keyboard-response","618","1479070","0.0-51.15-2.15","null","","","","","","","null","","","","","","","",""
"image-selector-fb","619","1481352","0.0-51.16-0.16","1770","pics2/FR6.jpg,pics2/SA4.jpg","","","","","","","false","0","","","heartS.png","","",""
"image-slider-2AFC","620","1482965","0.0-51.16-1.16","1608","","","","-63","","","","","","","","sizeS.png","653","-63",""
"html-keyboard-response","621","1483820","0.0-51.16-2.16","null","","","","","","","null","","","","","","","",""
"image-selector-fb","622","1486830","0.0-51.17-0.17","null","pics2/SA4.jpg,pics2/SW2.jpg","","","","","","","false","null","","","noS.png","","",""
"image-slider-2AFC","623","1488791","0.0-51.17-1.17","1955","","","","73","","","","","","","","sizeS.png","958","73",""
"html-keyboard-response","624","1489495","0.0-51.17-2.17","null","","","","","","","null","","","","","","","",""
"image-selector-fb","625","1491283","0.0-51.18-0.18","1278","pics2/FR6.jpg,pics2/SW5.jpg","","","","","","","true","1","","","sizeS.png","","",""
"image-slider-2AFC","626","1494165","0.0-51.18-1.18","2876","","","","99","","","","","","","","sizeS.png","1706","99",""
"html-keyboard-response","627","1494869","0.0-51.18-2.18","null","","","","","","","null","","","","","","","",""
"image-selector-fb","628","1497887","0.0-51.19-0.19","null","pics2/SW6.jpg,pics2/FR4.jpg","","","","","","","false","null","","","noS.png","","",""
"image-slider-2AFC","629","1500998","0.0-51.19-1.19","3105","","","","-32","","","","","","","","sizeS.png","1225,2292","46,-32",""
"html-keyboard-response","630","1501803","0.0-51.19-2.19","null","","","","","","","null","","","","","","","",""
"image-selector-fb","631","1504175","0.0-51.20-0.20","1860","pics2/FR1.jpg,pics2/SW3.jpg","","","","","","","false","0","","","sizeS.png","","",""
"image-slider-2AFC","632","1505939","0.0-51.20-1.20","1759","","","","45","","","","","","","","heartS.png","778","45",""
"html-keyboard-response","633","1506744","0.0-51.20-2.20","null","","","","","","","null","","","","","","","",""
"image-selector-fb","634","1509769","0.0-51.21-0.21","null","pics2/FR6.jpg,pics2/SA4.jpg","","","","","","","false","null","","","noS.png","","",""
"image-slider-2AFC","635","1511613","0.0-51.21-1.21","1838","","","","-41","","","","","","","","heartS.png","984","-41",""
"html-keyboard-response","636","1512317","0.0-51.21-2.21","null","","","","","","","null","","","","","","","",""
"image-selector-fb","637","1514224","0.0-51.22-0.22","1394","pics2/SW3.jpg,pics2/FR4.jpg","","","","","","","true","1","","","heartS.png","","",""
"image-slider-2AFC","638","1515905","0.0-51.22-1.22","1677","","","","68","","","","","","","","heartS.png","712","68",""
"html-keyboard-response","639","1516659","0.0-51.22-2.22","null","","","","","","","null","","","","","","","",""
"image-selector-fb","640","1518897","0.0-51.23-0.23","1728","pics2/FR6.jpg,pics2/SW3.jpg","","","","","","","true","1","","","sizeS.png","","",""
"image-slider-2AFC","641","1523904","0.0-51.23-1.23","null","","","","null","","","","","","","","sizeS.png","1187,1974,2830","45,1,42",""
"html-keyboard-response","642","1524658","0.0-51.23-2.23","null","","","","","","","null","","","","","","","",""
"image-selector-fb","643","1526808","0.0-51.24-0.24","1633","pics2/SW6.jpg,pics2/FR5.jpg","","","","","","","false","0","","","sizeS.png","","",""
"image-slider-2AFC","644","1529378","0.0-51.24-1.24","2564","","","","-65","","","","","","","","heartS.png","1766","-65",""
"html-keyboard-response","645","1530083","0.0-51.24-2.24","null","","","","","","","null","","","","","","","",""
"image-selector-fb","646","1532182","0.0-51.25-0.25","1586","pics2/FR6.jpg,pics2/FR3.jpg","","","","","","","true","1","","","heartS.png","","",""
"image-slider-2AFC","647","1533820","0.0-51.25-1.25","1632","","","","52","","","","","","","","sizeS.png","611","52",""
"html-keyboard-response","648","1534574","0.0-51.25-2.25","null","","","","","","","null","","","","","","","",""
"image-selector-fb","649","1536689","0.0-51.26-0.26","1606","pics2/FR5.jpg,pics2/SW6.jpg","","","","","","","true","1","","","heartS.png","","",""
"image-slider-2AFC","650","1538420","0.0-51.26-1.26","1726","","","","50","","","","","","","","sizeS.png","655","50",""
"html-keyboard-response","651","1539124","0.0-51.26-2.26","null","","","","","","","null","","","","","","","",""
"image-selector-fb","652","1542145","0.0-51.27-0.27","null","pics2/FR1.jpg,pics2/FR3.jpg","","","","","","","false","null","","","noS.png","","",""
"image-slider-2AFC","653","1546053","0.0-51.27-1.27","3902","","","","70","","","","","","","","heartS.png","2230,2924","38,70",""
"html-keyboard-response","654","1546808","0.0-51.27-2.27","null","","","","","","","null","","","","","","","",""
"image-selector-fb","655","1548614","0.0-51.28-0.28","1295","pics2/FR6.jpg,pics2/VE3.jpg","","","","","","","true","1","","","sizeS.png","","",""
"image-slider-2AFC","656","1550676","0.0-51.28-1.28","2058","","","","-56","","","","","","","","heartS.png","1138","-56",""
"html-keyboard-response","657","1551481","0.0-51.28-2.28","null","","","","","","","null","","","","","","","",""
"image-selector-fb","658","1554492","0.0-51.29-0.29","null","pics2/SW5.jpg,pics2/FR5.jpg","","","","","","","false","null","","","noS.png","","",""
"image-slider-2AFC","659","1558504","0.0-51.29-1.29","4007","","","","-58","","","","","","","","heartS.png","2017","-58",""
"html-keyboard-response","660","1559310","0.0-51.29-2.29","null","","","","","","","null","","","","","","","",""
"image-selector-fb","661","1562322","0.0-51.30-0.30","null","pics2/SA4.jpg,pics2/FR4.jpg","","","","","","","false","null","","","noS.png","","",""
"image-slider-2AFC","662","1564703","0.0-51.30-1.30","2375","","","","70","","","","","","","","heartS.png","1386","70",""
"html-keyboard-response","663","1565507","0.0-51.30-2.30","null","","","","","","","null","","","","","","","",""
"image-selector-fb","664","1567513","0.0-51.31-0.31","1497","pics2/SW2.jpg,pics2/SA4.jpg","","","","","","","false","0","","","heartS.png","","",""
"image-slider-2AFC","665","1569543","0.0-51.31-1.31","2024","","","","-54","","","","","","","","heartS.png","920","-54",""
"html-keyboard-response","666","1570247","0.0-51.31-2.31","null","","","","","","","null","","","","","","","",""
"image-selector-fb","667","1572630","0.0-51.32-0.32","1873","pics2/FR2.jpg,pics2/SW2.jpg","","","","","","","true","1","","","sizeS.png","","",""
"image-slider-2AFC","668","1574203","0.0-51.32-1.32","1563","","","","75","","","","","","","","sizeS.png","600","75",""
"html-keyboard-response","669","1574908","0.0-51.32-2.32","null","","","","","","","null","","","","","","","",""
"image-selector-fb","670","1576854","0.0-51.33-0.33","1435","pics2/FR4.jpg,pics2/FR3.jpg","","","","","","","true","1","","","sizeS.png","","",""
"image-slider-2AFC","671","1580194","0.0-51.33-1.33","3334","","","","67","","","","","","","","sizeS.png","491,2379","94,67",""
"html-keyboard-response","672","1581048","0.0-51.33-2.33","null","","","","","","","null","","","","","","","",""
"image-selector-fb","673","1584060","0.0-51.34-0.34","null","pics2/FR3.jpg,pics2/FR5.jpg","","","","","","","false","null","","","noS.png","","",""
"image-slider-2AFC","674","1585908","0.0-51.34-1.34","1843","","","","-74","","","","","","","","heartS.png","822","-74",""
"html-keyboard-response","675","1586713","0.0-51.34-2.34","null","","","","","","","null","","","","","","","",""
"image-selector-fb","676","1589378","0.0-51.35-0.35","2156","pics2/FR2.jpg,pics2/FR1.jpg","","","","","","","false","0","","","sizeS.png","","",""
"image-slider-2AFC","677","1590980","0.0-51.35-1.35","1598","","","","-78","","","","","","","","heartS.png","677","-78",""
"html-keyboard-response","678","1591835","0.0-51.35-2.35","null","","","","","","","null","","","","","","","",""
"image-selector-fb","679","1593719","0.0-51.36-0.36","1374","pics2/FR1.jpg,pics2/SA4.jpg","","","","","","","false","0","","","heartS.png","","",""
"image-slider-2AFC","680","1596757","0.0-51.36-1.36","3027","","","","-63","","","","","","","","heartS.png","718","-63",""
"html-keyboard-response","681","1597562","0.0-51.36-2.36","null","","","","","","","null","","","","","","","",""
"image-selector-fb","682","1600575","0.0-51.37-0.37","null","pics2/FR2.jpg,pics2/VE3.jpg","","","","","","","false","null","","","noS.png","","",""
"image-slider-2AFC","683","1603050","0.0-51.37-1.37","2470","","","","-57","","","","","","","","heartS.png","1338","-57",""
"html-keyboard-response","684","1603854","0.0-51.37-2.37","null","","","","","","","null","","","","","","","",""
"image-selector-fb","685","1605502","0.0-51.38-0.38","1138","pics2/FR4.jpg,pics2/FR5.jpg","","","","","","","false","0","","","heartS.png","","",""
"image-slider-2AFC","686","1607199","0.0-51.38-1.38","1692","","","","-75","","","","","","","","heartS.png","629","-75",""
"html-keyboard-response","687","1608003","0.0-51.38-2.38","null","","","","","","","null","","","","","","","",""
"image-selector-fb","688","1609970","0.0-51.39-0.39","1448","pics2/SA4.jpg,pics2/SW5.jpg","","","","","","","true","1","","","sizeS.png","","",""
"image-slider-2AFC","689","1613232","0.0-51.39-1.39","3258","","","","92","","","","","","","","sizeS.png","1571","92",""
"html-keyboard-response","690","1614037","0.0-51.39-2.39","null","","","","","","","null","","","","","","","",""
"image-selector-fb","691","1616743","0.0-51.40-0.40","2191","pics2/FR5.jpg,pics2/FR6.jpg","","","","","","","true","1","","","sizeS.png","","",""
"image-slider-2AFC","692","1618433","0.0-51.40-1.40","1684","","","","71","","","","","","","","sizeS.png","711","71",""
"html-keyboard-response","693","1619137","0.0-51.40-2.40","null","","","","","","","null","","","","","","","",""
"image-selector-fb","694","1622150","0.0-51.41-0.41","null","pics2/SW6.jpg,pics2/FR5.jpg","","","","","","","false","null","","","noS.png","","",""
"image-slider-2AFC","695","1624490","0.0-51.41-1.41","2337","","","","-52","","","","","","","","heartS.png","1374","-52",""
"html-keyboard-response","696","1625245","0.0-51.41-2.41","null","","","","","","","null","","","","","","","",""
"image-selector-fb","697","1627001","0.0-51.42-0.42","1246","pics2/VE3.jpg,pics2/FR2.jpg","","","","","","","true","1","","","heartS.png","","",""
"image-slider-2AFC","698","1628899","0.0-51.42-1.42","1893","","","","66","","","","","","","","heartS.png","911","66",""
"html-keyboard-response","699","1629753","0.0-51.42-2.42","null","","","","","","","null","","","","","","","",""
"image-selector-fb","700","1631651","0.0-51.43-0.43","1389","pics2/FR4.jpg,pics2/SW2.jpg","","","","","","","true","1","","","sizeS.png","","",""
"image-slider-2AFC","701","1633178","0.0-51.43-1.43","1521","","","","84","","","","","","","","heartS.png","558","84",""
"html-keyboard-response","702","1633932","0.0-51.43-2.43","null","","","","","","","null","","","","","","","",""
"image-selector-fb","703","1635676","0.0-51.44-0.44","1232","pics2/FR4.jpg,pics2/FR2.jpg","","","","","","","true","1","","","heartS.png","","",""
"image-slider-2AFC","704","1637333","0.0-51.44-1.44","1651","","","","75","","","","","","","","sizeS.png","737","75",""
"html-keyboard-response","705","1638088","0.0-51.44-2.44","null","","","","","","","null","","","","","","","",""
"image-selector-fb","706","1639734","0.0-51.45-0.45","1136","pics2/SW5.jpg,pics2/FR5.jpg","","","","","","","false","0","","","heartS.png","","",""
"image-slider-2AFC","707","1642703","0.0-51.45-1.45","2965","","","","-55","","","","","","","","sizeS.png","580","-55",""
"html-keyboard-response","708","1643507","0.0-51.45-2.45","null","","","","","","","null","","","","","","","",""
"image-selector-fb","709","1646520","0.0-51.46-0.46","null","pics2/SW3.jpg,pics2/SW5.jpg","","","","","","","false","null","","","noS.png","","",""
"image-slider-2AFC","710","1649582","0.0-51.46-1.46","3055","","","","58","","","","","","","","heartS.png","1982","58",""
