"trial_type","trial_index","time_elapsed","internal_node_id","rt","stimulus","button_pressed","success","response","cat","value","key_press","correct","image_click","first_click_rt","first_click_val","symbol","all_click_rt","all_click_val","view_history"
"pavlovia","0","4","0.0-0.0","","","","","","","","","","","","","","","",""
"html-button-response","1","6447","0.0-1.0","6440","<div style='width: 700px; font-size: 150%'><font size='40'>  Welcome to our study!</font><br><br><br> <small> Our experiment is about <i>decision making</i>. You will choose and rate different food items, such as these: <br><br> <div><img src='food_combo2.png', height = '400px'></img></div>","0","","","","","","","","","","","","",""
"html-button-response","2","18626","0.0-2.0","12178","<div style='width: 700px; font-size: 150%'><br><br><br><small> <u><i>This is a multi-part study.</i></u><br><br> In the first part you will rate 24 food items twice.<br><br><div><img src=""rat1.png"" style=""width: 25%""></img></div><br>In the second part (longest) you will make repeated choices and judgements concerning the food items.<br><br><div><img src=""mainx.png"" style=""width: 50%""></img></div><br>In the third and final part, you will rate the items again and answer few short questionnaires.<br><br><div><img src=""rat2.png"" style=""width: 50%""></img></div><br><br>","0","","","","","","","","","","","","",""
"fullscreen","3","23749","0.0-3.0","","","","true","","","","","","","","","","","",""
"html-button-response","4","69406","0.0-4.0","45656","<div style='width: 900px; font-size: 150%;' <font size='20%'> In the first part of the task you will use the mouse to rate food items on <i>2 scales</i> </font></div><br><br><div style='width: 900px'><div style='float: left; width: 50%; margin-right:2.5em'><img src='heartS.png'></img><p class='small' style='text-align: justify'>When you see the heart cue you will rate food items in terms of how much like them/would like to eat them <i>right now</i>. You will rate them on a continuous scale from left (strong dislike) to right (strong liking). Before submitting your rating, try imagining how the item tastes and how much you desire it.<br><br></p></div><div ><img src='sizeS.png'></img><p class='small' style='text-align: justify'>When you see the size cue, you will rate the same food items in terms of their size. The scale goes from left (tiny) to right (very large). You should assess picture size <i><u>relative</i></u> to the white background. <b>Remember:</b> rate the size of the picture, <u>not</u> the size of the item in real life. </p></div><div style='width: 900px'><br><br><b><i>Notice:</b> by starting the rating you agree that your sumbission might be rejected at an early stage and the experiment might end, if your size ratings are not at least modestly related to objective sizes, or if you repeat the same value ratings too many times. If you don't agree, please exit by closing the browser window. </i><br><br><br>","0","","","","","","","","","","","","",""
"html-button-response","5","75142","0.0-5.0","5734","<div><img src='heartS.png'></img></div><br><div style='text-align: justify; width: 700px'>Using the mouse, rate the <b><i>likeness</b></i> of the food items (how much you like them/would like to eat them <i>right now</i>). Far right-end of the scale indicates an item you <i>like a lot</i>. Far left-end indicates an item you <i>dislike a lot</i>. Think about each answer.   <ul><li>Try <b><i>not</b></i> to give identical rating to different items.</li><li>Use the whole scale, and <b><i>not</b></i> just the extremes</ul></div><br>","0","","","","","","","","","","","","",""
"image-slider-response","6","77890","0.0-6.0-0.0-0.0","2746","pics2/SA4.jpg","","","100","SA","","","","","","","","","",""
"image-slider-response","7","80430","0.0-6.0-0.0-0.1","2337","pics2/FR3.jpg","","","100","FR","","","","","","","","","",""
"image-slider-response","8","82786","0.0-6.0-0.0-0.2","2154","pics2/FR6.jpg","","","100","FR","","","","","","","","","",""
"image-slider-response","9","85284","0.0-6.0-0.0-0.3","2295","pics2/SW2.jpg","","","69","SW","","","","","","","","","",""
"image-slider-response","10","88248","0.0-6.0-0.0-0.4","2759","pics2/SA5.jpg","","","66","SA","","","","","","","","","",""
"image-slider-response","11","90508","0.0-6.0-0.0-0.5","2058","pics2/VE3.jpg","","","81","VE","","","","","","","","","",""
"image-slider-response","12","92494","0.0-6.0-0.0-0.6","1777","pics2/SW6.jpg","","","79","SW","","","","","","","","","",""
"image-slider-response","13","94456","0.0-6.0-0.0-0.7","1748","pics2/VE2.jpg","","","75","VE","","","","","","","","","",""
"image-slider-response","14","96796","0.0-6.0-0.0-0.8","2138","pics2/VE6.jpg","","","0","VE","","","","","","","","","",""
"image-slider-response","15","100448","0.0-6.0-0.0-0.9","3438","pics2/FR2.jpg","","","91","FR","","","","","","","","","",""
"image-slider-response","16","102972","0.0-6.0-0.0-0.10","2307","pics2/FR5.jpg","","","77","FR","","","","","","","","","",""
"image-slider-response","17","105248","0.0-6.0-0.0-0.11","2064","pics2/SW3.jpg","","","100","SW","","","","","","","","","",""
"image-slider-response","18","107634","0.0-6.0-0.0-0.12","2184","pics2/SA3.jpg","","","27","SA","","","","","","","","","",""
"image-slider-response","19","110574","0.0-6.0-0.0-0.13","2739","pics2/FR1.jpg","","","95","FR","","","","","","","","","",""
"image-slider-response","20","113338","0.0-6.0-0.0-0.14","2548","pics2/VE1.jpg","","","72","VE","","","","","","","","","",""
"image-slider-response","21","116206","0.0-6.0-0.0-0.15","2662","pics2/VE4.jpg","","","33","VE","","","","","","","","","",""
"image-slider-response","22","118312","0.0-6.0-0.0-0.16","1903","pics2/SW1.jpg","","","33","SW","","","","","","","","","",""
"image-slider-response","23","120332","0.0-6.0-0.0-0.17","1819","pics2/FR4.jpg","","","100","FR","","","","","","","","","",""
"image-slider-response","24","122926","0.0-6.0-0.0-0.18","2381","pics2/SW4.jpg","","","65","SW","","","","","","","","","",""
"image-slider-response","25","125506","0.0-6.0-0.0-0.19","2379","pics2/SW5.jpg","","","78","SW","","","","","","","","","",""
"image-slider-response","26","128063","0.0-6.0-0.0-0.20","2354","pics2/VE5.jpg","","","68","VE","","","","","","","","","",""
"image-slider-response","27","133446","0.0-6.0-0.0-0.21","5180","pics2/SA1.jpg","","","79","SA","","","","","","","","","",""
"image-slider-response","28","135672","0.0-6.0-0.0-0.22","2025","pics2/SA2.jpg","","","84","SA","","","","","","","","","",""
"image-slider-response","29","137626","0.0-6.0-0.0-0.23","1751","pics2/SA6.jpg","","","85","SA","","","","","","","","","",""
"html-button-response","30","138876","0.0-7.0","1048","<div style='width: 900px;'> <font size = 6><b> End of the first rating</b><br><br>","0","","","","","","","","","","","","",""
"html-button-response","31","142916","0.0-9.0","4038","<div ><img src='sizeS.png'></img></div><br><div style='text-align: justify; width: 700px'> Using the mouse, rate the <b><i>size</b></i> of the food items <b><i> relative to the white background.</b></i> Right-end of the scale indicates a <i>very large item</i>, which covers a large portion of the white rectangle. Left-end indicates a <i>very tiny</i> item which covers a tiny portion of the white rectangle.<br><br><i><u>Remember</i></u>: everything that is not the white background also contributes to item size (e.g. packing, plates, ect.)<br><br> Please keep in mind that if the accuracy of ratings do not allign well with actual sizes, the experiment will end.  As a result it will be consider incomplete and therefore no payment would be made. Good luck!<br><br></div><br>","0","","","","","","","","","","","","",""
"html-button-response","32","148676","0.0-10.0","5758","<div ><img src='sizeS.png'></img></div><br><b><font size=6>Examples of items that you might encounter</b><br><div style='width: 750px;'><div style='width: 33.33%; float:left'><br><br><br><i>Large Item</i><br><br><img src='large.jpg', width=200px></img></div><div style='float:right'><br><br><br><i>Small Item</i><br><br><img src='small.jpg', width=200px></img></div><div ><br><br><br><i>Medium Item</i><br><br><img src='med.jpg', width=200px></img></div></div><br><br>","0","","","","","","","","","","","","",""
"image-slider-response","33","152946","0.0-11.0-0.0-0.0","4268","pics2/SW5.jpg","","","86","null","","","","","","","","","",""
"image-slider-response","34","155556","0.0-11.0-0.0-0.1","2399","pics2/SW2.jpg","","","78","null","","","","","","","","","",""
"image-slider-response","35","158104","0.0-11.0-0.0-0.2","2345","pics2/SA1.jpg","","","100","null","","","","","","","","","",""
"image-slider-response","36","160196","0.0-11.0-0.0-0.3","1880","pics2/SA3.jpg","","","38","null","","","","","","","","","",""
"image-slider-response","37","162038","0.0-11.0-0.0-0.4","1640","pics2/VE1.jpg","","","67","null","","","","","","","","","",""
"image-slider-response","38","164568","0.0-11.0-0.0-0.5","2317","pics2/SW3.jpg","","","26","null","","","","","","","","","",""
"image-slider-response","39","167267","0.0-11.0-0.0-0.6","2485","pics2/SW6.jpg","","","16","null","","","","","","","","","",""
"image-slider-response","40","169415","0.0-11.0-0.0-0.7","1933","pics2/FR1.jpg","","","85","null","","","","","","","","","",""
"image-slider-response","41","171721","0.0-11.0-0.0-0.8","2095","pics2/VE3.jpg","","","100","null","","","","","","","","","",""
"image-slider-response","42","173997","0.0-11.0-0.0-0.9","2066","pics2/SA2.jpg","","","25","null","","","","","","","","","",""
"image-slider-response","43","176191","0.0-11.0-0.0-0.10","1992","pics2/FR5.jpg","","","66","null","","","","","","","","","",""
"image-slider-response","44","178851","0.0-11.0-0.0-0.11","2458","pics2/FR4.jpg","","","20","null","","","","","","","","","",""
"image-slider-response","45","181061","0.0-11.0-0.0-0.12","2008","pics2/SW4.jpg","","","68","null","","","","","","","","","",""
"image-slider-response","46","182809","0.0-11.0-0.0-0.13","1545","pics2/SA6.jpg","","","68","null","","","","","","","","","",""
"image-slider-response","47","184883","0.0-11.0-0.0-0.14","1864","pics2/VE4.jpg","","","33","null","","","","","","","","","",""
"image-slider-response","48","187575","0.0-11.0-0.0-0.15","2490","pics2/VE6.jpg","","","17","null","","","","","","","","","",""
"image-slider-response","49","189993","0.0-11.0-0.0-0.16","2209","pics2/VE2.jpg","","","95","null","","","","","","","","","",""
"image-slider-response","50","192221","0.0-11.0-0.0-0.17","2026","pics2/SW1.jpg","","","100","null","","","","","","","","","",""
"image-slider-response","51","197083","0.0-11.0-0.0-0.18","4646","pics2/SA5.jpg","","","13","null","","","","","","","","","",""
"image-slider-response","52","200231","0.0-11.0-0.0-0.19","2935","pics2/FR3.jpg","","","72","null","","","","","","","","","",""
"image-slider-response","53","202147","0.0-11.0-0.0-0.20","1715","pics2/FR6.jpg","","","77","null","","","","","","","","","",""
"image-slider-response","54","205471","0.0-11.0-0.0-0.21","3122","pics2/VE5.jpg","","","76","null","","","","","","","","","",""
"image-slider-response","55","207905","0.0-11.0-0.0-0.22","2232","pics2/SA4.jpg","","","12","null","","","","","","","","","",""
"image-slider-response","56","210029","0.0-11.0-0.0-0.23","1919","pics2/FR2.jpg","","","99","null","","","","","","","","","",""
"html-button-response","57","211367","0.0-12.0","1136","<div style='width: 900px;'> <font size = 6><b> End of the second rating</b><br><br>","0","","","","","","","","","","","","",""
"html-button-response","58","216575","0.0-13.0","5208","<div style='width: 900px;'>Now please rate the items for the second time. <br><br>This is not a memory test - you don't need to be consistent with your previous ratings. Just as before, try to make accurate judgements.<br><br>","0","","","","","","","","","","","","",""
"html-button-response","59","217537","0.0-14.0","961","<div><img src='heartS.png'></img></div><br><div style='text-align: justify; width: 700px'>Using the mouse, rate the <b><i>likeness</b></i> of the food items (how much you like them/would like to eat them <i>right now</i>). Far right-end of the scale indicates an item you <i>like a lot</i>. Far left-end indicates an item you <i>dislike a lot</i>. Think about each answer.   <ul><li>Try <b><i>not</b></i> to give identical rating to different items.</li><li>Use the whole scale, and <b><i>not</b></i> just the extremes</ul></div><br>","0","","","","","","","","","","","","",""
"image-slider-response","60","219795","0.0-15.0-0.0-0.0","2256","pics2/SW6.jpg","","","66","SW","","","","","","","","","",""
"image-slider-response","61","221855","0.0-15.0-0.0-0.1","1849","pics2/VE5.jpg","","","74","VE","","","","","","","","","",""
"image-slider-response","62","223793","0.0-15.0-0.0-0.2","1727","pics2/SW2.jpg","","","62","SW","","","","","","","","","",""
"image-slider-response","63","225643","0.0-15.0-0.0-0.3","1639","pics2/VE2.jpg","","","86","VE","","","","","","","","","",""
"image-slider-response","64","227872","0.0-15.0-0.0-0.4","2026","pics2/SA5.jpg","","","70","SA","","","","","","","","","",""
"image-slider-response","65","231139","0.0-15.0-0.0-0.5","3066","pics2/SA4.jpg","","","100","SA","","","","","","","","","",""
"image-slider-response","66","233430","0.0-15.0-0.0-0.6","2077","pics2/SW3.jpg","","","66","SW","","","","","","","","","",""
"image-slider-response","67","236354","0.0-15.0-0.0-0.7","2721","pics2/FR4.jpg","","","100","FR","","","","","","","","","",""
"image-slider-response","68","238278","0.0-15.0-0.0-0.8","1709","pics2/SA2.jpg","","","89","SA","","","","","","","","","",""
"image-slider-response","69","240600","0.0-15.0-0.0-0.9","2113","pics2/VE6.jpg","","","0","VE","","","","","","","","","",""
"image-slider-response","70","243772","0.0-15.0-0.0-0.10","2963","pics2/SA1.jpg","","","75","SA","","","","","","","","","",""
"image-slider-response","71","246024","0.0-15.0-0.0-0.11","2036","pics2/SA6.jpg","","","100","SA","","","","","","","","","",""
"image-slider-response","72","247834","0.0-15.0-0.0-0.12","1608","pics2/VE1.jpg","","","77","VE","","","","","","","","","",""
"image-slider-response","73","249828","0.0-15.0-0.0-0.13","1780","pics2/VE3.jpg","","","91","VE","","","","","","","","","",""
"image-slider-response","74","252392","0.0-15.0-0.0-0.14","2362","pics2/SW5.jpg","","","83","SW","","","","","","","","","",""
"image-slider-response","75","254956","0.0-15.0-0.0-0.15","2361","pics2/SW1.jpg","","","66","SW","","","","","","","","","",""
"image-slider-response","76","257374","0.0-15.0-0.0-0.16","2214","pics2/VE4.jpg","","","28","VE","","","","","","","","","",""
"image-slider-response","77","259530","0.0-15.0-0.0-0.17","1953","pics2/FR1.jpg","","","100","FR","","","","","","","","","",""
"image-slider-response","78","261539","0.0-15.0-0.0-0.18","1800","pics2/SA3.jpg","","","31","SA","","","","","","","","","",""
"image-slider-response","79","262950","0.0-15.0-0.0-0.19","1208","pics2/FR6.jpg","","","72","FR","","","","","","","","","",""
"image-slider-response","80","264920","0.0-15.0-0.0-0.20","1767","pics2/SW4.jpg","","","83","SW","","","","","","","","","",""
"image-slider-response","81","266924","0.0-15.0-0.0-0.21","1802","pics2/FR2.jpg","","","100","FR","","","","","","","","","",""
"image-slider-response","82","268502","0.0-15.0-0.0-0.22","1373","pics2/FR5.jpg","","","80","FR","","","","","","","","","",""
"image-slider-response","83","270552","0.0-15.0-0.0-0.23","1837","pics2/FR3.jpg","","","96","FR","","","","","","","","","",""
"call-function","84","270762","0.0-16.0","","","","","","","","","","","","","","","",""
"call-function","85","270769","0.0-17.0","","","","","","","","","","","","","","","",""
"html-button-response","86","283784","0.0-18.0","13014","<div style='width: 900px;'> <font size = 6><b> End of the first rating</b><br><br>","0","","","","","","","","","","","","",""
"html-button-response","87","284760","0.0-19.0","975","<div ><img src='sizeS.png'></img></div><br><div style='text-align: justify; width: 700px'> Using the mouse, rate the <b><i>size</b></i> of the food items <b><i> relative to the white background.</b></i> Right-end of the scale indicates a <i>very large item</i>, which covers a large portion of the white rectangle. Left-end indicates a <i>very tiny</i> item which covers a tiny portion of the white rectangle.<br><br><i><u>Remember</i></u>: everything that is not the white background also contributes to item size (e.g. packing, plates, ect.)<br><br> Please keep in mind that if the accuracy of ratings do not allign well with actual sizes, the experiment will end.  As a result it will be consider incomplete and therefore no payment would be made. Good luck!<br><br></div><br>","0","","","","","","","","","","","","",""
"image-slider-response","88","287100","0.0-20.0-0.0-0.0","2338","pics2/FR4.jpg","","","95","null","","","","","","","","","",""
"image-slider-response","89","289085","0.0-20.0-0.0-0.1","1776","pics2/VE5.jpg","","","81","null","","","","","","","","","",""
"image-slider-response","90","291177","0.0-20.0-0.0-0.2","1881","pics2/VE6.jpg","","","73","null","","","","","","","","","",""
"image-slider-response","91","293363","0.0-20.0-0.0-0.3","1975","pics2/VE2.jpg","","","98","null","","","","","","","","","",""
"image-slider-response","92","295639","0.0-20.0-0.0-0.4","2062","pics2/SW4.jpg","","","99","null","","","","","","","","","",""
"image-slider-response","93","298169","0.0-20.0-0.0-0.5","2318","pics2/SW1.jpg","","","100","null","","","","","","","","","",""
"image-slider-response","94","299787","0.0-20.0-0.0-0.6","1417","pics2/VE3.jpg","","","80","null","","","","","","","","","",""
"image-slider-response","95","301543","0.0-20.0-0.0-0.7","1549","pics2/SW2.jpg","","","90","null","","","","","","","","","",""
"image-slider-response","96","303817","0.0-20.0-0.0-0.8","2070","pics2/SA2.jpg","","","13","null","","","","","","","","","",""
"image-slider-response","97","305803","0.0-20.0-0.0-0.9","1784","pics2/SW6.jpg","","","13","null","","","","","","","","","",""
"image-slider-response","98","308767","0.0-20.0-0.0-0.10","2762","pics2/FR6.jpg","","","37","null","","","","","","","","","",""
"image-slider-response","99","310875","0.0-20.0-0.0-0.11","1906","pics2/SA6.jpg","","","79","null","","","","","","","","","",""
"image-slider-response","100","312925","0.0-20.0-0.0-0.12","1840","pics2/FR2.jpg","","","100","null","","","","","","","","","",""
"image-slider-response","101","314847","0.0-20.0-0.0-0.13","1717","pics2/SW3.jpg","","","77","null","","","","","","","","","",""
"image-slider-response","102","317123","0.0-20.0-0.0-0.14","2074","pics2/FR3.jpg","","","95","null","","","","","","","","","",""
"image-slider-response","103","320719","0.0-20.0-0.0-0.15","3384","pics2/SA1.jpg","","","100","null","","","","","","","","","",""
"image-slider-response","104","323715","0.0-20.0-0.0-0.16","2784","pics2/VE4.jpg","","","22","null","","","","","","","","","",""
"image-slider-response","105","325560","0.0-20.0-0.0-0.17","1641","pics2/FR1.jpg","","","92","null","","","","","","","","","",""
"image-slider-response","106","327522","0.0-20.0-0.0-0.18","1760","pics2/FR5.jpg","","","83","null","","","","","","","","","",""
"image-slider-response","107","329619","0.0-20.0-0.0-0.19","1896","pics2/VE1.jpg","","","83","null","","","","","","","","","",""
"image-slider-response","108","331623","0.0-20.0-0.0-0.20","1803","pics2/SA3.jpg","","","36","null","","","","","","","","","",""
"image-slider-response","109","335315","0.0-20.0-0.0-0.21","3490","pics2/SA4.jpg","","","69","null","","","","","","","","","",""
"image-slider-response","110","338407","0.0-20.0-0.0-0.22","2890","pics2/SW5.jpg","","","100","null","","","","","","","","","",""
"image-slider-response","111","343007","0.0-20.0-0.0-0.23","4395","pics2/SA5.jpg","","","14","null","","","","","","","","","",""
"call-function","112","343211","0.0-21.0","","","","","","","","","","","","","","","",""
"html-button-response","113","344481","0.0-22.0","1270","<div style='width: 900px;'> <font size = 6><b> End of the second rating</b><br><br>","0","","","","","","","","","","","","",""
"pavlovia","114","344489","0.0-23.0","","","","","","","","","","","","","","","",""
"html-keyboard-response","115","349493","0.0-24.0","null","<div style='width: 700px;'> <font size=6><b>SHORT BREAK</font></b><br><br><i> Please wait 5 seconds to continue</i></div> ","","","","","","null","","","","","","","",""
"pavlovia","116","349495","0.0-25.0","","","","","","","","","","","","","","","",""
"html-button-response","117","366267","0.0-26.0","16772","<div style='width: 700px;'>In the main part of the study, you will be choosing between 2 items. When it's time to choose,  this symbol will appear: <br><br><img src='chooseS.png'></img><br><br>Below, a cue will signify the type of choice: </div><br><div style='width: 700px;'><div style='float: left; width: 50%'><img src='heartS.png'></img><p class='small'>Heart cue means you should choose the item you <b><i>prefer</b></i> more.</p></div><div class='float: right; width:50%'><img src='sizeS.png'></img><p class='small'>Size cue means you should choose the <b><i>larger</b></i> item. </p></div></div><br><div style='width: 700px;'>When you click, a green square will appear around the item you chose.<br></div><div><br>","0","","","","","","","","","","","","",""
"image-selector-fb-tut","118","370971","0.0-27.0","3700","0232.jpg,0123.jpg","","","","","","","false","0","","","","","",""
"image-selector-fb-tut","119","374992","0.0-28.0","3011","0232.jpg,0123.jpg","","","","","","","false","0","","","","","",""
"html-button-response","120","379655","0.0-29.0","4662","<div style='width: 900px;'>Your choices should be both <b><i>fast and accurate</b></i>. <br><br>You will have <i>4 seconds</i> to make each choice, which should be enough consider the options and click on one of the items.<br><br>","0","","","","","","","","","","","","",""
"html-button-response","121","389859","0.0-30.0","10204","<div style='width: 900px;'>Additionally, on some choice trials you will see the <b><i>no-choice cue</b></i>: <br><br><img src='noS.png'></img> <br><br>This cue means you can't make any choice. You can examine the items, but  can't click on any of them. Just wait patiently for the cue to dissapear.<br><br>","0","","","","","","","","","","","","",""
"image-selector-fb-tut","122","391870","0.0-31.0","null","0232.jpg,0123.jpg","","","","","","","false","null","","","","","",""
"html-button-response","123","404347","0.0-32.0","12475","<div style='width: 900px;'>After each choice the items will remain on the screen and you will see this symbol: <br><br><img src='judgeS.png'></img> <br><br>This means you should rate<b> the magnitude of the difference</b> between the items using a scale: </div><br><div style='width: 900px; '><div style='float: left; width: 50%; margin-right: 2.5em; align-self:left'><img src='heartS.png'></img><p class='small' style = 'text-align: justify;'>Heart cue means you should rate <b>how much you prefer</b> one of the items over the other. Moving the scale indicator to the left means you prefer the left one; moving it to the right - right one. The more you prefer one of them, the more towards that side you should move the scale indicator. </p></div><div class='float: right; width: 50%; margin-left: 2.5em;'><img src='sizeS.png'></img><p class='small' style='text-align: justify'>Size cue means you should rate <b>how much larger</b> is one of the items over the other. Moving the scale indicator to the left means you think the left is larger; moving it to the right - right one. The greater the difference in size, the more towards that side you should move the scale indicator.</div><br>","0","","","","","","","","","","","","",""
"image-slider-2AFC-tut","124","408151","0.0-33.0","3803","","","","11","","","","","","2619","11","","","",""
"image-slider-2AFC-tut","125","413815","0.0-34.0","5662","","","","5","","","","","","4748","5","","","",""
"html-button-response","126","425287","0.0-35.0","11472","<br><br><font size = 36><b> Examples </b></font><br><br><i> 1) I would like to eat some croissants a <b>lot more</b> than doritos right now:</i><br><img src='ex1.PNG', width='62%'></img><br><br><br><i> 2) I would like to eat some doritos a <b>bit more</b> than croissants right now, but just slightly:</i><br><img src='ex2.PNG' width='62%'></img>","0","","","","","","","","","","","","",""
"html-button-response","127","428147","0.0-36.0","2859","<div style='width: 900px;'><i>Now you know everything you need to do the task!</i> <br><br>Let's start by doing a <b>short training</b>, so you'll get used to how it works. </div><br>","0","","","","","","","","","","","","",""
"image-selector-fb","128","431919","0.0-37.0-0.0","3260","pics2/SA3.jpg,pics2/SA5.jpg","","","","","","","true","1","","","heartS.png","","",""
"image-slider-2AFC","129","435829","0.0-37.0-1.0","3908","","","","66","","","","","","","","heartS.png","3076","66",""
"html-keyboard-response","130","436531","0.0-37.0-2.0","null","","","","","","","null","","","","","","","",""
"image-selector-fb","131","439624","0.0-37.1-0.1","2589","pics2/FR5.jpg,pics2/SW2.jpg","","","","","","","true","1","","","sizeS.png","","",""
"image-slider-2AFC","132","442279","0.0-37.1-1.1","2653","","","","82","","","","","","","","sizeS.png","1292","82",""
"html-keyboard-response","133","443047","0.0-37.1-2.1","null","","","","","","","null","","","","","","","",""
"image-selector-fb","134","446060","0.0-37.2-0.2","null","pics2/VE4.jpg,pics2/SW2.jpg","","","","","","","false","null","","","noS.png","","",""
"image-slider-2AFC","135","449305","0.0-37.2-1.2","3243","","","","86","","","","","","","","sizeS.png","2604","86",""
"html-keyboard-response","136","450113","0.0-37.2-2.2","null","","","","","","","null","","","","","","","",""
"image-selector-fb","137","453130","0.0-37.3-0.3","null","pics2/VE6.jpg,pics2/VE5.jpg","","","","","","","false","null","","","noS.png","","",""
"image-slider-2AFC","138","456383","0.0-37.3-1.3","3250","","","","-64","","","","","","","","sizeS.png","2481","-64",""
"html-keyboard-response","139","457095","0.0-37.3-2.3","null","","","","","","","null","","","","","","","",""
"image-selector-fb","140","460099","0.0-37.4-0.4","null","pics2/VE6.jpg,pics2/SW6.jpg","","","","","","","false","null","","","noS.png","","",""
"image-slider-2AFC","141","464129","0.0-37.4-1.4","4029","","","","76","","","","","","","","heartS.png","3118","76",""
"html-keyboard-response","142","465010","0.0-37.4-2.4","null","","","","","","","null","","","","","","","",""
"image-selector-fb","143","468032","0.0-37.5-0.5","null","pics2/VE6.jpg,pics2/SA5.jpg","","","","","","","false","null","","","noS.png","","",""
"image-slider-2AFC","144","469611","0.0-37.5-1.5","1577","","","","57","","","","","","","","heartS.png","935","57",""
"html-keyboard-response","145","470332","0.0-37.5-2.5","null","","","","","","","null","","","","","","","",""
"image-selector-fb","146","474849","0.0-37.6-0.6","null","pics2/SW4.jpg,pics2/SA5.jpg","","","","","","","false","null","","","heartS.png","","",""
"image-slider-2AFC","147","474849","0.0-37.6-1.6","null","","","","null","","","","","","","","heartS.png","","",""
"html-keyboard-response","148","475565","0.0-37.6-2.6","null","","","","","","","null","","","","","","","",""
"image-selector-fb","149","476429","0.0-37.7-0.7","357","pics2/SW4.jpg,pics2/SA1.jpg","","","","","","","true","1","","","heartS.png","","",""
"image-slider-2AFC","150","481011","0.0-37.7-1.7","4581","","","","70","","","","","","","","sizeS.png","2587,3875","-61,70",""
"html-keyboard-response","151","481813","0.0-37.7-2.7","null","","","","","","","null","","","","","","","",""
"image-selector-fb","152","483434","0.0-37.8-0.8","1119","pics2/SW1.jpg,pics2/SW4.jpg","","","","","","","true","1","","","sizeS.png","","",""
"image-slider-2AFC","153","486361","0.0-37.8-1.8","2926","","","","75","","","","","","","","heartS.png","764","75",""
"html-keyboard-response","154","487229","0.0-37.8-2.8","null","","","","","","","null","","","","","","","",""
"image-selector-fb","155","489037","0.0-37.9-0.9","1303","pics2/SA3.jpg,pics2/SW2.jpg","","","","","","","true","1","","","heartS.png","","",""
"image-slider-2AFC","156","490705","0.0-37.9-1.9","1667","","","","59","","","","","","","","heartS.png","929","59",""
"html-keyboard-response","157","491474","0.0-37.9-2.9","null","","","","","","","null","","","","","","","",""
"image-selector-fb","158","493914","0.0-37.10-0.10","1938","pics2/SW1.jpg,pics2/VE1.jpg","","","","","","","false","0","","","sizeS.png","","",""
"image-slider-2AFC","159","497987","0.0-37.10-1.10","4072","","","","19","","","","","","","","heartS.png","3334","19",""
"html-keyboard-response","160","498806","0.0-37.10-2.10","null","","","","","","","null","","","","","","","",""
"image-selector-fb","161","500874","0.0-37.11-0.11","1560","pics2/VE1.jpg,pics2/VE4.jpg","","","","","","","true","1","","","heartS.png","","",""
"image-slider-2AFC","162","503291","0.0-37.11-1.11","2416","","","","56","","","","","","","","sizeS.png","838","56",""
"html-keyboard-response","163","504043","0.0-37.11-2.11","null","","","","","","","null","","","","","","","",""
"html-button-response","164","505229","0.0-38.0","1185","<i><font size=10>Good job!</font></i> <br><br>Before we begin, you have a chance to review the rules, in case something was not clear.<br><br>","0","","","","","","","","","","","","",""
"instructions","165","516177","0.0-39.0","10947","","","","","","","","","","","","","","","[{""page_index"":0,""viewing_time"":6619},{""page_index"":1,""viewing_time"":3118},{""page_index"":2,""viewing_time"":1210}]"
"html-button-response","166","519917","0.0-40.0","3739","<div style='width: 900px;'> <font size='40'>Great! Now you're ready to begin</font><br><br>The main part of the experiment will consist of <u>3 blocks</u>. Each block consists of 66 decisions and judgements. You will have time for a short break between blocks.<br><br><br><i><u>Do your best to respond within the time limit.</u></i><br><br><i> Press the button to start the experiment<br><br></i>","0","","","","","","","","","","","","",""
"image-selector-fb","167","522846","0.0-41.0-0.0","2426","pics2/FR6.jpg,pics2/SA4.jpg","","","","","","","true","1","","","sizeS.png","","",""
"image-slider-2AFC","168","525533","0.0-41.0-1.0","2686","","","","66","","","","","","","","heartS.png","1372","66",""
"html-keyboard-response","169","526399","0.0-41.0-2.0","null","","","","","","","null","","","","","","","",""
"image-selector-fb","170","529421","0.0-41.1-0.1","null","pics2/FR1.jpg,pics2/SW5.jpg","","","","","","","false","null","","","noS.png","","",""
"image-slider-2AFC","171","532081","0.0-41.1-1.1","2659","","","","-63","","","","","","","","heartS.png","2019","-63",""
"html-keyboard-response","172","532896","0.0-41.1-2.1","null","","","","","","","null","","","","","","","",""
"image-selector-fb","173","535908","0.0-41.2-0.2","null","pics2/VE2.jpg,pics2/SA4.jpg","","","","","","","false","null","","","noS.png","","",""
"image-slider-2AFC","174","538383","0.0-41.2-1.2","2474","","","","65","","","","","","","","heartS.png","1832","65",""
"html-keyboard-response","175","539252","0.0-41.2-2.2","null","","","","","","","null","","","","","","","",""
"image-selector-fb","176","541216","0.0-41.3-0.3","1462","pics2/FR3.jpg,pics2/SA2.jpg","","","","","","","false","0","","","heartS.png","","",""
"image-slider-2AFC","177","542973","0.0-41.3-1.3","1756","","","","-64","","","","","","","","heartS.png","940","-64",""
"html-keyboard-response","178","543781","0.0-41.3-2.3","null","","","","","","","null","","","","","","","",""
"image-selector-fb","179","546795","0.0-41.4-0.4","null","pics2/VE2.jpg,pics2/FR2.jpg","","","","","","","false","null","","","noS.png","","",""
"image-slider-2AFC","180","549551","0.0-41.4-1.4","2755","","","","67","","","","","","","","sizeS.png","2083","67",""
"html-keyboard-response","181","550267","0.0-41.4-2.4","null","","","","","","","null","","","","","","","",""
"image-selector-fb","182","553122","0.0-41.5-0.5","2353","pics2/VE3.jpg,pics2/SA6.jpg","","","","","","","false","0","","","heartS.png","","",""
"image-slider-2AFC","183","555569","0.0-41.5-1.5","2446","","","","-59","","","","","","","","sizeS.png","1628","-59",""
"html-keyboard-response","184","556422","0.0-41.5-2.5","null","","","","","","","null","","","","","","","",""
"image-selector-fb","185","559442","0.0-41.6-0.6","null","pics2/SA2.jpg,pics2/SW5.jpg","","","","","","","false","null","","","noS.png","","",""
"image-slider-2AFC","186","561977","0.0-41.6-1.6","2534","","","","47","","","","","","","","heartS.png","1956","47",""
"html-keyboard-response","187","562831","0.0-41.6-2.6","null","","","","","","","null","","","","","","","",""
"image-selector-fb","188","564890","0.0-41.7-0.7","1556","pics2/FR2.jpg,pics2/VE3.jpg","","","","","","","false","0","","","sizeS.png","","",""
"image-slider-2AFC","189","567137","0.0-41.7-1.7","2246","","","","-61","","","","","","","","sizeS.png","1364","-61",""
"html-keyboard-response","190","567896","0.0-41.7-2.7","null","","","","","","","null","","","","","","","",""
"image-selector-fb","191","569873","0.0-41.8-0.8","1474","pics2/FR1.jpg,pics2/SW5.jpg","","","","","","","false","0","","","sizeS.png","","",""
"image-slider-2AFC","192","571871","0.0-41.8-1.8","1997","","","","-83","","","","","","","","sizeS.png","1211","-83",""
"html-keyboard-response","193","572636","0.0-41.8-2.8","null","","","","","","","null","","","","","","","",""
"image-selector-fb","194","574710","0.0-41.9-0.9","1572","pics2/FR4.jpg,pics2/SW5.jpg","","","","","","","true","1","","","sizeS.png","","",""
"image-slider-2AFC","195","576485","0.0-41.9-1.9","1774","","","","91","","","","","","","","sizeS.png","1020","91",""
"html-keyboard-response","196","577190","0.0-41.9-2.9","null","","","","","","","null","","","","","","","",""
"image-selector-fb","197","578979","0.0-41.10-0.10","1282","pics2/FR2.jpg,pics2/SA6.jpg","","","","","","","false","0","","","sizeS.png","","",""
"image-slider-2AFC","198","580923","0.0-41.10-1.10","1943","","","","-67","","","","","","","","sizeS.png","1031","-67",""
"html-keyboard-response","199","581686","0.0-41.10-2.10","null","","","","","","","null","","","","","","","",""
"image-selector-fb","200","584870","0.0-41.11-0.11","2682","pics2/SW5.jpg,pics2/SW3.jpg","","","","","","","false","0","","","heartS.png","","",""
"image-slider-2AFC","201","586587","0.0-41.11-1.11","1716","","","","73","","","","","","","","heartS.png","1172","73",""
"html-keyboard-response","202","587358","0.0-41.11-2.11","null","","","","","","","null","","","","","","","",""
"image-selector-fb","203","589533","0.0-41.12-0.12","1672","pics2/FR4.jpg,pics2/VE3.jpg","","","","","","","true","1","","","sizeS.png","","",""
"image-slider-2AFC","204","590889","0.0-41.12-1.12","1356","","","","65","","","","","","","","heartS.png","844","65",""
"html-keyboard-response","205","591768","0.0-41.12-2.12","null","","","","","","","null","","","","","","","",""
"image-selector-fb","206","594780","0.0-41.13-0.13","2510","pics2/VE3.jpg,pics2/SA2.jpg","","","","","","","false","0","","","heartS.png","","",""
"image-slider-2AFC","207","596747","0.0-41.13-1.13","1966","","","","-53","","","","","","","","heartS.png","1324","-53",""
"html-keyboard-response","208","597607","0.0-41.13-2.13","null","","","","","","","null","","","","","","","",""
"image-selector-fb","209","599042","0.0-41.14-0.14","933","pics2/VE3.jpg,pics2/SA4.jpg","","","","","","","true","1","","","heartS.png","","",""
"image-slider-2AFC","210","600671","0.0-41.14-1.14","1628","","","","98","","","","","","","","sizeS.png","1036","98",""
"html-keyboard-response","211","601538","0.0-41.14-2.14","null","","","","","","","null","","","","","","","",""
"image-selector-fb","212","604882","0.0-41.15-0.15","2842","pics2/SA4.jpg,pics2/SA2.jpg","","","","","","","false","0","","","heartS.png","","",""
"image-slider-2AFC","213","608611","0.0-41.15-1.15","3728","","","","80","","","","","","","","sizeS.png","3086","80",""
"html-keyboard-response","214","609469","0.0-41.15-2.15","null","","","","","","","null","","","","","","","",""
"image-selector-fb","215","612475","0.0-41.16-0.16","null","pics2/VE2.jpg,pics2/FR3.jpg","","","","","","","false","null","","","noS.png","","",""
"image-slider-2AFC","216","614939","0.0-41.16-1.16","2463","","","","-69","","","","","","","","sizeS.png","1615","-69",""
"html-keyboard-response","217","615652","0.0-41.16-2.16","null","","","","","","","null","","","","","","","",""
"image-selector-fb","218","618060","0.0-41.17-0.17","1906","pics2/VE3.jpg,pics2/FR6.jpg","","","","","","","true","1","","","heartS.png","","",""
"image-slider-2AFC","219","620339","0.0-41.17-1.17","2278","","","","75","","","","","","","","heartS.png","1414","75",""
"html-keyboard-response","220","621201","0.0-41.17-2.17","null","","","","","","","null","","","","","","","",""
"image-selector-fb","221","623356","0.0-41.18-0.18","1652","pics2/VE3.jpg,pics2/FR3.jpg","","","","","","","false","0","","","heartS.png","","",""
"image-slider-2AFC","222","625171","0.0-41.18-1.18","1814","","","","-45","","","","","","","","heartS.png","1060","-45",""
"html-keyboard-response","223","625986","0.0-41.18-2.18","null","","","","","","","null","","","","","","","",""
"image-selector-fb","224","627938","0.0-41.19-0.19","1450","pics2/SA4.jpg,pics2/FR1.jpg","","","","","","","true","1","","","sizeS.png","","",""
"image-slider-2AFC","225","629505","0.0-41.19-1.19","1566","","","","81","","","","","","","","sizeS.png","892","81",""
"html-keyboard-response","226","630257","0.0-41.19-2.19","null","","","","","","","null","","","","","","","",""
"image-selector-fb","227","632264","0.0-41.20-0.20","1505","pics2/SW5.jpg,pics2/FR3.jpg","","","","","","","true","1","","","heartS.png","","",""
"image-slider-2AFC","228","633783","0.0-41.20-1.20","1518","","","","84","","","","","","","","heartS.png","940","84",""
"html-keyboard-response","229","634491","0.0-41.20-2.20","null","","","","","","","null","","","","","","","",""
"image-selector-fb","230","636263","0.0-41.21-0.21","1269","pics2/VE2.jpg,pics2/SA6.jpg","","","","","","","false","0","","","sizeS.png","","",""
"image-slider-2AFC","231","639253","0.0-41.21-1.21","2989","","","","-46","","","","","","","","heartS.png","2285","-46",""
"html-keyboard-response","232","640030","0.0-41.21-2.21","null","","","","","","","null","","","","","","","",""
"image-selector-fb","233","642142","0.0-41.22-0.22","1609","pics2/SA2.jpg,pics2/SW3.jpg","","","","","","","true","1","","","heartS.png","","",""
"image-slider-2AFC","234","644781","0.0-41.22-1.22","2638","","","","72","","","","","","","","sizeS.png","1804","72",""
"html-keyboard-response","235","645646","0.0-41.22-2.22","null","","","","","","","null","","","","","","","",""
"image-selector-fb","236","648640","0.0-41.23-0.23","2482","pics2/SA2.jpg,pics2/FR1.jpg","","","","","","","true","1","","","sizeS.png","","",""
"image-slider-2AFC","237","650381","0.0-41.23-1.23","1740","","","","64","","","","","","","","sizeS.png","986","64",""
"html-keyboard-response","238","651144","0.0-41.23-2.23","null","","","","","","","null","","","","","","","",""
"image-selector-fb","239","653237","0.0-41.24-0.24","1590","pics2/VE2.jpg,pics2/FR2.jpg","","","","","","","true","1","","","heartS.png","","",""
"image-slider-2AFC","240","654891","0.0-41.24-1.24","1654","","","","71","","","","","","","","heartS.png","980","71",""
"html-keyboard-response","241","655655","0.0-41.24-2.24","null","","","","","","","null","","","","","","","",""
"image-selector-fb","242","657290","0.0-41.25-0.25","1133","pics2/VE3.jpg,pics2/FR1.jpg","","","","","","","true","1","","","heartS.png","","",""
"image-slider-2AFC","243","658559","0.0-41.25-1.25","1267","","","","80","","","","","","","","heartS.png","660","80",""
"html-keyboard-response","244","659334","0.0-41.25-2.25","null","","","","","","","null","","","","","","","",""
"image-selector-fb","245","660920","0.0-41.26-0.26","1084","pics2/FR6.jpg,pics2/FR4.jpg","","","","","","","true","1","","","heartS.png","","",""
"image-slider-2AFC","246","662997","0.0-41.26-1.26","2076","","","","94","","","","","","","","heartS.png","666","94",""
"html-keyboard-response","247","663768","0.0-41.26-2.26","null","","","","","","","null","","","","","","","",""
"image-selector-fb","248","668178","0.0-41.27-0.27","3908","pics2/FR6.jpg,pics2/SA2.jpg","","","","","","","false","0","","","sizeS.png","","",""
"image-slider-2AFC","249","670223","0.0-41.27-1.27","2044","","","","-63","","","","","","","","sizeS.png","956","-63",""
"html-keyboard-response","250","671081","0.0-41.27-2.27","null","","","","","","","null","","","","","","","",""
"image-selector-fb","251","674088","0.0-41.28-0.28","null","pics2/VE3.jpg,pics2/SW5.jpg","","","","","","","false","null","","","noS.png","","",""
"image-slider-2AFC","252","677041","0.0-41.28-1.28","2952","","","","60","","","","","","","","sizeS.png","2264","60",""
"html-keyboard-response","253","677815","0.0-41.28-2.28","null","","","","","","","null","","","","","","","",""
"image-selector-fb","254","680043","0.0-41.29-0.29","1724","pics2/FR6.jpg,pics2/VE2.jpg","","","","","","","true","1","","","sizeS.png","","",""
"image-slider-2AFC","255","682121","0.0-41.29-1.29","2077","","","","51","","","","","","","","heartS.png","1596","51",""
"html-keyboard-response","256","682986","0.0-41.29-2.29","null","","","","","","","null","","","","","","","",""
"image-selector-fb","257","685992","0.0-41.30-0.30","null","pics2/FR3.jpg,pics2/SW3.jpg","","","","","","","false","null","","","noS.png","","",""
"image-slider-2AFC","258","689483","0.0-41.30-1.30","3489","","","","78","","","","","","","","heartS.png","2768","78",""
"html-keyboard-response","259","690248","0.0-41.30-2.30","null","","","","","","","null","","","","","","","",""
"image-selector-fb","260","692420","0.0-41.31-0.31","1669","pics2/SA2.jpg,pics2/SA4.jpg","","","","","","","true","1","","","sizeS.png","","",""
"image-slider-2AFC","261","696677","0.0-41.31-1.31","4255","","","","43","","","","","","","","heartS.png","3358","43",""
"html-keyboard-response","262","697445","0.0-41.31-2.31","null","","","","","","","null","","","","","","","",""
"image-selector-fb","263","699471","0.0-41.32-0.32","1514","pics2/FR6.jpg,pics2/FR1.jpg","","","","","","","true","1","","","sizeS.png","","",""
"image-slider-2AFC","264","701877","0.0-41.32-1.32","2404","","","","69","","","","","","","","sizeS.png","1683","69",""
"html-keyboard-response","265","702631","0.0-41.32-2.32","null","","","","","","","null","","","","","","","",""
"image-selector-fb","266","704275","0.0-41.33-0.33","1126","pics2/FR3.jpg,pics2/FR4.jpg","","","","","","","false","0","","","heartS.png","","",""
"image-slider-2AFC","267","708885","0.0-41.33-1.33","4608","","","","-60","","","","","","","","sizeS.png","1245","-60",""
"html-keyboard-response","268","709602","0.0-41.33-2.33","null","","","","","","","null","","","","","","","",""
"image-selector-fb","269","712605","0.0-41.34-0.34","null","pics2/VE2.jpg,pics2/FR1.jpg","","","","","","","false","null","","","noS.png","","",""
"image-slider-2AFC","270","715313","0.0-41.34-1.34","2706","","","","59","","","","","","","","sizeS.png","2147","59",""
"html-keyboard-response","271","716029","0.0-41.34-2.34","null","","","","","","","null","","","","","","","",""
"image-selector-fb","272","719043","0.0-41.35-0.35","null","pics2/SA6.jpg,pics2/FR1.jpg","","","","","","","false","null","","","noS.png","","",""
"image-slider-2AFC","273","721709","0.0-41.35-1.35","2664","","","","61","","","","","","","","heartS.png","1927","61",""
"html-keyboard-response","274","722526","0.0-41.35-2.35","null","","","","","","","null","","","","","","","",""
"image-selector-fb","275","724485","0.0-41.36-0.36","1455","pics2/SW3.jpg,pics2/FR6.jpg","","","","","","","false","0","","","heartS.png","","",""
"image-slider-2AFC","276","726099","0.0-41.36-1.36","1612","","","","-65","","","","","","","","heartS.png","1002","-65",""
"html-keyboard-response","277","726801","0.0-41.36-2.36","null","","","","","","","null","","","","","","","",""
"image-selector-fb","278","729924","0.0-41.37-0.37","2620","pics2/VE2.jpg,pics2/FR3.jpg","","","","","","","true","1","","","sizeS.png","","",""
"image-slider-2AFC","279","731729","0.0-41.37-1.37","1803","","","","65","","","","","","","","sizeS.png","1099","65",""
"html-keyboard-response","280","732483","0.0-41.37-2.37","null","","","","","","","null","","","","","","","",""
"image-selector-fb","281","734266","0.0-41.38-0.38","1272","pics2/FR2.jpg,pics2/SA4.jpg","","","","","","","false","0","","","sizeS.png","","",""
"image-slider-2AFC","282","736921","0.0-41.38-1.38","2653","","","","-55","","","","","","","","sizeS.png","1934","-55",""
"html-keyboard-response","283","737678","0.0-41.38-2.38","null","","","","","","","null","","","","","","","",""
"image-selector-fb","284","739363","0.0-41.39-0.39","1181","pics2/SA6.jpg,pics2/VE3.jpg","","","","","","","true","1","","","sizeS.png","","",""
"image-slider-2AFC","285","740959","0.0-41.39-1.39","1594","","","","61","","","","","","","","sizeS.png","987","61",""
"html-keyboard-response","286","741764","0.0-41.39-2.39","null","","","","","","","null","","","","","","","",""
"image-selector-fb","287","744766","0.0-41.40-0.40","null","pics2/FR2.jpg,pics2/SW3.jpg","","","","","","","false","null","","","noS.png","","",""
"image-slider-2AFC","288","746237","0.0-41.40-1.40","1469","","","","-58","","","","","","","","sizeS.png","909","-58",""
"html-keyboard-response","289","747041","0.0-41.40-2.40","null","","","","","","","null","","","","","","","",""
"image-selector-fb","290","749697","0.0-41.41-0.41","2152","pics2/FR3.jpg,pics2/VE2.jpg","","","","","","","false","0","","","heartS.png","","",""
"image-slider-2AFC","291","752375","0.0-41.41-1.41","2676","","","","61","","","","","","","","sizeS.png","1619","61",""
"html-keyboard-response","292","753247","0.0-41.41-2.41","null","","","","","","","null","","","","","","","",""
"image-selector-fb","293","755216","0.0-41.42-0.42","1458","pics2/SA4.jpg,pics2/VE3.jpg","","","","","","","true","1","","","sizeS.png","","",""
"image-slider-2AFC","294","757453","0.0-41.42-1.42","2235","","","","-66","","","","","","","","heartS.png","1548","-66",""
"html-keyboard-response","295","758156","0.0-41.42-2.42","null","","","","","","","null","","","","","","","",""
"image-selector-fb","296","761167","0.0-41.43-0.43","null","pics2/SA2.jpg,pics2/FR3.jpg","","","","","","","false","null","","","noS.png","","",""
"image-slider-2AFC","297","765217","0.0-41.43-1.43","4048","","","","64","","","","","","","","sizeS.png","3296","64",""
"html-keyboard-response","298","766018","0.0-41.43-2.43","null","","","","","","","null","","","","","","","",""
"image-selector-fb","299","768307","0.0-41.44-0.44","1777","pics2/VE3.jpg,pics2/SW3.jpg","","","","","","","true","1","","","heartS.png","","",""
"image-slider-2AFC","300","770249","0.0-41.44-1.44","1940","","","","57","","","","","","","","heartS.png","1250","57",""
"html-keyboard-response","301","770966","0.0-41.44-2.44","null","","","","","","","null","","","","","","","",""
"image-selector-fb","302","773983","0.0-41.45-0.45","null","pics2/SA2.jpg,pics2/FR2.jpg","","","","","","","false","null","","","noS.png","","",""
"image-slider-2AFC","303","777042","0.0-41.45-1.45","3058","","","","58","","","","","","","","sizeS.png","2114","58",""
"html-keyboard-response","304","777858","0.0-41.45-2.45","null","","","","","","","null","","","","","","","",""
"image-selector-fb","305","779371","0.0-41.46-0.46","1010","pics2/SA4.jpg,pics2/FR2.jpg","","","","","","","true","1","","","heartS.png","","",""
"image-slider-2AFC","306","781578","0.0-41.46-1.46","2206","","","","76","","","","","","","","heartS.png","1100","76",""
"html-keyboard-response","307","782335","0.0-41.46-2.46","null","","","","","","","null","","","","","","","",""
"image-selector-fb","308","785352","0.0-41.47-0.47","null","pics2/FR2.jpg,pics2/FR1.jpg","","","","","","","false","null","","","noS.png","","",""
"image-slider-2AFC","309","788534","0.0-41.47-1.47","3181","","","","74","","","","","","","","heartS.png","2571","74",""
"html-keyboard-response","310","789295","0.0-41.47-2.47","null","","","","","","","null","","","","","","","",""
"image-selector-fb","311","792008","0.0-41.48-0.48","2210","pics2/FR1.jpg,pics2/SA4.jpg","","","","","","","true","1","","","heartS.png","","",""
"image-slider-2AFC","312","794638","0.0-41.48-1.48","2629","","","","61","","","","","","","","heartS.png","1587","61",""
"html-keyboard-response","313","795440","0.0-41.48-2.48","null","","","","","","","null","","","","","","","",""
"image-selector-fb","314","797424","0.0-41.49-0.49","1481","pics2/VE3.jpg,pics2/SW5.jpg","","","","","","","false","0","","","sizeS.png","","",""
"image-slider-2AFC","315","800102","0.0-41.49-1.49","2678","","","","-70","","","","","","","","heartS.png","1988","-70",""
"html-keyboard-response","316","800965","0.0-41.49-2.49","null","","","","","","","null","","","","","","","",""
"image-selector-fb","317","803593","0.0-41.50-0.50","2124","pics2/FR2.jpg,pics2/FR4.jpg","","","","","","","false","0","","","heartS.png","","",""
"image-slider-2AFC","318","806720","0.0-41.50-1.50","3126","","","","78","","","","","","","","sizeS.png","2312","78",""
"html-keyboard-response","319","807435","0.0-41.50-2.50","null","","","","","","","null","","","","","","","",""
"image-selector-fb","320","808969","0.0-41.51-0.51","1032","pics2/FR6.jpg,pics2/SW3.jpg","","","","","","","true","1","","","sizeS.png","","",""
"image-slider-2AFC","321","810798","0.0-41.51-1.51","1827","","","","64","","","","","","","","sizeS.png","1267","64",""
"html-keyboard-response","322","811608","0.0-41.51-2.51","null","","","","","","","null","","","","","","","",""
"image-selector-fb","323","812829","0.0-41.52-0.52","719","pics2/SW5.jpg,pics2/FR1.jpg","","","","","","","true","1","","","heartS.png","","",""
"image-slider-2AFC","324","814362","0.0-41.52-1.52","1532","","","","66","","","","","","","","heartS.png","940","66",""
"html-keyboard-response","325","815123","0.0-41.52-2.52","null","","","","","","","null","","","","","","","",""
"image-selector-fb","326","816577","0.0-41.53-0.53","938","pics2/SA6.jpg,pics2/FR3.jpg","","","","","","","true","1","","","sizeS.png","","",""
"image-slider-2AFC","327","818336","0.0-41.53-1.53","1757","","","","51","","","","","","","","heartS.png","1342","51",""
"html-keyboard-response","328","819056","0.0-41.53-2.53","null","","","","","","","null","","","","","","","",""
"image-selector-fb","329","821017","0.0-41.54-0.54","1459","pics2/SW3.jpg,pics2/SA4.jpg","","","","","","","false","0","","","sizeS.png","","",""
"image-slider-2AFC","330","822952","0.0-41.54-1.54","1934","","","","-68","","","","","","","","sizeS.png","1310","-68",""
"html-keyboard-response","331","823824","0.0-41.54-2.54","null","","","","","","","null","","","","","","","",""
"image-selector-fb","332","825285","0.0-41.55-0.55","953","pics2/FR3.jpg,pics2/FR6.jpg","","","","","","","true","1","","","heartS.png","","",""
"image-slider-2AFC","333","827174","0.0-41.55-1.55","1888","","","","61","","","","","","","","heartS.png","1230","61",""
"html-keyboard-response","334","827980","0.0-41.55-2.55","null","","","","","","","null","","","","","","","",""
"image-selector-fb","335","830989","0.0-41.56-0.56","null","pics2/FR4.jpg,pics2/SA4.jpg","","","","","","","false","null","","","noS.png","","",""
"image-slider-2AFC","336","835523","0.0-41.56-1.56","4532","","","","-58","","","","","","","","sizeS.png","3829","-58",""
"html-keyboard-response","337","836383","0.0-41.56-2.56","null","","","","","","","null","","","","","","","",""
"image-selector-fb","338","839399","0.0-41.57-0.57","null","pics2/FR4.jpg,pics2/SA2.jpg","","","","","","","false","null","","","noS.png","","",""
"image-slider-2AFC","339","841731","0.0-41.57-1.57","2330","","","","-65","","","","","","","","sizeS.png","1738","-65",""
"html-keyboard-response","340","842543","0.0-41.57-2.57","null","","","","","","","null","","","","","","","",""
"image-selector-fb","341","845561","0.0-41.58-0.58","null","pics2/FR2.jpg,pics2/FR6.jpg","","","","","","","false","null","","","noS.png","","",""
"image-slider-2AFC","342","849257","0.0-41.58-1.58","3694","","","","-47","","","","","","","","heartS.png","2878","-47",""
"html-keyboard-response","343","850009","0.0-41.58-2.58","null","","","","","","","null","","","","","","","",""
"image-selector-fb","344","853027","0.0-41.59-0.59","null","pics2/FR2.jpg,pics2/FR3.jpg","","","","","","","false","null","","","noS.png","","",""
"image-slider-2AFC","345","855741","0.0-41.59-1.59","2712","","","","-64","","","","","","","","heartS.png","1896","-64",""
"html-keyboard-response","346","856498","0.0-41.59-2.59","null","","","","","","","null","","","","","","","",""
"image-selector-fb","347","859515","0.0-41.60-0.60","null","pics2/VE2.jpg,pics2/SA2.jpg","","","","","","","false","null","","","noS.png","","",""
"image-slider-2AFC","348","862313","0.0-41.60-1.60","2796","","","","-57","","","","","","","","heartS.png","2154","-57",""
"html-keyboard-response","349","863034","0.0-41.60-2.60","null","","","","","","","null","","","","","","","",""
"image-selector-fb","350","866046","0.0-41.61-0.61","null","pics2/FR1.jpg,pics2/SW3.jpg","","","","","","","false","null","","","noS.png","","",""
"image-slider-2AFC","351","869035","0.0-41.61-1.61","2987","","","","-58","","","","","","","","heartS.png","1337","-58",""
"html-keyboard-response","352","869754","0.0-41.61-2.61","null","","","","","","","null","","","","","","","",""
"image-selector-fb","353","871900","0.0-41.62-0.62","1643","pics2/SA6.jpg,pics2/FR4.jpg","","","","","","","true","1","","","heartS.png","","",""
"image-slider-2AFC","354","874611","0.0-41.62-1.62","2709","","","","62","","","","","","","","sizeS.png","1219","62",""
"html-keyboard-response","355","875425","0.0-41.62-2.62","null","","","","","","","null","","","","","","","",""
"image-selector-fb","356","878447","0.0-41.63-0.63","null","pics2/FR2.jpg,pics2/VE3.jpg","","","","","","","false","null","","","noS.png","","",""
"image-slider-2AFC","357","882320","0.0-41.63-1.63","3871","","","","-60","","","","","","","","sizeS.png","2845","-60",""
"html-keyboard-response","358","883028","0.0-41.63-2.63","null","","","","","","","null","","","","","","","",""
"image-selector-fb","359","886466","0.0-41.64-0.64","2929","pics2/FR2.jpg,pics2/SA2.jpg","","","","","","","false","0","","","sizeS.png","","",""
"image-slider-2AFC","360","889338","0.0-41.64-1.64","2871","","","","-58","","","","","","","","heartS.png","1637","-58",""
"html-keyboard-response","361","890191","0.0-41.64-2.64","null","","","","","","","null","","","","","","","",""
"image-selector-fb","362","893200","0.0-41.65-0.65","null","pics2/FR6.jpg,pics2/FR3.jpg","","","","","","","false","null","","","noS.png","","",""
"image-slider-2AFC","363","896301","0.0-41.65-1.65","3099","","","","70","","","","","","","","heartS.png","2459","70",""
"html-keyboard-response","364","897166","0.0-41.65-2.65","null","","","","","","","null","","","","","","","",""
"pavlovia","365","897181","0.0-42.0","","","","","","","","","","","","","","","",""
"html-keyboard-response","366","902191","0.0-43.0","null","<div style='width: 700px;'> <font size=6><b>SHORT BREAK</font></b><br><br><i> Please wait 5 seconds to continue</i></div> ","","","","","","null","","","","","","","",""
"pavlovia","367","902192","0.0-44.0","","","","","","","","","","","","","","","",""
"html-button-response","368","906065","0.0-45.0","3871","<div style='width: 700px;'> <font size=6><b>BLOCK 2</font></b><br><br>Press the button whenever you feel ready to start the second block (there are 3 in total)</div>","0","","","","","","","","","","","","",""
"image-selector-fb","369","908000","0.0-46.0-0.0","1432","pics2/FR4.jpg,pics2/VE2.jpg","","","","","","","false","0","","","sizeS.png","","",""
"image-slider-2AFC","370","910846","0.0-46.0-1.0","2845","","","","-67","","","","","","","","heartS.png","2267","-67",""
"html-keyboard-response","371","911561","0.0-46.0-2.0","null","","","","","","","null","","","","","","","",""
"image-selector-fb","372","914579","0.0-46.1-0.1","null","pics2/SW5.jpg,pics2/FR3.jpg","","","","","","","false","null","","","noS.png","","",""
"image-slider-2AFC","373","918064","0.0-46.1-1.1","3484","","","","-63","","","","","","","","sizeS.png","2794","-63",""
"html-keyboard-response","374","918828","0.0-46.1-2.1","null","","","","","","","null","","","","","","","",""
"image-selector-fb","375","921847","0.0-46.2-0.2","null","pics2/SA6.jpg,pics2/SA4.jpg","","","","","","","false","null","","","noS.png","","",""
"image-slider-2AFC","376","925091","0.0-46.2-1.2","3242","","","","93","","","","","","","","sizeS.png","2426","93",""
"html-keyboard-response","377","925895","0.0-46.2-2.2","null","","","","","","","null","","","","","","","",""
"image-selector-fb","378","927340","0.0-46.3-0.3","942","pics2/FR4.jpg,pics2/SA2.jpg","","","","","","","false","0","","","sizeS.png","","",""
"image-slider-2AFC","379","930972","0.0-46.3-1.3","3631","","","","-61","","","","","","","","sizeS.png","3021","-61",""
"html-keyboard-response","380","931846","0.0-46.3-2.3","null","","","","","","","null","","","","","","","",""
"image-selector-fb","381","934870","0.0-46.4-0.4","null","pics2/SW5.jpg,pics2/SA4.jpg","","","","","","","false","null","","","noS.png","","",""
"image-slider-2AFC","382","938098","0.0-46.4-1.4","3227","","","","96","","","","","","","","heartS.png","2649","96",""
"html-keyboard-response","383","938855","0.0-46.4-2.4","null","","","","","","","null","","","","","","","",""
"image-selector-fb","384","941877","0.0-46.5-0.5","null","pics2/VE3.jpg,pics2/FR1.jpg","","","","","","","false","null","","","noS.png","","",""
"image-slider-2AFC","385","944772","0.0-46.5-1.5","2894","","","","65","","","","","","","","heartS.png","2079","65",""
"html-keyboard-response","386","945602","0.0-46.5-2.5","null","","","","","","","null","","","","","","","",""
"image-selector-fb","387","947942","0.0-46.6-0.6","1836","pics2/FR4.jpg,pics2/FR3.jpg","","","","","","","false","0","","","sizeS.png","","",""
"image-slider-2AFC","388","950437","0.0-46.6-1.6","2493","","","","-72","","","","","","","","sizeS.png","1709","-72",""
"html-keyboard-response","389","951242","0.0-46.6-2.6","null","","","","","","","null","","","","","","","",""
"image-selector-fb","390","952590","0.0-46.7-0.7","845","pics2/SA6.jpg,pics2/FR6.jpg","","","","","","","false","0","","","heartS.png","","",""
"image-slider-2AFC","391","955157","0.0-46.7-1.7","2565","","","","-53","","","","","","","","heartS.png","2115","-53",""
"html-keyboard-response","392","955908","0.0-46.7-2.7","null","","","","","","","null","","","","","","","",""
"image-selector-fb","393","957676","0.0-46.8-0.8","1257","pics2/SA2.jpg,pics2/VE3.jpg","","","","","","","true","1","","","sizeS.png","","",""
"image-slider-2AFC","394","960924","0.0-46.8-1.8","3247","","","","43","","","","","","","","heartS.png","1573","43",""
"html-keyboard-response","395","961790","0.0-46.8-2.8","null","","","","","","","null","","","","","","","",""
"image-selector-fb","396","963978","0.0-46.9-0.9","1681","pics2/FR1.jpg,pics2/SA6.jpg","","","","","","","false","0","","","heartS.png","","",""
"image-slider-2AFC","397","965810","0.0-46.9-1.9","1831","","","","-59","","","","","","","","heartS.png","1047","-59",""
"html-keyboard-response","398","966613","0.0-46.9-2.9","null","","","","","","","null","","","","","","","",""
"image-selector-fb","399","968822","0.0-46.10-0.10","1704","pics2/SW5.jpg,pics2/FR6.jpg","","","","","","","false","0","","","heartS.png","","",""
"image-slider-2AFC","400","971026","0.0-46.10-1.10","2203","","","","-53","","","","","","","","heartS.png","1433,1609","-53,-53",""
"html-keyboard-response","401","971791","0.0-46.10-2.10","null","","","","","","","null","","","","","","","",""
"image-selector-fb","402","974572","0.0-46.11-0.11","2278","pics2/SA2.jpg,pics2/SA6.jpg","","","","","","","true","1","","","sizeS.png","","",""
"image-slider-2AFC","403","976296","0.0-46.11-1.11","1723","","","","28","","","","","","","","heartS.png","699","28",""
"html-keyboard-response","404","977104","0.0-46.11-2.11","null","","","","","","","null","","","","","","","",""
"image-selector-fb","405","979506","0.0-46.12-0.12","1899","pics2/FR1.jpg,pics2/VE3.jpg","","","","","","","false","0","","","sizeS.png","","",""
"image-slider-2AFC","406","981656","0.0-46.12-1.12","2149","","","","-65","","","","","","","","heartS.png","1141","-65",""
"html-keyboard-response","407","982467","0.0-46.12-2.12","null","","","","","","","null","","","","","","","",""
"image-selector-fb","408","984386","0.0-46.13-0.13","1416","pics2/FR4.jpg,pics2/FR6.jpg","","","","","","","false","0","","","sizeS.png","","",""
"image-slider-2AFC","409","986848","0.0-46.13-1.13","2461","","","","-69","","","","","","","","sizeS.png","1771","-69",""
"html-keyboard-response","410","987564","0.0-46.13-2.13","null","","","","","","","null","","","","","","","",""
"image-selector-fb","411","990019","0.0-46.14-0.14","1949","pics2/SA4.jpg,pics2/FR6.jpg","","","","","","","false","0","","","heartS.png","","",""
"image-slider-2AFC","412","991934","0.0-46.14-1.14","1914","","","","-67","","","","","","","","sizeS.png","1226","-67",""
"html-keyboard-response","413","992651","0.0-46.14-2.14","null","","","","","","","null","","","","","","","",""
"image-selector-fb","414","995673","0.0-46.15-0.15","null","pics2/FR4.jpg,pics2/VE2.jpg","","","","","","","false","null","","","noS.png","","",""
"image-slider-2AFC","415","997856","0.0-46.15-1.15","2181","","","","-62","","","","","","","","heartS.png","1555","-62",""
"html-keyboard-response","416","998681","0.0-46.15-2.15","null","","","","","","","null","","","","","","","",""
"image-selector-fb","417","1001697","0.0-46.16-0.16","null","pics2/FR1.jpg,pics2/FR6.jpg","","","","","","","false","null","","","noS.png","","",""
"image-slider-2AFC","418","1005698","0.0-46.16-1.16","4000","","","","-79","","","","","","","","sizeS.png","2974","-79",""
"html-keyboard-response","419","1006577","0.0-46.16-2.16","null","","","","","","","null","","","","","","","",""
"image-selector-fb","420","1008899","0.0-46.17-0.17","1820","pics2/SW5.jpg,pics2/VE3.jpg","","","","","","","false","0","","","heartS.png","","",""
"image-slider-2AFC","421","1010858","0.0-46.17-1.17","1958","","","","-69","","","","","","","","sizeS.png","1140","-69",""
"html-keyboard-response","422","1011716","0.0-46.17-2.17","null","","","","","","","null","","","","","","","",""
"image-selector-fb","423","1014728","0.0-46.18-0.18","null","pics2/SA6.jpg,pics2/VE3.jpg","","","","","","","false","null","","","noS.png","","",""
"image-slider-2AFC","424","1019730","0.0-46.18-1.18","null","","","","null","","","","","","","","sizeS.png","4293","71",""
"html-keyboard-response","425","1020543","0.0-46.18-2.18","null","","","","","","","null","","","","","","","",""
"image-selector-fb","426","1023561","0.0-46.19-0.19","null","pics2/FR6.jpg,pics2/SW3.jpg","","","","","","","false","null","","","noS.png","","",""
"image-slider-2AFC","427","1026440","0.0-46.19-1.19","2878","","","","71","","","","","","","","sizeS.png","2142","71",""
"html-keyboard-response","428","1027143","0.0-46.19-2.19","null","","","","","","","null","","","","","","","",""
"image-selector-fb","429","1029522","0.0-46.20-0.20","1876","pics2/FR3.jpg,pics2/SW3.jpg","","","","","","","false","0","","","heartS.png","","",""
"image-slider-2AFC","430","1031072","0.0-46.20-1.20","1549","","","","-54","","","","","","","","heartS.png","971","-54",""
"html-keyboard-response","431","1031794","0.0-46.20-2.20","null","","","","","","","null","","","","","","","",""
"image-selector-fb","432","1033503","0.0-46.21-0.21","1207","pics2/SA6.jpg,pics2/VE2.jpg","","","","","","","true","1","","","heartS.png","","",""
"image-slider-2AFC","433","1036126","0.0-46.21-1.21","2622","","","","48","","","","","","","","sizeS.png","1934","48",""
"html-keyboard-response","434","1036835","0.0-46.21-2.21","null","","","","","","","null","","","","","","","",""
"image-selector-fb","435","1039073","0.0-46.22-0.22","1734","pics2/VE2.jpg,pics2/SA4.jpg","","","","","","","false","0","","","sizeS.png","","",""
"image-slider-2AFC","436","1042672","0.0-46.22-1.22","3597","","","","61","","","","","","","","heartS.png","1209,3005","-48,61",""
"html-keyboard-response","437","1043502","0.0-46.22-2.22","null","","","","","","","null","","","","","","","",""
"image-selector-fb","438","1046324","0.0-46.23-0.23","2319","pics2/FR3.jpg,pics2/SW5.jpg","","","","","","","true","1","","","sizeS.png","","",""
"image-slider-2AFC","439","1048128","0.0-46.23-1.23","1804","","","","45","","","","","","","","heartS.png","1244","45",""
"html-keyboard-response","440","1048841","0.0-46.23-2.23","null","","","","","","","null","","","","","","","",""
"image-selector-fb","441","1050327","0.0-46.24-0.24","970","pics2/FR4.jpg,pics2/FR2.jpg","","","","","","","true","1","","","sizeS.png","","",""
"image-slider-2AFC","442","1054360","0.0-46.24-1.24","4032","","","","51","","","","","","","","heartS.png","2944","51",""
"html-keyboard-response","443","1055225","0.0-46.24-2.24","null","","","","","","","null","","","","","","","",""
"image-selector-fb","444","1058245","0.0-46.25-0.25","null","pics2/VE3.jpg,pics2/FR6.jpg","","","","","","","false","null","","","noS.png","","",""
"image-slider-2AFC","445","1061708","0.0-46.25-1.25","3462","","","","63","","","","","","","","heartS.png","2660","63",""
"html-keyboard-response","446","1062469","0.0-46.25-2.25","null","","","","","","","null","","","","","","","",""
"image-selector-fb","447","1065487","0.0-46.26-0.26","null","pics2/FR4.jpg,pics2/VE3.jpg","","","","","","","false","null","","","noS.png","","",""
"image-slider-2AFC","448","1068430","0.0-46.26-1.26","2942","","","","-72","","","","","","","","sizeS.png","2174","-72",""
"html-keyboard-response","449","1069240","0.0-46.26-2.26","null","","","","","","","null","","","","","","","",""
"image-selector-fb","450","1072261","0.0-46.27-0.27","null","pics2/VE3.jpg,pics2/SW3.jpg","","","","","","","false","null","","","noS.png","","",""
"image-slider-2AFC","451","1074490","0.0-46.27-1.27","2228","","","","65","","","","","","","","sizeS.png","1554","65",""
"html-keyboard-response","452","1075355","0.0-46.27-2.27","null","","","","","","","null","","","","","","","",""
"image-selector-fb","453","1077170","0.0-46.28-0.28","1312","pics2/FR2.jpg,pics2/FR6.jpg","","","","","","","false","0","","","heartS.png","","",""
"image-slider-2AFC","454","1079040","0.0-46.28-1.28","1868","","","","-54","","","","","","","","heartS.png","1322","-54",""
"html-keyboard-response","455","1079848","0.0-46.28-2.28","null","","","","","","","null","","","","","","","",""
"image-selector-fb","456","1081371","0.0-46.29-0.29","1017","pics2/VE2.jpg,pics2/FR4.jpg","","","","","","","true","1","","","heartS.png","","",""
"image-slider-2AFC","457","1083118","0.0-46.29-1.29","1746","","","","67","","","","","","","","heartS.png","1024","67",""
"html-keyboard-response","458","1083880","0.0-46.29-2.29","null","","","","","","","null","","","","","","","",""
"image-selector-fb","459","1086894","0.0-46.30-0.30","null","pics2/FR4.jpg,pics2/FR6.jpg","","","","","","","false","null","","","noS.png","","",""
"image-slider-2AFC","460","1088894","0.0-46.30-1.30","1999","","","","-52","","","","","","","","heartS.png","895","-52",""
"html-keyboard-response","461","1089616","0.0-46.30-2.30","null","","","","","","","null","","","","","","","",""
"image-selector-fb","462","1091213","0.0-46.31-0.31","1081","pics2/FR1.jpg,pics2/FR6.jpg","","","","","","","false","0","","","heartS.png","","",""
"image-slider-2AFC","463","1093638","0.0-46.31-1.31","2424","","","","-60","","","","","","","","sizeS.png","1566","-60",""
"html-keyboard-response","464","1094403","0.0-46.31-2.31","null","","","","","","","null","","","","","","","",""
"image-selector-fb","465","1097415","0.0-46.32-0.32","null","pics2/SA2.jpg,pics2/SW3.jpg","","","","","","","false","null","","","noS.png","","",""
"image-slider-2AFC","466","1100328","0.0-46.32-1.32","2912","","","","63","","","","","","","","heartS.png","2232","63",""
"html-keyboard-response","467","1101034","0.0-46.32-2.32","null","","","","","","","null","","","","","","","",""
"image-selector-fb","468","1103857","0.0-46.33-0.33","2307","pics2/SA2.jpg,pics2/VE2.jpg","","","","","","","true","1","","","heartS.png","","",""
"image-slider-2AFC","469","1105576","0.0-46.33-1.33","1717","","","","65","","","","","","","","heartS.png","1061","65",""
"html-keyboard-response","470","1106384","0.0-46.33-2.33","null","","","","","","","null","","","","","","","",""
"image-selector-fb","471","1108007","0.0-46.34-0.34","1121","pics2/SA6.jpg,pics2/FR2.jpg","","","","","","","true","1","","","heartS.png","","",""
"image-slider-2AFC","472","1111472","0.0-46.34-1.34","3464","","","","70","","","","","","","","sizeS.png","604","70",""
"html-keyboard-response","473","1112338","0.0-46.34-2.34","null","","","","","","","null","","","","","","","",""
"image-selector-fb","474","1115347","0.0-46.35-0.35","null","pics2/VE3.jpg,pics2/SA4.jpg","","","","","","","false","null","","","noS.png","","",""
"image-slider-2AFC","475","1117986","0.0-46.35-1.35","2638","","","","64","","","","","","","","sizeS.png","2094","64",""
"html-keyboard-response","476","1118754","0.0-46.35-2.35","null","","","","","","","null","","","","","","","",""
"image-selector-fb","477","1120129","0.0-46.36-0.36","873","pics2/SW5.jpg,pics2/SA6.jpg","","","","","","","true","1","","","heartS.png","","",""
"image-slider-2AFC","478","1122576","0.0-46.36-1.36","2446","","","","-51","","","","","","","","sizeS.png","1918","-51",""
"html-keyboard-response","479","1123391","0.0-46.36-2.36","null","","","","","","","null","","","","","","","",""
"image-selector-fb","480","1124748","0.0-46.37-0.37","850","pics2/FR1.jpg,pics2/SA2.jpg","","","","","","","false","0","","","heartS.png","","",""
"image-slider-2AFC","481","1126942","0.0-46.37-1.37","2193","","","","-64","","","","","","","","sizeS.png","1473","-64",""
"html-keyboard-response","482","1127798","0.0-46.37-2.37","null","","","","","","","null","","","","","","","",""
"image-selector-fb","483","1129461","0.0-46.38-0.38","1155","pics2/SA2.jpg,pics2/FR3.jpg","","","","","","","true","1","","","sizeS.png","","",""
"image-slider-2AFC","484","1131686","0.0-46.38-1.38","2224","","","","73","","","","","","","","sizeS.png","1390","73",""
"html-keyboard-response","485","1132496","0.0-46.38-2.38","null","","","","","","","null","","","","","","","",""
"image-selector-fb","486","1135084","0.0-46.39-0.39","2073","pics2/SA6.jpg,pics2/SA2.jpg","","","","","","","false","0","","","heartS.png","","",""
"image-slider-2AFC","487","1136916","0.0-46.39-1.39","1831","","","","-68","","","","","","","","heartS.png","1079","-68",""
"html-keyboard-response","488","1137628","0.0-46.39-2.39","null","","","","","","","null","","","","","","","",""
"image-selector-fb","489","1139044","0.0-46.40-0.40","913","pics2/VE3.jpg,pics2/FR4.jpg","","","","","","","true","1","","","heartS.png","","",""
"image-slider-2AFC","490","1141362","0.0-46.40-1.40","2317","","","","74","","","","","","","","sizeS.png","1477","74",""
"html-keyboard-response","491","1142218","0.0-46.40-2.40","null","","","","","","","null","","","","","","","",""
"image-selector-fb","492","1143948","0.0-46.41-0.41","1227","pics2/SA4.jpg,pics2/FR4.jpg","","","","","","","false","0","","","heartS.png","","",""
"image-slider-2AFC","493","1145696","0.0-46.41-1.41","1747","","","","-66","","","","","","","","heartS.png","1155","-66",""
"html-keyboard-response","494","1146448","0.0-46.41-2.41","null","","","","","","","null","","","","","","","",""
"image-selector-fb","495","1148250","0.0-46.42-0.42","1299","pics2/VE2.jpg,pics2/SW5.jpg","","","","","","","true","1","","","sizeS.png","","",""
"image-slider-2AFC","496","1149694","0.0-46.42-1.42","1443","","","","71","","","","","","","","sizeS.png","851","71",""
"html-keyboard-response","497","1150572","0.0-46.42-2.42","null","","","","","","","null","","","","","","","",""
"image-selector-fb","498","1152029","0.0-46.43-0.43","955","pics2/SW5.jpg,pics2/FR4.jpg","","","","","","","false","0","","","heartS.png","","",""
"image-slider-2AFC","499","1153780","0.0-46.43-1.43","1750","","","","43","","","","","","","","sizeS.png","1190","43",""
"html-keyboard-response","500","1154536","0.0-46.43-2.43","null","","","","","","","null","","","","","","","",""
"image-selector-fb","501","1157556","0.0-46.44-0.44","null","pics2/FR4.jpg,pics2/FR2.jpg","","","","","","","false","null","","","noS.png","","",""
"image-slider-2AFC","502","1161750","0.0-46.44-1.44","4193","","","","69","","","","","","","","heartS.png","3473","69",""
"html-keyboard-response","503","1162469","0.0-46.44-2.44","null","","","","","","","null","","","","","","","",""
"image-selector-fb","504","1165744","0.0-46.45-0.45","2758","pics2/SA4.jpg,pics2/FR3.jpg","","","","","","","false","0","","","heartS.png","","",""
"image-slider-2AFC","505","1168832","0.0-46.45-1.45","3087","","","","70","","","","","","","","sizeS.png","2271","70",""
"html-keyboard-response","506","1169562","0.0-46.45-2.45","null","","","","","","","null","","","","","","","",""
"image-selector-fb","507","1171217","0.0-46.46-0.46","1153","pics2/FR6.jpg,pics2/SW5.jpg","","","","","","","true","1","","","sizeS.png","","",""
"image-slider-2AFC","508","1173216","0.0-46.46-1.46","1998","","","","72","","","","","","","","sizeS.png","1244","72",""
"html-keyboard-response","509","1173987","0.0-46.46-2.46","null","","","","","","","null","","","","","","","",""
"image-selector-fb","510","1175672","0.0-46.47-0.47","1182","pics2/SW3.jpg,pics2/FR3.jpg","","","","","","","false","0","","","sizeS.png","","",""
"image-slider-2AFC","511","1178270","0.0-46.47-1.47","2597","","","","79","","","","","","","","heartS.png","1973","79",""
"html-keyboard-response","512","1179089","0.0-46.47-2.47","null","","","","","","","null","","","","","","","",""
"image-selector-fb","513","1182104","0.0-46.48-0.48","null","pics2/SA4.jpg,pics2/FR3.jpg","","","","","","","false","null","","","noS.png","","",""
"image-slider-2AFC","514","1185498","0.0-46.48-1.48","3392","","","","-43","","","","","","","","heartS.png","2878","-43",""
"html-keyboard-response","515","1186325","0.0-46.48-2.48","null","","","","","","","null","","","","","","","",""
"image-selector-fb","516","1189342","0.0-46.49-0.49","null","pics2/FR4.jpg,pics2/FR3.jpg","","","","","","","false","null","","","noS.png","","",""
"image-slider-2AFC","517","1192462","0.0-46.49-1.49","3119","","","","-74","","","","","","","","heartS.png","2461","-74",""
"html-keyboard-response","518","1193265","0.0-46.49-2.49","null","","","","","","","null","","","","","","","",""
"image-selector-fb","519","1196280","0.0-46.50-0.50","null","pics2/FR4.jpg,pics2/SW3.jpg","","","","","","","false","null","","","noS.png","","",""
"image-slider-2AFC","520","1201283","0.0-46.50-1.50","null","","","","null","","","","","","","","sizeS.png","4265","55",""
"html-keyboard-response","521","1202044","0.0-46.50-2.50","null","","","","","","","null","","","","","","","",""
"image-selector-fb","522","1204061","0.0-46.51-0.51","1515","pics2/SA6.jpg,pics2/SW3.jpg","","","","","","","true","1","","","heartS.png","","",""
"image-slider-2AFC","523","1206468","0.0-46.51-1.51","2406","","","","60","","","","","","","","heartS.png","1380","60",""
"html-keyboard-response","524","1207285","0.0-46.51-2.51","null","","","","","","","null","","","","","","","",""
"image-selector-fb","525","1210298","0.0-46.52-0.52","null","pics2/VE2.jpg,pics2/SW5.jpg","","","","","","","false","null","","","noS.png","","",""
"image-slider-2AFC","526","1213958","0.0-46.52-1.52","3659","","","","50","","","","","","","","heartS.png","2937","50",""
"html-keyboard-response","527","1214819","0.0-46.52-2.52","null","","","","","","","null","","","","","","","",""
"image-selector-fb","528","1217844","0.0-46.53-0.53","null","pics2/SA6.jpg,pics2/VE2.jpg","","","","","","","false","null","","","noS.png","","",""
"image-slider-2AFC","529","1220416","0.0-46.53-1.53","2571","","","","70","","","","","","","","heartS.png","1545","70",""
"html-keyboard-response","530","1221195","0.0-46.53-2.53","null","","","","","","","null","","","","","","","",""
"image-selector-fb","531","1222647","0.0-46.54-0.54","934","pics2/FR2.jpg,pics2/VE2.jpg","","","","","","","false","0","","","sizeS.png","","",""
"image-slider-2AFC","532","1224622","0.0-46.54-1.54","1974","","","","-49","","","","","","","","sizeS.png","1382","-49",""
"html-keyboard-response","533","1225495","0.0-46.54-2.54","null","","","","","","","null","","","","","","","",""
"image-selector-fb","534","1226932","0.0-46.55-0.55","928","pics2/SA4.jpg,pics2/SW3.jpg","","","","","","","false","0","","","heartS.png","","",""
"image-slider-2AFC","535","1229878","0.0-46.55-1.55","2945","","","","66","","","","","","","","sizeS.png","941,2399","-80,66",""
"html-keyboard-response","536","1230637","0.0-46.55-2.55","null","","","","","","","null","","","","","","","",""
"image-selector-fb","537","1232181","0.0-46.56-0.56","1042","pics2/SA6.jpg,pics2/SW5.jpg","","","","","","","true","1","","","sizeS.png","","",""
"image-slider-2AFC","538","1234036","0.0-46.56-1.56","1854","","","","57","","","","","","","","heartS.png","1292","57",""
"html-keyboard-response","539","1234750","0.0-46.56-2.56","null","","","","","","","null","","","","","","","",""
"image-selector-fb","540","1237762","0.0-46.57-0.57","null","pics2/SA4.jpg,pics2/SW3.jpg","","","","","","","false","null","","","noS.png","","",""
"image-slider-2AFC","541","1240742","0.0-46.57-1.57","2979","","","","70","","","","","","","","sizeS.png","1875","70",""
"html-keyboard-response","542","1241565","0.0-46.57-2.57","null","","","","","","","null","","","","","","","",""
"image-selector-fb","543","1243425","0.0-46.58-0.58","1356","pics2/FR4.jpg,pics2/SW3.jpg","","","","","","","true","1","","","sizeS.png","","",""
"image-slider-2AFC","544","1245012","0.0-46.58-1.58","1586","","","","74","","","","","","","","sizeS.png","962","74",""
"html-keyboard-response","545","1245821","0.0-46.58-2.58","null","","","","","","","null","","","","","","","",""
"image-selector-fb","546","1247485","0.0-46.59-0.59","1161","pics2/SA4.jpg,pics2/SA6.jpg","","","","","","","false","0","","","heartS.png","","",""
"image-slider-2AFC","547","1248922","0.0-46.59-1.59","1436","","","","-67","","","","","","","","heartS.png","780","-67",""
"html-keyboard-response","548","1249652","0.0-46.59-2.59","null","","","","","","","null","","","","","","","",""
"image-selector-fb","549","1251763","0.0-46.60-0.60","1609","pics2/VE2.jpg,pics2/FR1.jpg","","","","","","","true","1","","","sizeS.png","","",""
"image-slider-2AFC","550","1253912","0.0-46.60-1.60","2148","","","","73","","","","","","","","sizeS.png","996","73",""
"html-keyboard-response","551","1254628","0.0-46.60-2.60","null","","","","","","","null","","","","","","","",""
"image-selector-fb","552","1255946","0.0-46.61-0.61","805","pics2/FR1.jpg,pics2/SW3.jpg","","","","","","","false","0","","","heartS.png","","",""
"image-slider-2AFC","553","1258438","0.0-46.61-1.61","2491","","","","65","","","","","","","","sizeS.png","1547","65",""
"html-keyboard-response","554","1259246","0.0-46.61-2.61","null","","","","","","","null","","","","","","","",""
"image-selector-fb","555","1262249","0.0-46.62-0.62","null","pics2/FR4.jpg,pics2/FR1.jpg","","","","","","","false","null","","","noS.png","","",""
"image-slider-2AFC","556","1266380","0.0-46.62-1.62","4128","","","","78","","","","","","","","heartS.png","3007","78",""
"html-keyboard-response","557","1267205","0.0-46.62-2.62","null","","","","","","","null","","","","","","","",""
"image-selector-fb","558","1269623","0.0-46.63-0.63","1915","pics2/FR3.jpg,pics2/VE3.jpg","","","","","","","false","0","","","sizeS.png","","",""
"image-slider-2AFC","559","1272478","0.0-46.63-1.63","2854","","","","-58","","","","","","","","sizeS.png","1876","-58",""
"html-keyboard-response","560","1273252","0.0-46.63-2.63","null","","","","","","","null","","","","","","","",""
"image-selector-fb","561","1274894","0.0-46.64-0.64","1138","pics2/FR3.jpg,pics2/FR1.jpg","","","","","","","true","1","","","sizeS.png","","",""
"image-slider-2AFC","562","1277164","0.0-46.64-1.64","2268","","","","76","","","","","","","","heartS.png","1309","76",""
"html-keyboard-response","563","1278024","0.0-46.64-2.64","null","","","","","","","null","","","","","","","",""
"image-selector-fb","564","1279127","0.0-46.65-0.65","600","pics2/FR4.jpg,pics2/SA4.jpg","","","","","","","false","0","","","sizeS.png","","",""
"image-slider-2AFC","565","1281602","0.0-46.65-1.65","2474","","","","-44","","","","","","","","heartS.png","1994","-44",""
"html-keyboard-response","566","1282423","0.0-46.65-2.65","null","","","","","","","null","","","","","","","",""
"pavlovia","567","1282445","0.0-47.0","","","","","","","","","","","","","","","",""
"html-keyboard-response","568","1287453","0.0-48.0","null","<div style='width: 700px;'> <font size=6><b>SHORT BREAK</font></b><br><br><i> Please wait 5 seconds to continue</i></div> ","","","","","","null","","","","","","","",""
"pavlovia","569","1287454","0.0-49.0","","","","","","","","","","","","","","","",""
"html-button-response","570","1294116","0.0-50.0","6661","<div style='width: 700px;'> <font size=6><b>BLOCK 3</font></b><br><br>Press the button whenever you feel ready to start the third and final block</div>","0","","","","","","","","","","","","",""
"image-selector-fb","571","1296075","0.0-51.0-0.0","1456","pics2/SW3.jpg,pics2/SA6.jpg","","","","","","","false","0","","","sizeS.png","","",""
"image-slider-2AFC","572","1297624","0.0-51.0-1.0","1547","","","","-40","","","","","","","","sizeS.png","860","-40",""
"html-keyboard-response","573","1298486","0.0-51.0-2.0","null","","","","","","","null","","","","","","","",""
"image-selector-fb","574","1301496","0.0-51.1-0.1","null","pics2/SA2.jpg,pics2/VE3.jpg","","","","","","","false","null","","","noS.png","","",""
"image-slider-2AFC","575","1304212","0.0-51.1-1.1","2714","","","","65","","","","","","","","heartS.png","2025","65",""
"html-keyboard-response","576","1304969","0.0-51.1-2.1","null","","","","","","","null","","","","","","","",""
"image-selector-fb","577","1307990","0.0-51.2-0.2","null","pics2/FR4.jpg,pics2/SW5.jpg","","","","","","","false","null","","","noS.png","","",""
"image-slider-2AFC","578","1310838","0.0-51.2-1.2","2846","","","","81","","","","","","","","sizeS.png","1935","81",""
"html-keyboard-response","579","1311549","0.0-51.2-2.2","null","","","","","","","null","","","","","","","",""
"image-selector-fb","580","1314563","0.0-51.3-0.3","null","pics2/SW5.jpg,pics2/FR6.jpg","","","","","","","false","null","","","noS.png","","",""
"image-slider-2AFC","581","1317273","0.0-51.3-1.3","2709","","","","-54","","","","","","","","sizeS.png","2117","-54",""
"html-keyboard-response","582","1318102","0.0-51.3-2.3","null","","","","","","","null","","","","","","","",""
"image-selector-fb","583","1320227","0.0-51.4-0.4","1622","pics2/VE3.jpg,pics2/FR2.jpg","","","","","","","true","1","","","heartS.png","","",""
"image-slider-2AFC","584","1322250","0.0-51.4-1.4","2022","","","","59","","","","","","","","sizeS.png","1205","59",""
"html-keyboard-response","585","1323053","0.0-51.4-2.4","null","","","","","","","null","","","","","","","",""
"image-selector-fb","586","1324771","0.0-51.5-0.5","1215","pics2/SA4.jpg,pics2/SW5.jpg","","","","","","","true","1","","","sizeS.png","","",""
"image-slider-2AFC","587","1326511","0.0-51.5-1.5","1740","","","","65","","","","","","","","sizeS.png","988","65",""
"html-keyboard-response","588","1327373","0.0-51.5-2.5","null","","","","","","","null","","","","","","","",""
"image-selector-fb","589","1330390","0.0-51.6-0.6","null","pics2/SA6.jpg,pics2/SA2.jpg","","","","","","","false","null","","","noS.png","","",""
"image-slider-2AFC","590","1333738","0.0-51.6-1.6","3345","","","","49","","","","","","","","sizeS.png","2449","49",""
"html-keyboard-response","591","1334453","0.0-51.6-2.6","null","","","","","","","null","","","","","","","",""
"image-selector-fb","592","1336081","0.0-51.7-0.7","1125","pics2/SA2.jpg,pics2/SW5.jpg","","","","","","","true","1","","","sizeS.png","","",""
"image-slider-2AFC","593","1337943","0.0-51.7-1.7","1861","","","","69","","","","","","","","sizeS.png","1107","69",""
"html-keyboard-response","594","1338659","0.0-51.7-2.7","null","","","","","","","null","","","","","","","",""
"image-selector-fb","595","1340577","0.0-51.8-0.8","1413","pics2/FR6.jpg,pics2/VE3.jpg","","","","","","","true","1","","","sizeS.png","","",""
"image-slider-2AFC","596","1342949","0.0-51.8-1.8","2371","","","","-61","","","","","","","","heartS.png","1539","-61",""
"html-keyboard-response","597","1343666","0.0-51.8-2.8","null","","","","","","","null","","","","","","","",""
"image-selector-fb","598","1345255","0.0-51.9-0.9","1086","pics2/FR1.jpg,pics2/VE2.jpg","","","","","","","false","0","","","heartS.png","","",""
"image-slider-2AFC","599","1347413","0.0-51.9-1.9","2157","","","","-68","","","","","","","","heartS.png","1419","-68",""
"html-keyboard-response","600","1348268","0.0-51.9-2.9","null","","","","","","","null","","","","","","","",""
"image-selector-fb","601","1350574","0.0-51.10-0.10","1804","pics2/FR2.jpg,pics2/SW3.jpg","","","","","","","true","1","","","sizeS.png","","",""
"image-slider-2AFC","602","1353493","0.0-51.10-1.10","2918","","","","90","","","","","","","","heartS.png","876","90",""
"html-keyboard-response","603","1354315","0.0-51.10-2.10","null","","","","","","","null","","","","","","","",""
"image-selector-fb","604","1356312","0.0-51.11-0.11","1493","pics2/VE3.jpg,pics2/VE2.jpg","","","","","","","true","1","","","heartS.png","","",""
"image-slider-2AFC","605","1359229","0.0-51.11-1.11","2916","","","","65","","","","","","","","sizeS.png","1740","65",""
"html-keyboard-response","606","1360032","0.0-51.11-2.11","null","","","","","","","null","","","","","","","",""
"image-selector-fb","607","1363049","0.0-51.12-0.12","null","pics2/FR6.jpg,pics2/SA4.jpg","","","","","","","false","null","","","noS.png","","",""
"image-slider-2AFC","608","1367537","0.0-51.12-1.12","4487","","","","81","","","","","","","","sizeS.png","1923,3847","-69,81",""
"html-keyboard-response","609","1368353","0.0-51.12-2.12","null","","","","","","","null","","","","","","","",""
"image-selector-fb","610","1370177","0.0-51.13-0.13","1321","pics2/SA2.jpg,pics2/FR4.jpg","","","","","","","true","1","","","heartS.png","","",""
"image-slider-2AFC","611","1371679","0.0-51.13-1.13","1501","","","","58","","","","","","","","heartS.png","827","58",""
"html-keyboard-response","612","1372505","0.0-51.13-2.13","null","","","","","","","null","","","","","","","",""
"image-selector-fb","613","1375522","0.0-51.14-0.14","null","pics2/SA6.jpg,pics2/FR3.jpg","","","","","","","false","null","","","noS.png","","",""
"image-slider-2AFC","614","1378499","0.0-51.14-1.14","2976","","","","66","","","","","","","","heartS.png","2224","66",""
"html-keyboard-response","615","1379316","0.0-51.14-2.14","null","","","","","","","null","","","","","","","",""
"image-selector-fb","616","1381524","0.0-51.15-0.15","1706","pics2/SW3.jpg,pics2/VE2.jpg","","","","","","","false","0","","","sizeS.png","","",""
"image-slider-2AFC","617","1383675","0.0-51.15-1.15","2150","","","","-72","","","","","","","","sizeS.png","1508","-72",""
"html-keyboard-response","618","1384443","0.0-51.15-2.15","null","","","","","","","null","","","","","","","",""
"image-selector-fb","619","1385976","0.0-51.16-0.16","1025","pics2/FR6.jpg,pics2/FR2.jpg","","","","","","","true","1","","","sizeS.png","","",""
"image-slider-2AFC","620","1387681","0.0-51.16-1.16","1703","","","","57","","","","","","","","heartS.png","1125","57",""
"html-keyboard-response","621","1388501","0.0-51.16-2.16","null","","","","","","","null","","","","","","","",""
"image-selector-fb","622","1389631","0.0-51.17-0.17","627","pics2/SW5.jpg,pics2/FR2.jpg","","","","","","","true","1","","","heartS.png","","",""
"image-slider-2AFC","623","1391925","0.0-51.17-1.17","2293","","","","-44","","","","","","","","sizeS.png","651,1813","67,-44",""
"html-keyboard-response","624","1392791","0.0-51.17-2.17","null","","","","","","","null","","","","","","","",""
"image-selector-fb","625","1395792","0.0-51.18-0.18","2483","pics2/SA4.jpg,pics2/VE2.jpg","","","","","","","false","0","","","heartS.png","","",""
"image-slider-2AFC","626","1397701","0.0-51.18-1.18","1908","","","","-61","","","","","","","","heartS.png","1300","-61",""
"html-keyboard-response","627","1398462","0.0-51.18-2.18","null","","","","","","","null","","","","","","","",""
"image-selector-fb","628","1401488","0.0-51.19-0.19","null","pics2/SA6.jpg,pics2/SW5.jpg","","","","","","","false","null","","","noS.png","","",""
"image-slider-2AFC","629","1403839","0.0-51.19-1.19","2350","","","","74","","","","","","","","sizeS.png","1676","74",""
"html-keyboard-response","630","1404608","0.0-51.19-2.19","null","","","","","","","null","","","","","","","",""
"image-selector-fb","631","1406910","0.0-51.20-0.20","1786","pics2/SA6.jpg,pics2/SA4.jpg","","","","","","","true","1","","","sizeS.png","","",""
"image-slider-2AFC","632","1408463","0.0-51.20-1.20","1552","","","","62","","","","","","","","sizeS.png","974","62",""
"html-keyboard-response","633","1409338","0.0-51.20-2.20","null","","","","","","","null","","","","","","","",""
"image-selector-fb","634","1410663","0.0-51.21-0.21","814","pics2/SW5.jpg,pics2/SA4.jpg","","","","","","","false","0","","","heartS.png","","",""
"image-slider-2AFC","635","1413989","0.0-51.21-1.21","3325","","","","-54","","","","","","","","sizeS.png","1011","-54",""
"html-keyboard-response","636","1414709","0.0-51.21-2.21","null","","","","","","","null","","","","","","","",""
"image-selector-fb","637","1417737","0.0-51.22-0.22","null","pics2/FR1.jpg,pics2/FR3.jpg","","","","","","","false","null","","","noS.png","","",""
"image-slider-2AFC","638","1421009","0.0-51.22-1.22","3271","","","","-56","","","","","","","","sizeS.png","1975","-56",""
"html-keyboard-response","639","1421869","0.0-51.22-2.22","null","","","","","","","null","","","","","","","",""
"image-selector-fb","640","1423435","0.0-51.23-0.23","1063","pics2/FR2.jpg,pics2/FR3.jpg","","","","","","","false","0","","","sizeS.png","","",""
"image-slider-2AFC","641","1426393","0.0-51.23-1.23","2957","","","","-68","","","","","","","","heartS.png","1963","-68",""
"html-keyboard-response","642","1427207","0.0-51.23-2.23","null","","","","","","","null","","","","","","","",""
"image-selector-fb","643","1430210","0.0-51.24-0.24","null","pics2/SA6.jpg,pics2/FR4.jpg","","","","","","","false","null","","","noS.png","","",""
"image-slider-2AFC","644","1433859","0.0-51.24-1.24","3648","","","","55","","","","","","","","sizeS.png","1654","55",""
"html-keyboard-response","645","1434728","0.0-51.24-2.24","null","","","","","","","null","","","","","","","",""
"image-selector-fb","646","1437758","0.0-51.25-0.25","null","pics2/SA6.jpg,pics2/SW3.jpg","","","","","","","false","null","","","noS.png","","",""
"image-slider-2AFC","647","1440654","0.0-51.25-1.25","2894","","","","72","","","","","","","","sizeS.png","2124","72",""
"html-keyboard-response","648","1441459","0.0-51.25-2.25","null","","","","","","","null","","","","","","","",""
"image-selector-fb","649","1443149","0.0-51.26-0.26","1187","pics2/VE2.jpg,pics2/FR6.jpg","","","","","","","true","1","","","heartS.png","","",""
"image-slider-2AFC","650","1446142","0.0-51.26-1.26","2991","","","","73","","","","","","","","sizeS.png","779","73",""
"html-keyboard-response","651","1446953","0.0-51.26-2.26","null","","","","","","","null","","","","","","","",""
"image-selector-fb","652","1449972","0.0-51.27-0.27","null","pics2/VE2.jpg,pics2/VE3.jpg","","","","","","","false","null","","","noS.png","","",""
"image-slider-2AFC","653","1452600","0.0-51.27-1.27","2626","","","","49","","","","","","","","heartS.png","1955","49",""
"html-keyboard-response","654","1453366","0.0-51.27-2.27","null","","","","","","","null","","","","","","","",""
"image-selector-fb","655","1455369","0.0-51.28-0.28","1499","pics2/FR1.jpg,pics2/FR3.jpg","","","","","","","false","0","","","heartS.png","","",""
"image-slider-2AFC","656","1457280","0.0-51.28-1.28","1909","","","","-55","","","","","","","","sizeS.png","1283","-55",""
"html-keyboard-response","657","1458085","0.0-51.28-2.28","null","","","","","","","null","","","","","","","",""
"image-selector-fb","658","1460031","0.0-51.29-0.29","1443","pics2/SW3.jpg,pics2/SA2.jpg","","","","","","","false","0","","","sizeS.png","","",""
"image-slider-2AFC","659","1463416","0.0-51.29-1.29","3383","","","","-62","","","","","","","","heartS.png","1845","-62",""
"html-keyboard-response","660","1464228","0.0-51.29-2.29","null","","","","","","","null","","","","","","","",""
"image-selector-fb","661","1465582","0.0-51.30-0.30","844","pics2/VE2.jpg,pics2/SA2.jpg","","","","","","","false","0","","","sizeS.png","","",""
"image-slider-2AFC","662","1468534","0.0-51.30-1.30","2950","","","","-61","","","","","","","","sizeS.png","2310","-61",""
"html-keyboard-response","663","1469395","0.0-51.30-2.30","null","","","","","","","null","","","","","","","",""
"image-selector-fb","664","1470763","0.0-51.31-0.31","851","pics2/FR1.jpg,pics2/FR2.jpg","","","","","","","true","1","","","heartS.png","","",""
"image-slider-2AFC","665","1473470","0.0-51.31-1.31","2705","","","","54","","","","","","","","heartS.png","1983","54",""
"html-keyboard-response","666","1474278","0.0-51.31-2.31","null","","","","","","","null","","","","","","","",""
"image-selector-fb","667","1476141","0.0-51.32-0.32","1352","pics2/FR6.jpg,pics2/FR3.jpg","","","","","","","true","1","","","sizeS.png","","",""
"image-slider-2AFC","668","1479092","0.0-51.32-1.32","2949","","","","64","","","","","","","","sizeS.png","2245","64",""
"html-keyboard-response","669","1479846","0.0-51.32-2.32","null","","","","","","","null","","","","","","","",""
"image-selector-fb","670","1481265","0.0-51.33-0.33","904","pics2/SA2.jpg,pics2/FR2.jpg","","","","","","","true","1","","","heartS.png","","",""
"image-slider-2AFC","671","1483249","0.0-51.33-1.33","1983","","","","59","","","","","","","","heartS.png","1423","59",""
"html-keyboard-response","672","1484007","0.0-51.33-2.33","null","","","","","","","null","","","","","","","",""
"image-selector-fb","673","1485323","0.0-51.34-0.34","803","pics2/FR2.jpg,pics2/SW5.jpg","","","","","","","true","1","","","sizeS.png","","",""
"image-slider-2AFC","674","1488098","0.0-51.34-1.34","2773","","","","-55","","","","","","","","heartS.png","1299,2083","71,-55",""
"html-keyboard-response","675","1488811","0.0-51.34-2.34","null","","","","","","","null","","","","","","","",""
"image-selector-fb","676","1490208","0.0-51.35-0.35","879","pics2/SA6.jpg,pics2/FR1.jpg","","","","","","","true","1","","","sizeS.png","","",""
"image-slider-2AFC","677","1491614","0.0-51.35-1.35","1404","","","","67","","","","","","","","heartS.png","877","67",""
"html-keyboard-response","678","1492329","0.0-51.35-2.35","null","","","","","","","null","","","","","","","",""
"image-selector-fb","679","1493912","0.0-51.36-0.36","1071","pics2/VE2.jpg,pics2/SW3.jpg","","","","","","","true","1","","","heartS.png","","",""
"image-slider-2AFC","680","1495803","0.0-51.36-1.36","1890","","","","56","","","","","","","","sizeS.png","1266","56",""
"html-keyboard-response","681","1496525","0.0-51.36-2.36","null","","","","","","","null","","","","","","","",""
"image-selector-fb","682","1498916","0.0-51.37-0.37","1881","pics2/FR1.jpg,pics2/FR4.jpg","","","","","","","false","0","","","heartS.png","","",""
"image-slider-2AFC","683","1500595","0.0-51.37-1.37","1678","","","","-46","","","","","","","","heartS.png","972","-46",""
"html-keyboard-response","684","1501419","0.0-51.37-2.37","null","","","","","","","null","","","","","","","",""
"image-selector-fb","685","1504433","0.0-51.38-0.38","null","pics2/SA2.jpg,pics2/SA4.jpg","","","","","","","false","null","","","noS.png","","",""
"image-slider-2AFC","686","1507533","0.0-51.38-1.38","3099","","","","27","","","","","","","","heartS.png","2185","27",""
"html-keyboard-response","687","1508393","0.0-51.38-2.38","null","","","","","","","null","","","","","","","",""
"image-selector-fb","688","1511414","0.0-51.39-0.39","null","pics2/FR1.jpg,pics2/SA4.jpg","","","","","","","false","null","","","noS.png","","",""
"image-slider-2AFC","689","1513737","0.0-51.39-1.39","2322","","","","70","","","","","","","","heartS.png","1520","70",""
"html-keyboard-response","690","1514494","0.0-51.39-2.39","null","","","","","","","null","","","","","","","",""
"image-selector-fb","691","1517516","0.0-51.40-0.40","null","pics2/VE2.jpg,pics2/FR6.jpg","","","","","","","false","null","","","noS.png","","",""
"image-slider-2AFC","692","1521919","0.0-51.40-1.40","4402","","","","-56","","","","","","","","sizeS.png","3008","-56",""
"html-keyboard-response","693","1522732","0.0-51.40-2.40","null","","","","","","","null","","","","","","","",""
"image-selector-fb","694","1525760","0.0-51.41-0.41","null","pics2/SA2.jpg,pics2/FR1.jpg","","","","","","","false","null","","","noS.png","","",""
"image-slider-2AFC","695","1528965","0.0-51.41-1.41","3204","","","","59","","","","","","","","sizeS.png","2530","59",""
"html-keyboard-response","696","1529673","0.0-51.41-2.41","null","","","","","","","null","","","","","","","",""
"image-selector-fb","697","1532067","0.0-51.42-0.42","1879","pics2/VE2.jpg,pics2/VE3.jpg","","","","","","","true","1","","","sizeS.png","","",""
"image-slider-2AFC","698","1534613","0.0-51.42-1.42","2545","","","","67","","","","","","","","heartS.png","1135","67",""
"html-keyboard-response","699","1535492","0.0-51.42-2.42","null","","","","","","","null","","","","","","","",""
"image-selector-fb","700","1537316","0.0-51.43-0.43","1322","pics2/FR4.jpg,pics2/FR1.jpg","","","","","","","true","1","","","sizeS.png","","",""
"image-slider-2AFC","701","1538699","0.0-51.43-1.43","1382","","","","58","","","","","","","","sizeS.png","804","58",""
"html-keyboard-response","702","1539571","0.0-51.43-2.43","null","","","","","","","null","","","","","","","",""
"image-selector-fb","703","1542579","0.0-51.44-0.44","null","pics2/FR2.jpg,pics2/SA4.jpg","","","","","","","false","null","","","noS.png","","",""
"image-slider-2AFC","704","1545471","0.0-51.44-1.44","2891","","","","-66","","","","","","","","sizeS.png","2267","-66",""
"html-keyboard-response","705","1546345","0.0-51.44-2.44","null","","","","","","","null","","","","","","","",""
"image-selector-fb","706","1549358","0.0-51.45-0.45","null","pics2/SA6.jpg,pics2/FR6.jpg","","","","","","","false","null","","","noS.png","","",""
"image-slider-2AFC","707","1552123","0.0-51.45-1.45","2764","","","","58","","","","","","","","heartS.png","2092","58",""
"html-keyboard-response","708","1552837","0.0-51.45-2.45","null","","","","","","","null","","","","","","","",""
"image-selector-fb","709","1555669","0.0-51.46-0.46","2329","pics2/SW5.jpg,pics2/VE2.jpg","","","","","","","false","0","","","heartS.png","","",""
"image-slider-2AFC","710","1557492","0.0-51.46-1.46","1821","","","","-38","","","","","","","","sizeS.png","1131","-38",""
"html-keyboard-response","711","1558212","0.0-51.46-2.46","null","","","","","","","null","","","","","","","",""
