"trial_type","trial_index","time_elapsed","internal_node_id","rt","stimulus","button_pressed","success","response","cat","value","key_press","correct","image_click","first_click_rt","first_click_val","symbol","all_click_rt","all_click_val","view_history"
"pavlovia","0","13","0.0-0.0","","","","","","","","","","","","","","","",""
"html-button-response","1","5742","0.0-1.0","5724","<div style='width: 700px; font-size: 150%'><font size='40'>  Welcome to our study!</font><br><br><br> <small> Our experiment is about <i>decision making</i>. You will choose and rate different food items, such as these: <br><br> <div><img src='food_combo2.png', height = '400px'></img></div>","0","","","","","","","","","","","","",""
"html-button-response","2","19218","0.0-2.0","13471","<div style='width: 700px; font-size: 150%'><br><br><br><small> <u><i>This is a multi-part study.</i></u><br><br> In the first part you will rate 24 food items twice.<br><br><div><img src=""rat1.png"" style=""width: 25%""></img></div><br>In the second part (longest) you will make repeated choices and judgements concerning the food items.<br><br><div><img src=""mainx.png"" style=""width: 50%""></img></div><br>In the third and final part, you will rate the items again and answer few short questionnaires.<br><br><div><img src=""rat2.png"" style=""width: 50%""></img></div><br><br>","0","","","","","","","","","","","","",""
"fullscreen","3","21780","0.0-3.0","","","","true","","","","","","","","","","","",""
"html-button-response","4","73181","0.0-4.0","51398","<div style='width: 900px; font-size: 150%;' <font size='20%'> In the first part of the task you will use the mouse to rate food items on <i>2 scales</i> </font></div><br><br><div style='width: 900px'><div style='float: left; width: 50%; margin-right:2.5em'><img src='heartS.png'></img><p class='small' style='text-align: justify'>When you see the heart cue you will rate food items in terms of how much like them/would like to eat them <i>right now</i>. You will rate them on a continuous scale from left (strong dislike) to right (strong liking). Before submitting your rating, try imagining how the item tastes and how much you desire it.<br><br></p></div><div ><img src='sizeS.png'></img><p class='small' style='text-align: justify'>When you see the size cue, you will rate the same food items in terms of their size. The scale goes from left (tiny) to right (very large). You should assess picture size <i><u>relative</i></u> to the white background. <b>Remember:</b> rate the size of the picture, <u>not</u> the size of the item in real life. </p></div><div style='width: 900px'><br><br><b><i>Notice:</b> by starting the rating you agree that your sumbission might be rejected at an early stage and the experiment might end, if your size ratings are not at least modestly related to objective sizes, or if you repeat the same value ratings too many times. If you don't agree, please exit by closing the browser window. </i><br><br><br>","0","","","","","","","","","","","","",""
"html-button-response","5","82324","0.0-5.0","9140","<div><img src='heartS.png'></img></div><br><div style='text-align: justify; width: 700px'>Using the mouse, rate the <b><i>likeness</b></i> of the food items (how much you like them/would like to eat them <i>right now</i>). Far right-end of the scale indicates an item you <i>like a lot</i>. Far left-end indicates an item you <i>dislike a lot</i>. Think about each answer.   <ul><li>Try <b><i>not</b></i> to give identical rating to different items.</li><li>Use the whole scale, and <b><i>not</b></i> just the extremes</ul></div><br>","0","","","","","","","","","","","","",""
"image-slider-response","6","89618","0.0-6.0-0.0-0.0","7289","pics2/FR5.jpg","","","53","FR","","","","","","","","","",""
"image-slider-response","7","97486","0.0-6.0-0.0-0.1","7664","pics2/SW1.jpg","","","100","SW","","","","","","","","","",""
"image-slider-response","8","102184","0.0-6.0-0.0-0.2","4494","pics2/VE3.jpg","","","50","VE","","","","","","","","","",""
"image-slider-response","9","106928","0.0-6.0-0.0-0.3","4541","pics2/SA2.jpg","","","93","SA","","","","","","","","","",""
"image-slider-response","10","112390","0.0-6.0-0.0-0.4","5259","pics2/VE4.jpg","","","73","VE","","","","","","","","","",""
"image-slider-response","11","115395","0.0-6.0-0.0-0.5","2801","pics2/FR4.jpg","","","54","FR","","","","","","","","","",""
"image-slider-response","12","124444","0.0-6.0-0.0-0.6","8846","pics2/SW2.jpg","","","85","SW","","","","","","","","","",""
"image-slider-response","13","130330","0.0-6.0-0.0-0.7","5683","pics2/VE1.jpg","","","44","VE","","","","","","","","","",""
"image-slider-response","14","137584","0.0-6.0-0.0-0.8","7051","pics2/FR1.jpg","","","61","FR","","","","","","","","","",""
"image-slider-response","15","143430","0.0-6.0-0.0-0.9","5642","pics2/SA5.jpg","","","63","SA","","","","","","","","","",""
"image-slider-response","16","149730","0.0-6.0-0.0-0.10","6096","pics2/SW4.jpg","","","42","SW","","","","","","","","","",""
"image-slider-response","17","156442","0.0-6.0-0.0-0.11","6509","pics2/SA6.jpg","","","41","SA","","","","","","","","","",""
"image-slider-response","18","160544","0.0-6.0-0.0-0.12","3897","pics2/VE6.jpg","","","56","VE","","","","","","","","","",""
"image-slider-response","19","165222","0.0-6.0-0.0-0.13","4471","pics2/SA4.jpg","","","66","SA","","","","","","","","","",""
"image-slider-response","20","169313","0.0-6.0-0.0-0.14","3887","pics2/FR2.jpg","","","62","FR","","","","","","","","","",""
"image-slider-response","21","174708","0.0-6.0-0.0-0.15","5192","pics2/VE2.jpg","","","51","VE","","","","","","","","","",""
"image-slider-response","22","179636","0.0-6.0-0.0-0.16","4725","pics2/SW5.jpg","","","65","SW","","","","","","","","","",""
"image-slider-response","23","184979","0.0-6.0-0.0-0.17","5139","pics2/FR3.jpg","","","54","FR","","","","","","","","","",""
"image-slider-response","24","188961","0.0-6.0-0.0-0.18","3774","pics2/SA3.jpg","","","74","SA","","","","","","","","","",""
"image-slider-response","25","194859","0.0-6.0-0.0-0.19","5693","pics2/SW3.jpg","","","50","SW","","","","","","","","","",""
"image-slider-response","26","200752","0.0-6.0-0.0-0.20","5688","pics2/SA1.jpg","","","69","SA","","","","","","","","","",""
"image-slider-response","27","206688","0.0-6.0-0.0-0.21","5732","pics2/SW6.jpg","","","60","SW","","","","","","","","","",""
"image-slider-response","28","211224","0.0-6.0-0.0-0.22","4331","pics2/FR6.jpg","","","60","FR","","","","","","","","","",""
"image-slider-response","29","217725","0.0-6.0-0.0-0.23","6297","pics2/VE5.jpg","","","58","VE","","","","","","","","","",""
"html-button-response","30","219852","0.0-7.0","1902","<div style='width: 900px;'> <font size = 6><b> End of the first rating</b><br><br>","0","","","","","","","","","","","","",""
"html-button-response","31","242529","0.0-9.0","22674","<div ><img src='sizeS.png'></img></div><br><div style='text-align: justify; width: 700px'> Using the mouse, rate the <b><i>size</b></i> of the food items <b><i> relative to the white background.</b></i> Right-end of the scale indicates a <i>very large item</i>, which covers a large portion of the white rectangle. Left-end indicates a <i>very tiny</i> item which covers a tiny portion of the white rectangle.<br><br><i><u>Remember</i></u>: everything that is not the white background also contributes to item size (e.g. packing, plates, ect.)<br><br> Please keep in mind that if the accuracy of ratings do not allign well with actual sizes, the experiment will end.  As a result it will be consider incomplete and therefore no payment would be made. Good luck!<br><br></div><br>","0","","","","","","","","","","","","",""
"html-button-response","32","250843","0.0-10.0","8311","<div ><img src='sizeS.png'></img></div><br><b><font size=6>Examples of items that you might encounter</b><br><div style='width: 750px;'><div style='width: 33.33%; float:left'><br><br><br><i>Large Item</i><br><br><img src='large.jpg', width=200px></img></div><div style='float:right'><br><br><br><i>Small Item</i><br><br><img src='small.jpg', width=200px></img></div><div ><br><br><br><i>Medium Item</i><br><br><img src='med.jpg', width=200px></img></div></div><br><br>","0","","","","","","","","","","","","",""
"image-slider-response","33","255439","0.0-11.0-0.0-0.0","4593","pics2/FR4.jpg","","","97","null","","","","","","","","","",""
"image-slider-response","34","263579","0.0-11.0-0.0-0.1","7937","pics2/FR6.jpg","","","58","null","","","","","","","","","",""
"image-slider-response","35","272451","0.0-11.0-0.0-0.2","8669","pics2/VE4.jpg","","","67","null","","","","","","","","","",""
"image-slider-response","36","276888","0.0-11.0-0.0-0.3","4233","pics2/SA2.jpg","","","50","null","","","","","","","","","",""
"image-slider-response","37","283220","0.0-11.0-0.0-0.4","6128","pics2/SW3.jpg","","","77","null","","","","","","","","","",""
"image-slider-response","38","289652","0.0-11.0-0.0-0.5","6229","pics2/FR2.jpg","","","81","null","","","","","","","","","",""
"image-slider-response","39","292889","0.0-11.0-0.0-0.6","3033","pics2/SA1.jpg","","","85","null","","","","","","","","","",""
"image-slider-response","40","296842","0.0-11.0-0.0-0.7","3748","pics2/VE1.jpg","","","58","null","","","","","","","","","",""
"image-slider-response","41","300814","0.0-11.0-0.0-0.8","3766","pics2/SW2.jpg","","","83","null","","","","","","","","","",""
"image-slider-response","42","304483","0.0-11.0-0.0-0.9","3464","pics2/FR5.jpg","","","61","null","","","","","","","","","",""
"image-slider-response","43","309897","0.0-11.0-0.0-0.10","5211","pics2/SA4.jpg","","","45","null","","","","","","","","","",""
"image-slider-response","44","316160","0.0-11.0-0.0-0.11","6057","pics2/SW1.jpg","","","89","null","","","","","","","","","",""
"image-slider-response","45","320042","0.0-11.0-0.0-0.12","3677","pics2/FR3.jpg","","","60","null","","","","","","","","","",""
"image-slider-response","46","324675","0.0-11.0-0.0-0.13","4428","pics2/VE5.jpg","","","50","null","","","","","","","","","",""
"image-slider-response","47","324946","0.0-11.0-0.0-0.14","66","pics2/VE6.jpg","","","50","null","","","","","","","","","",""
"image-slider-response","48","331630","0.0-11.0-0.0-0.15","6480","pics2/SW5.jpg","","","75","null","","","","","","","","","",""
"image-slider-response","49","337427","0.0-11.0-0.0-0.16","5593","pics2/SW6.jpg","","","50","null","","","","","","","","","",""
"image-slider-response","50","342601","0.0-11.0-0.0-0.17","4969","pics2/SA5.jpg","","","43","null","","","","","","","","","",""
"image-slider-response","51","346816","0.0-11.0-0.0-0.18","4012","pics2/VE3.jpg","","","72","null","","","","","","","","","",""
"image-slider-response","52","352557","0.0-11.0-0.0-0.19","5536","pics2/SW4.jpg","","","58","null","","","","","","","","","",""
"image-slider-response","53","356896","0.0-11.0-0.0-0.20","4134","pics2/SA3.jpg","","","61","null","","","","","","","","","",""
"image-slider-response","54","362081","0.0-11.0-0.0-0.21","4981","pics2/SA6.jpg","","","57","null","","","","","","","","","",""
"image-slider-response","55","366288","0.0-11.0-0.0-0.22","4002","pics2/VE2.jpg","","","80","null","","","","","","","","","",""
"image-slider-response","56","372037","0.0-11.0-0.0-0.23","5544","pics2/FR1.jpg","","","70","null","","","","","","","","","",""
"html-button-response","57","373795","0.0-12.0","1554","<div style='width: 900px;'> <font size = 6><b> End of the second rating</b><br><br>","0","","","","","","","","","","","","",""
"html-button-response","58","380390","0.0-13.0","6593","<div style='width: 900px;'>Now please rate the items for the second time. <br><br>This is not a memory test - you don't need to be consistent with your previous ratings. Just as before, try to make accurate judgements.<br><br>","0","","","","","","","","","","","","",""
"html-button-response","59","395541","0.0-14.0","15147","<div><img src='heartS.png'></img></div><br><div style='text-align: justify; width: 700px'>Using the mouse, rate the <b><i>likeness</b></i> of the food items (how much you like them/would like to eat them <i>right now</i>). Far right-end of the scale indicates an item you <i>like a lot</i>. Far left-end indicates an item you <i>dislike a lot</i>. Think about each answer.   <ul><li>Try <b><i>not</b></i> to give identical rating to different items.</li><li>Use the whole scale, and <b><i>not</b></i> just the extremes</ul></div><br>","0","","","","","","","","","","","","",""
"image-slider-response","60","404646","0.0-15.0-0.0-0.0","9103","pics2/FR5.jpg","","","40","FR","","","","","","","","","",""
"image-slider-response","61","409002","0.0-15.0-0.0-0.1","4151","pics2/VE6.jpg","","","59","VE","","","","","","","","","",""
"image-slider-response","62","413086","0.0-15.0-0.0-0.2","3879","pics2/FR1.jpg","","","76","FR","","","","","","","","","",""
"image-slider-response","63","418784","0.0-15.0-0.0-0.3","5493","pics2/SA1.jpg","","","89","SA","","","","","","","","","",""
"image-slider-response","64","422676","0.0-15.0-0.0-0.4","3687","pics2/VE2.jpg","","","57","VE","","","","","","","","","",""
"image-slider-response","65","426094","0.0-15.0-0.0-0.5","3213","pics2/VE1.jpg","","","45","VE","","","","","","","","","",""
"image-slider-response","66","433919","0.0-15.0-0.0-0.6","7620","pics2/FR3.jpg","","","56","FR","","","","","","","","","",""
"image-slider-response","67","438316","0.0-15.0-0.0-0.7","4191","pics2/SW4.jpg","","","43","SW","","","","","","","","","",""
"image-slider-response","68","443578","0.0-15.0-0.0-0.8","5056","pics2/VE5.jpg","","","60","VE","","","","","","","","","",""
"image-slider-response","69","448561","0.0-15.0-0.0-0.9","4778","pics2/FR4.jpg","","","61","FR","","","","","","","","","",""
"image-slider-response","70","452201","0.0-15.0-0.0-0.10","3436","pics2/SA5.jpg","","","63","SA","","","","","","","","","",""
"image-slider-response","71","456760","0.0-15.0-0.0-0.11","4354","pics2/FR2.jpg","","","80","FR","","","","","","","","","",""
"image-slider-response","72","460270","0.0-15.0-0.0-0.12","3305","pics2/VE4.jpg","","","69","VE","","","","","","","","","",""
"image-slider-response","73","463829","0.0-15.0-0.0-0.13","3354","pics2/SA3.jpg","","","78","SA","","","","","","","","","",""
"image-slider-response","74","467924","0.0-15.0-0.0-0.14","3891","pics2/SW5.jpg","","","76","SW","","","","","","","","","",""
"image-slider-response","75","471525","0.0-15.0-0.0-0.15","3397","pics2/SW1.jpg","","","98","SW","","","","","","","","","",""
"image-slider-response","76","474892","0.0-15.0-0.0-0.16","3161","pics2/SW6.jpg","","","77","SW","","","","","","","","","",""
"image-slider-response","77","479260","0.0-15.0-0.0-0.17","4166","pics2/FR6.jpg","","","64","FR","","","","","","","","","",""
"image-slider-response","78","484018","0.0-15.0-0.0-0.18","4555","pics2/SA2.jpg","","","75","SA","","","","","","","","","",""
"image-slider-response","79","489363","0.0-15.0-0.0-0.19","5140","pics2/VE3.jpg","","","81","VE","","","","","","","","","",""
"image-slider-response","80","492621","0.0-15.0-0.0-0.20","3055","pics2/SW2.jpg","","","92","SW","","","","","","","","","",""
"image-slider-response","81","500902","0.0-15.0-0.0-0.21","8078","pics2/SW3.jpg","","","59","SW","","","","","","","","","",""
"image-slider-response","82","504180","0.0-15.0-0.0-0.22","3072","pics2/SA6.jpg","","","40","SA","","","","","","","","","",""
"image-slider-response","83","507579","0.0-15.0-0.0-0.23","3196","pics2/SA4.jpg","","","72","SA","","","","","","","","","",""
"call-function","84","507802","0.0-16.0","","","","","","","","","","","","","","","",""
"call-function","85","507810","0.0-17.0","","","","","","","","","","","","","","","",""
"html-button-response","86","509263","0.0-18.0","1452","<div style='width: 900px;'> <font size = 6><b> End of the first rating</b><br><br>","0","","","","","","","","","","","","",""
"html-button-response","87","510867","0.0-19.0","1600","<div ><img src='sizeS.png'></img></div><br><div style='text-align: justify; width: 700px'> Using the mouse, rate the <b><i>size</b></i> of the food items <b><i> relative to the white background.</b></i> Right-end of the scale indicates a <i>very large item</i>, which covers a large portion of the white rectangle. Left-end indicates a <i>very tiny</i> item which covers a tiny portion of the white rectangle.<br><br><i><u>Remember</i></u>: everything that is not the white background also contributes to item size (e.g. packing, plates, ect.)<br><br> Please keep in mind that if the accuracy of ratings do not allign well with actual sizes, the experiment will end.  As a result it will be consider incomplete and therefore no payment would be made. Good luck!<br><br></div><br>","0","","","","","","","","","","","","",""
"image-slider-response","88","515043","0.0-20.0-0.0-0.0","4174","pics2/SW2.jpg","","","99","null","","","","","","","","","",""
"image-slider-response","89","520560","0.0-20.0-0.0-0.1","5314","pics2/SW1.jpg","","","100","null","","","","","","","","","",""
"image-slider-response","90","524048","0.0-20.0-0.0-0.2","3285","pics2/SA1.jpg","","","100","null","","","","","","","","","",""
"image-slider-response","91","527014","0.0-20.0-0.0-0.3","2763","pics2/SW5.jpg","","","97","null","","","","","","","","","",""
"image-slider-response","92","531433","0.0-20.0-0.0-0.4","4215","pics2/FR3.jpg","","","86","null","","","","","","","","","",""
"image-slider-response","93","534699","0.0-20.0-0.0-0.5","3064","pics2/SA5.jpg","","","76","null","","","","","","","","","",""
"image-slider-response","94","542366","0.0-20.0-0.0-0.6","7460","pics2/FR2.jpg","","","87","null","","","","","","","","","",""
"image-slider-response","95","545888","0.0-20.0-0.0-0.7","3319","pics2/VE2.jpg","","","85","null","","","","","","","","","",""
"image-slider-response","96","549420","0.0-20.0-0.0-0.8","3328","pics2/SW6.jpg","","","79","null","","","","","","","","","",""
"image-slider-response","97","554231","0.0-20.0-0.0-0.9","4608","pics2/FR6.jpg","","","58","null","","","","","","","","","",""
"image-slider-response","98","556844","0.0-20.0-0.0-0.10","2410","pics2/FR1.jpg","","","85","null","","","","","","","","","",""
"image-slider-response","99","560011","0.0-20.0-0.0-0.11","2964","pics2/SA4.jpg","","","56","null","","","","","","","","","",""
"image-slider-response","100","561544","0.0-20.0-0.0-0.12","1329","pics2/VE1.jpg","","","50","null","","","","","","","","","",""
"image-slider-response","101","565406","0.0-20.0-0.0-0.13","3660","pics2/FR5.jpg","","","62","null","","","","","","","","","",""
"image-slider-response","102","569693","0.0-20.0-0.0-0.14","4083","pics2/VE5.jpg","","","58","null","","","","","","","","","",""
"image-slider-response","103","573920","0.0-20.0-0.0-0.15","4022","pics2/SW4.jpg","","","63","null","","","","","","","","","",""
"image-slider-response","104","576947","0.0-20.0-0.0-0.16","2822","pics2/SA6.jpg","","","50","null","","","","","","","","","",""
"image-slider-response","105","580608","0.0-20.0-0.0-0.17","3457","pics2/VE3.jpg","","","71","null","","","","","","","","","",""
"image-slider-response","106","582837","0.0-20.0-0.0-0.18","2026","pics2/SA2.jpg","","","50","null","","","","","","","","","",""
"image-slider-response","107","585833","0.0-20.0-0.0-0.19","2794","pics2/SA3.jpg","","","67","null","","","","","","","","","",""
"image-slider-response","108","589070","0.0-20.0-0.0-0.20","3035","pics2/VE6.jpg","","","50","null","","","","","","","","","",""
"image-slider-response","109","594179","0.0-20.0-0.0-0.21","4903","pics2/SW3.jpg","","","72","null","","","","","","","","","",""
"image-slider-response","110","598069","0.0-20.0-0.0-0.22","3688","pics2/FR4.jpg","","","75","null","","","","","","","","","",""
"image-slider-response","111","600834","0.0-20.0-0.0-0.23","2562","pics2/VE4.jpg","","","63","null","","","","","","","","","",""
"call-function","112","601040","0.0-21.0","","","","","","","","","","","","","","","",""
"html-button-response","113","602549","0.0-22.0","1509","<div style='width: 900px;'> <font size = 6><b> End of the second rating</b><br><br>","0","","","","","","","","","","","","",""
"pavlovia","114","602564","0.0-23.0","","","","","","","","","","","","","","","",""
"html-keyboard-response","115","607571","0.0-24.0","null","<div style='width: 700px;'> <font size=6><b>SHORT BREAK</font></b><br><br><i> Please wait 5 seconds to continue</i></div> ","","","","","","null","","","","","","","",""
"pavlovia","116","607574","0.0-25.0","","","","","","","","","","","","","","","",""
"html-button-response","117","632800","0.0-26.0","25224","<div style='width: 700px;'>In the main part of the study, you will be choosing between 2 items. When it's time to choose,  this symbol will appear: <br><br><img src='chooseS.png'></img><br><br>Below, a cue will signify the type of choice: </div><br><div style='width: 700px;'><div style='float: left; width: 50%'><img src='heartS.png'></img><p class='small'>Heart cue means you should choose the item you <b><i>prefer</b></i> more.</p></div><div class='float: right; width:50%'><img src='sizeS.png'></img><p class='small'>Size cue means you should choose the <b><i>larger</b></i> item. </p></div></div><br><div style='width: 700px;'>When you click, a green square will appear around the item you chose.<br></div><div><br>","0","","","","","","","","","","","","",""
"image-selector-fb-tut","118","638271","0.0-27.0","4466","0232.jpg,0123.jpg","","","","","","","false","0","","","","","",""
"image-selector-fb-tut","119","642838","0.0-28.0","3564","0232.jpg,0123.jpg","","","","","","","false","0","","","","","",""
"html-button-response","120","647515","0.0-29.0","4676","<div style='width: 900px;'>Your choices should be both <b><i>fast and accurate</b></i>. <br><br>You will have <i>4 seconds</i> to make each choice, which should be enough consider the options and click on one of the items.<br><br>","0","","","","","","","","","","","","",""
"html-button-response","121","656704","0.0-30.0","9187","<div style='width: 900px;'>Additionally, on some choice trials you will see the <b><i>no-choice cue</b></i>: <br><br><img src='noS.png'></img> <br><br>This cue means you can't make any choice. You can examine the items, but  can't click on any of them. Just wait patiently for the cue to dissapear.<br><br>","0","","","","","","","","","","","","",""
"image-selector-fb-tut","122","658709","0.0-31.0","null","0232.jpg,0123.jpg","","","","","","","false","null","","","","","",""
"html-button-response","123","694808","0.0-32.0","36097","<div style='width: 900px;'>After each choice the items will remain on the screen and you will see this symbol: <br><br><img src='judgeS.png'></img> <br><br>This means you should rate<b> the magnitude of the difference</b> between the items using a scale: </div><br><div style='width: 900px; '><div style='float: left; width: 50%; margin-right: 2.5em; align-self:left'><img src='heartS.png'></img><p class='small' style = 'text-align: justify;'>Heart cue means you should rate <b>how much you prefer</b> one of the items over the other. Moving the scale indicator to the left means you prefer the left one; moving it to the right - right one. The more you prefer one of them, the more towards that side you should move the scale indicator. </p></div><div class='float: right; width: 50%; margin-left: 2.5em;'><img src='sizeS.png'></img><p class='small' style='text-align: justify'>Size cue means you should rate <b>how much larger</b> is one of the items over the other. Moving the scale indicator to the left means you think the left is larger; moving it to the right - right one. The greater the difference in size, the more towards that side you should move the scale indicator.</div><br>","0","","","","","","","","","","","","",""
"image-slider-2AFC-tut","124","702472","0.0-33.0","7661","","","","34","","","","","","6401","34","","","",""
"image-slider-2AFC-tut","125","709140","0.0-34.0","6663","","","","44","","","","","","4456","44","","","",""
"html-button-response","126","728763","0.0-35.0","19618","<br><br><font size = 36><b> Examples </b></font><br><br><i> 1) I would like to eat some croissants a <b>lot more</b> than doritos right now:</i><br><img src='ex1.PNG', width='62%'></img><br><br><br><i> 2) I would like to eat some doritos a <b>bit more</b> than croissants right now, but just slightly:</i><br><img src='ex2.PNG' width='62%'></img>","0","","","","","","","","","","","","",""
"html-button-response","127","731482","0.0-36.0","2717","<div style='width: 900px;'><i>Now you know everything you need to do the task!</i> <br><br>Let's start by doing a <b>short training</b>, so you'll get used to how it works. </div><br>","0","","","","","","","","","","","","",""
"image-selector-fb","128","734493","0.0-37.0-0.0","null","pics2/VE2.jpg,pics2/VE5.jpg","","","","","","","false","null","","","noS.png","","",""
"image-slider-2AFC","129","739497","0.0-37.0-1.0","null","","","","null","","","","","","","","sizeS.png","3887","-39",""
"html-keyboard-response","130","740300","0.0-37.0-2.0","null","","","","","","","null","","","","","","","",""
"image-selector-fb","131","743306","0.0-37.1-0.1","null","pics2/VE1.jpg,pics2/FR3.jpg","","","","","","","false","null","","","noS.png","","",""
"image-slider-2AFC","132","747533","0.0-37.1-1.1","4225","","","","36","","","","","","","","heartS.png","3055","36",""
"html-keyboard-response","133","748336","0.0-37.1-2.1","null","","","","","","","null","","","","","","","",""
"image-selector-fb","134","751341","0.0-37.2-0.2","null","pics2/VE2.jpg,pics2/SA6.jpg","","","","","","","false","null","","","noS.png","","",""
"image-slider-2AFC","135","754687","0.0-37.2-1.2","3343","","","","-36","","","","","","","","heartS.png","2423","-36",""
"html-keyboard-response","136","755389","0.0-37.2-2.2","null","","","","","","","null","","","","","","","",""
"image-selector-fb","137","758395","0.0-37.3-0.3","null","pics2/SW3.jpg,pics2/FR3.jpg","","","","","","","false","null","","","noS.png","","",""
"image-slider-2AFC","138","761255","0.0-37.3-1.3","2856","","","","-29","","","","","","","","heartS.png","1928","-29",""
"html-keyboard-response","139","762057","0.0-37.3-2.3","null","","","","","","","null","","","","","","","",""
"image-selector-fb","140","766561","0.0-37.4-0.4","null","pics2/VE6.jpg,pics2/SW4.jpg","","","","","","","false","null","","","heartS.png","","",""
"image-slider-2AFC","141","766562","0.0-37.4-1.4","null","","","","null","","","","","","","","heartS.png","","",""
"html-keyboard-response","142","767413","0.0-37.4-2.4","null","","","","","","","null","","","","","","","",""
"image-selector-fb","143","771854","0.0-37.5-0.5","3936","pics2/FR6.jpg,pics2/VE1.jpg","","","","","","","true","1","","","sizeS.png","","",""
"image-slider-2AFC","144","776375","0.0-37.5-1.5","4517","","","","41","","","","","","","","sizeS.png","3710","41",""
"html-keyboard-response","145","777176","0.0-37.5-2.5","null","","","","","","","null","","","","","","","",""
"image-selector-fb","146","780015","0.0-37.6-0.6","2329","pics2/SA5.jpg,pics2/VE2.jpg","","","","","","","false","0","","","heartS.png","","",""
"image-slider-2AFC","147","782239","0.0-37.6-1.6","2218","","","","-37","","","","","","","","heartS.png","1268","-37",""
"html-keyboard-response","148","782940","0.0-37.6-2.6","null","","","","","","","null","","","","","","","",""
"image-selector-fb","149","785180","0.0-37.7-0.7","1736","pics2/SA5.jpg,pics2/VE1.jpg","","","","","","","false","0","","","heartS.png","","",""
"image-slider-2AFC","150","788819","0.0-37.7-1.7","3636","","","","-33","","","","","","","","heartS.png","2062","-33",""
"html-keyboard-response","151","789572","0.0-37.7-2.7","null","","","","","","","null","","","","","","","",""
"image-selector-fb","152","792578","0.0-37.8-0.8","null","pics2/VE5.jpg,pics2/VE1.jpg","","","","","","","false","null","","","noS.png","","",""
"image-slider-2AFC","153","797583","0.0-37.8-1.8","null","","","","null","","","","","","","","heartS.png","","",""
"html-keyboard-response","154","798436","0.0-37.8-2.8","null","","","","","","","null","","","","","","","",""
"image-selector-fb","155","801443","0.0-37.9-0.9","null","pics2/SA6.jpg,pics2/SW4.jpg","","","","","","","false","null","","","noS.png","","",""
"image-slider-2AFC","156","806449","0.0-37.9-1.9","null","","","","null","","","","","","","","heartS.png","","",""
"html-keyboard-response","157","807151","0.0-37.9-2.9","null","","","","","","","null","","","","","","","",""
"image-selector-fb","158","810406","0.0-37.10-0.10","2749","pics2/FR5.jpg,pics2/FR6.jpg","","","","","","","false","0","","","sizeS.png","","",""
"image-slider-2AFC","159","814645","0.0-37.10-1.10","4237","","","","-55","","","","","","","","sizeS.png","3147","-55",""
"html-keyboard-response","160","815497","0.0-37.10-2.10","null","","","","","","","null","","","","","","","",""
"image-selector-fb","161","818758","0.0-37.11-0.11","2755","pics2/VE6.jpg,pics2/VE1.jpg","","","","","","","false","0","","","heartS.png","","",""
"image-slider-2AFC","162","821586","0.0-37.11-1.11","2827","","","","-55","","","","","","","","heartS.png","1686","-55",""
"html-keyboard-response","163","822438","0.0-37.11-2.11","null","","","","","","","null","","","","","","","",""
"html-button-response","164","826217","0.0-38.0","3777","<i><font size=10>Good job!</font></i> <br><br>Before we begin, you have a chance to review the rules, in case something was not clear.<br><br>","0","","","","","","","","","","","","",""
"instructions","165","834599","0.0-39.0","8380","","","","","","","","","","","","","","","[{""page_index"":0,""viewing_time"":4203},{""page_index"":1,""viewing_time"":2391},{""page_index"":2,""viewing_time"":1785}]"
"html-button-response","166","848768","0.0-40.0","14165","<div style='width: 900px;'> <font size='40'>Great! Now you're ready to begin</font><br><br>The main part of the experiment will consist of <u>3 blocks</u>. Each block consists of 66 decisions and judgements. You will have time for a short break between blocks.<br><br><br><i><u>Do your best to respond within the time limit.</u></i><br><br><i> Press the button to start the experiment<br><br></i>","0","","","","","","","","","","","","",""
"image-selector-fb","167","851774","0.0-41.0-0.0","null","pics2/FR1.jpg,pics2/SA2.jpg","","","","","","","false","null","","","noS.png","","",""
"image-slider-2AFC","168","855869","0.0-41.0-1.0","4087","","","","52","","","","","","","","heartS.png","3259","52",""
"html-keyboard-response","169","856721","0.0-41.0-2.0","null","","","","","","","null","","","","","","","",""
"image-selector-fb","170","860057","0.0-41.1-0.1","2831","pics2/SA4.jpg,pics2/SA1.jpg","","","","","","","true","1","","","sizeS.png","","",""
"image-slider-2AFC","171","863539","0.0-41.1-1.1","3478","","","","73","","","","","","","","heartS.png","2228","73",""
"html-keyboard-response","172","864240","0.0-41.1-2.1","null","","","","","","","null","","","","","","","",""
"image-selector-fb","173","866820","0.0-41.2-0.2","2075","pics2/SW1.jpg,pics2/SA2.jpg","","","","","","","false","0","","","heartS.png","","",""
"image-slider-2AFC","174","869747","0.0-41.2-1.2","2924","","","","-62","","","","","","","","sizeS.png","2168","-62",""
"html-keyboard-response","175","870498","0.0-41.2-2.2","null","","","","","","","null","","","","","","","",""
"image-selector-fb","176","873505","0.0-41.3-0.3","null","pics2/SA4.jpg,pics2/SA3.jpg","","","","","","","false","null","","","noS.png","","",""
"image-slider-2AFC","177","878509","0.0-41.3-1.3","null","","","","null","","","","","","","","sizeS.png","4933","30",""
"html-keyboard-response","178","879210","0.0-41.3-2.3","null","","","","","","","null","","","","","","","",""
"image-selector-fb","179","882675","0.0-41.4-0.4","2960","pics2/SA4.jpg,pics2/FR2.jpg","","","","","","","true","1","","","sizeS.png","","",""
"image-slider-2AFC","180","887250","0.0-41.4-1.4","4572","","","","-34","","","","","","","","heartS.png","2535,3311","-27,-34",""
"html-keyboard-response","181","888101","0.0-41.4-2.4","null","","","","","","","null","","","","","","","",""
"image-selector-fb","182","891414","0.0-41.5-0.5","2806","pics2/SW1.jpg,pics2/VE3.jpg","","","","","","","false","0","","","sizeS.png","","",""
"image-slider-2AFC","183","894765","0.0-41.5-1.5","3349","","","","-69","","","","","","","","heartS.png","2108","-69",""
"html-keyboard-response","184","895517","0.0-41.5-2.5","null","","","","","","","null","","","","","","","",""
"image-selector-fb","185","898524","0.0-41.6-0.6","null","pics2/SA2.jpg,pics2/SA1.jpg","","","","","","","false","null","","","noS.png","","",""
"image-slider-2AFC","186","903236","0.0-41.6-1.6","4710","","","","52","","","","","","","","sizeS.png","3703","52",""
"html-keyboard-response","187","903988","0.0-41.6-2.6","null","","","","","","","null","","","","","","","",""
"image-selector-fb","188","907147","0.0-41.7-0.7","2654","pics2/SA2.jpg,pics2/SW2.jpg","","","","","","","true","1","","","sizeS.png","","",""
"image-slider-2AFC","189","910863","0.0-41.7-1.7","3713","","","","-41","","","","","","","","heartS.png","2775","-41",""
"html-keyboard-response","190","911614","0.0-41.7-2.7","null","","","","","","","null","","","","","","","",""
"image-selector-fb","191","914622","0.0-41.8-0.8","null","pics2/SA3.jpg,pics2/SW5.jpg","","","","","","","false","null","","","noS.png","","",""
"image-slider-2AFC","192","918026","0.0-41.8-1.8","3401","","","","-37","","","","","","","","heartS.png","2523","-37",""
"html-keyboard-response","193","918828","0.0-41.8-2.8","null","","","","","","","null","","","","","","","",""
"image-selector-fb","194","922799","0.0-41.9-0.9","3464","pics2/FR2.jpg,pics2/SW5.jpg","","","","","","","true","1","","","heartS.png","","",""
"image-slider-2AFC","195","926770","0.0-41.9-1.9","3968","","","","-31","","","","","","","","sizeS.png","3050","-31",""
"html-keyboard-response","196","927621","0.0-41.9-2.9","null","","","","","","","null","","","","","","","",""
"image-selector-fb","197","929936","0.0-41.10-0.10","1810","pics2/SA2.jpg,pics2/FR2.jpg","","","","","","","true","1","","","sizeS.png","","",""
"image-slider-2AFC","198","933875","0.0-41.10-1.10","3936","","","","22","","","","","","","","sizeS.png","2816","22",""
"html-keyboard-response","199","934676","0.0-41.10-2.10","null","","","","","","","null","","","","","","","",""
"image-selector-fb","200","937606","0.0-41.11-0.11","2424","pics2/SW1.jpg,pics2/VE4.jpg","","","","","","","false","0","","","sizeS.png","","",""
"image-slider-2AFC","201","940962","0.0-41.11-1.11","3353","","","","-32","","","","","","","","sizeS.png","2238","-32",""
"html-keyboard-response","202","941764","0.0-41.11-2.11","null","","","","","","","null","","","","","","","",""
"image-selector-fb","203","945315","0.0-41.12-0.12","3046","pics2/SW2.jpg,pics2/SA2.jpg","","","","","","","true","1","","","heartS.png","","",""
"image-slider-2AFC","204","949981","0.0-41.12-1.12","4663","","","","-35","","","","","","","","sizeS.png","3582","-35",""
"html-keyboard-response","205","950783","0.0-41.12-2.12","null","","","","","","","null","","","","","","","",""
"image-selector-fb","206","953792","0.0-41.13-0.13","null","pics2/SA2.jpg,pics2/SW1.jpg","","","","","","","false","null","","","noS.png","","",""
"image-slider-2AFC","207","958135","0.0-41.13-1.13","4340","","","","30","","","","","","","","heartS.png","3654","30",""
"html-keyboard-response","208","958887","0.0-41.13-2.13","null","","","","","","","null","","","","","","","",""
"image-selector-fb","209","961891","0.0-41.14-0.14","null","pics2/VE3.jpg,pics2/SA3.jpg","","","","","","","false","null","","","noS.png","","",""
"image-slider-2AFC","210","966124","0.0-41.14-1.14","4230","","","","-11","","","","","","","","heartS.png","3302","-11",""
"html-keyboard-response","211","966876","0.0-41.14-2.14","null","","","","","","","null","","","","","","","",""
"image-selector-fb","212","970308","0.0-41.15-0.15","2927","pics2/SW5.jpg,pics2/FR1.jpg","","","","","","","true","1","","","heartS.png","","",""
"image-slider-2AFC","213","973836","0.0-41.15-1.15","3524","","","","29","","","","","","","","heartS.png","2606","29",""
"html-keyboard-response","214","974638","0.0-41.15-2.15","null","","","","","","","null","","","","","","","",""
"image-selector-fb","215","977643","0.0-41.16-0.16","null","pics2/SW6.jpg,pics2/SA2.jpg","","","","","","","false","null","","","noS.png","","",""
"image-slider-2AFC","216","981608","0.0-41.16-1.16","3960","","","","-17","","","","","","","","sizeS.png","3294","-17",""
"html-keyboard-response","217","982360","0.0-41.16-2.16","null","","","","","","","null","","","","","","","",""
"image-selector-fb","218","985399","0.0-41.17-0.17","2533","pics2/VE3.jpg,pics2/FR2.jpg","","","","","","","true","1","","","sizeS.png","","",""
"image-slider-2AFC","219","988476","0.0-41.17-1.17","3075","","","","16","","","","","","","","heartS.png","2128","16",""
"html-keyboard-response","220","989228","0.0-41.17-2.17","null","","","","","","","null","","","","","","","",""
"image-selector-fb","221","991919","0.0-41.18-0.18","2186","pics2/FR1.jpg,pics2/SA1.jpg","","","","","","","true","1","","","sizeS.png","","",""
"image-slider-2AFC","222","995442","0.0-41.18-1.18","3520","","","","42","","","","","","","","sizeS.png","2109","42",""
"html-keyboard-response","223","996244","0.0-41.18-2.18","null","","","","","","","null","","","","","","","",""
"image-selector-fb","224","998285","0.0-41.19-0.19","1536","pics2/VE3.jpg,pics2/SW1.jpg","","","","","","","true","1","","","heartS.png","","",""
"image-slider-2AFC","225","1001658","0.0-41.19-1.19","3370","","","","49","","","","","","","","heartS.png","2280","49",""
"html-keyboard-response","226","1002359","0.0-41.19-2.19","null","","","","","","","null","","","","","","","",""
"image-selector-fb","227","1004865","0.0-41.20-0.20","1999","pics2/VE4.jpg,pics2/SW1.jpg","","","","","","","true","1","","","heartS.png","","",""
"image-slider-2AFC","228","1009620","0.0-41.20-1.20","4751","","","","38","","","","","","","","sizeS.png","3378","38",""
"html-keyboard-response","229","1010473","0.0-41.20-2.20","null","","","","","","","null","","","","","","","",""
"image-selector-fb","230","1012675","0.0-41.21-0.21","1696","pics2/SW1.jpg,pics2/SW6.jpg","","","","","","","false","0","","","heartS.png","","",""
"image-slider-2AFC","231","1015603","0.0-41.21-1.21","2924","","","","-72","","","","","","","","heartS.png","1876","-72",""
"html-keyboard-response","232","1016405","0.0-41.21-2.21","null","","","","","","","null","","","","","","","",""
"image-selector-fb","233","1018880","0.0-41.22-0.22","1969","pics2/FR1.jpg,pics2/SA3.jpg","","","","","","","false","0","","","sizeS.png","","",""
"image-slider-2AFC","234","1021626","0.0-41.22-1.22","2743","","","","-34","","","","","","","","sizeS.png","1784","-34",""
"html-keyboard-response","235","1022328","0.0-41.22-2.22","null","","","","","","","null","","","","","","","",""
"image-selector-fb","236","1025333","0.0-41.23-0.23","null","pics2/SW2.jpg,pics2/SA3.jpg","","","","","","","false","null","","","noS.png","","",""
"image-slider-2AFC","237","1029844","0.0-41.23-1.23","4507","","","","-26","","","","","","","","sizeS.png","3527","-26",""
"html-keyboard-response","238","1030596","0.0-41.23-2.23","null","","","","","","","null","","","","","","","",""
"image-selector-fb","239","1033171","0.0-41.24-0.24","2070","pics2/FR2.jpg,pics2/SW1.jpg","","","","","","","true","1","","","heartS.png","","",""
"image-slider-2AFC","240","1038176","0.0-41.24-1.24","null","","","","null","","","","","","","","heartS.png","2381,4328","34,62",""
"html-keyboard-response","241","1039030","0.0-41.24-2.24","null","","","","","","","null","","","","","","","",""
"image-selector-fb","242","1042035","0.0-41.25-0.25","null","pics2/SW6.jpg,pics2/SW2.jpg","","","","","","","false","null","","","noS.png","","",""
"image-slider-2AFC","243","1045662","0.0-41.25-1.25","3624","","","","46","","","","","","","","heartS.png","2653","46",""
"html-keyboard-response","244","1046465","0.0-41.25-2.25","null","","","","","","","null","","","","","","","",""
"image-selector-fb","245","1049232","0.0-41.26-0.26","2262","pics2/VE4.jpg,pics2/SA3.jpg","","","","","","","false","0","","","heartS.png","","",""
"image-slider-2AFC","246","1052846","0.0-41.26-1.26","3612","","","","5","","","","","","","","sizeS.png","2964","5",""
"html-keyboard-response","247","1053548","0.0-41.26-2.26","null","","","","","","","null","","","","","","","",""
"image-selector-fb","248","1055944","0.0-41.27-0.27","1890","pics2/FR2.jpg,pics2/SA1.jpg","","","","","","","true","1","","","heartS.png","","",""
"image-slider-2AFC","249","1058751","0.0-41.27-1.27","2804","","","","32","","","","","","","","heartS.png","2109","32",""
"html-keyboard-response","250","1059503","0.0-41.27-2.27","null","","","","","","","null","","","","","","","",""
"image-selector-fb","251","1063330","0.0-41.28-0.28","3321","pics2/SA3.jpg,pics2/SW5.jpg","","","","","","","true","1","","","sizeS.png","","",""
"image-slider-2AFC","252","1066370","0.0-41.28-1.28","3036","","","","21","","","","","","","","sizeS.png","2311","21",""
"html-keyboard-response","253","1067122","0.0-41.28-2.28","null","","","","","","","null","","","","","","","",""
"image-selector-fb","254","1070128","0.0-41.29-0.29","null","pics2/FR2.jpg,pics2/SA2.jpg","","","","","","","false","null","","","noS.png","","",""
"image-slider-2AFC","255","1074399","0.0-41.29-1.29","4267","","","","-32","","","","","","","","sizeS.png","2857","-32",""
"html-keyboard-response","256","1075151","0.0-41.29-2.29","null","","","","","","","null","","","","","","","",""
"image-selector-fb","257","1077584","0.0-41.30-0.30","1930","pics2/SA3.jpg,pics2/FR1.jpg","","","","","","","true","1","","","heartS.png","","",""
"image-slider-2AFC","258","1080514","0.0-41.30-1.30","2928","","","","41","","","","","","","","sizeS.png","1970","41",""
"html-keyboard-response","259","1081269","0.0-41.30-2.30","null","","","","","","","null","","","","","","","",""
"image-selector-fb","260","1084348","0.0-41.31-0.31","2566","pics2/SA4.jpg,pics2/SW2.jpg","","","","","","","false","0","","","heartS.png","","",""
"image-slider-2AFC","261","1087880","0.0-41.31-1.31","3530","","","","18","","","","","","","","sizeS.png","2572","18",""
"html-keyboard-response","262","1088733","0.0-41.31-2.31","null","","","","","","","null","","","","","","","",""
"image-selector-fb","263","1091490","0.0-41.32-0.32","2250","pics2/SA1.jpg,pics2/SA4.jpg","","","","","","","false","0","","","heartS.png","","",""
"image-slider-2AFC","264","1096304","0.0-41.32-1.32","4810","","","","-55","","","","","","","","sizeS.png","2378,3438","-34,-55",""
"html-keyboard-response","265","1097056","0.0-41.32-2.32","null","","","","","","","null","","","","","","","",""
"image-selector-fb","266","1099017","0.0-41.33-0.33","1455","pics2/SA3.jpg,pics2/SA2.jpg","","","","","","","true","1","","","heartS.png","","",""
"image-slider-2AFC","267","1102843","0.0-41.33-1.33","3823","","","","59","","","","","","","","heartS.png","2400","59",""
"html-keyboard-response","268","1103595","0.0-41.33-2.33","null","","","","","","","null","","","","","","","",""
"image-selector-fb","269","1105515","0.0-41.34-0.34","1415","pics2/SW2.jpg,pics2/SA4.jpg","","","","","","","false","0","","","sizeS.png","","",""
"image-slider-2AFC","270","1108452","0.0-41.34-1.34","2935","","","","39","","","","","","","","heartS.png","1856","39",""
"html-keyboard-response","271","1109254","0.0-41.34-2.34","null","","","","","","","null","","","","","","","",""
"image-selector-fb","272","1112468","0.0-41.35-0.35","2708","pics2/SA2.jpg,pics2/VE4.jpg","","","","","","","true","1","","","sizeS.png","","",""
"image-slider-2AFC","273","1116293","0.0-41.35-1.35","3822","","","","13","","","","","","","","sizeS.png","2460","13",""
"html-keyboard-response","274","1116995","0.0-41.35-2.35","null","","","","","","","null","","","","","","","",""
"image-selector-fb","275","1120001","0.0-41.36-0.36","null","pics2/VE4.jpg,pics2/SW5.jpg","","","","","","","false","null","","","noS.png","","",""
"image-slider-2AFC","276","1124092","0.0-41.36-1.36","4087","","","","48","","","","","","","","sizeS.png","3109","48",""
"html-keyboard-response","277","1124794","0.0-41.36-2.36","null","","","","","","","null","","","","","","","",""
"image-selector-fb","278","1127590","0.0-41.37-0.37","2291","pics2/SA2.jpg,pics2/SA3.jpg","","","","","","","true","1","","","sizeS.png","","",""
"image-slider-2AFC","279","1130086","0.0-41.37-1.37","2492","","","","15","","","","","","","","sizeS.png","1847","15",""
"html-keyboard-response","280","1130788","0.0-41.37-2.37","null","","","","","","","null","","","","","","","",""
"image-selector-fb","281","1133795","0.0-41.38-0.38","null","pics2/VE3.jpg,pics2/SW2.jpg","","","","","","","false","null","","","noS.png","","",""
"image-slider-2AFC","282","1137835","0.0-41.38-1.38","4036","","","","23","","","","","","","","heartS.png","3159","23",""
"html-keyboard-response","283","1138538","0.0-41.38-2.38","null","","","","","","","null","","","","","","","",""
"image-selector-fb","284","1141544","0.0-41.39-0.39","null","pics2/SW1.jpg,pics2/VE4.jpg","","","","","","","false","null","","","noS.png","","",""
"image-slider-2AFC","285","1145835","0.0-41.39-1.39","4288","","","","-46","","","","","","","","sizeS.png","3399","-46",""
"html-keyboard-response","286","1146688","0.0-41.39-2.39","null","","","","","","","null","","","","","","","",""
"image-selector-fb","287","1149527","0.0-41.40-0.40","2333","pics2/VE4.jpg,pics2/SA2.jpg","","","","","","","true","1","","","heartS.png","","",""
"image-slider-2AFC","288","1154530","0.0-41.40-1.40","null","","","","null","","","","","","","","sizeS.png","4842","2",""
"html-keyboard-response","289","1155233","0.0-41.40-2.40","null","","","","","","","null","","","","","","","",""
"image-selector-fb","290","1157840","0.0-41.41-0.41","2101","pics2/VE3.jpg,pics2/SW6.jpg","","","","","","","true","1","","","heartS.png","","",""
"image-slider-2AFC","291","1160374","0.0-41.41-1.41","2531","","","","-4","","","","","","","","sizeS.png","1674","-4",""
"html-keyboard-response","292","1161077","0.0-41.41-2.41","null","","","","","","","null","","","","","","","",""
"image-selector-fb","293","1163976","0.0-41.42-0.42","2392","pics2/FR1.jpg,pics2/VE4.jpg","","","","","","","false","0","","","sizeS.png","","",""
"image-slider-2AFC","294","1167239","0.0-41.42-1.42","3260","","","","-31","","","","","","","","sizeS.png","2442","-31",""
"html-keyboard-response","295","1168091","0.0-41.42-2.42","null","","","","","","","null","","","","","","","",""
"image-selector-fb","296","1171101","0.0-41.43-0.43","null","pics2/FR2.jpg,pics2/SA4.jpg","","","","","","","false","null","","","noS.png","","",""
"image-slider-2AFC","297","1174940","0.0-41.43-1.43","3834","","","","36","","","","","","","","heartS.png","2550","36",""
"html-keyboard-response","298","1175743","0.0-41.43-2.43","null","","","","","","","null","","","","","","","",""
"image-selector-fb","299","1177599","0.0-41.44-0.44","1350","pics2/SA1.jpg,pics2/FR1.jpg","","","","","","","false","0","","","heartS.png","","",""
"image-slider-2AFC","300","1180548","0.0-41.44-1.44","2946","","","","-65","","","","","","","","sizeS.png","1797","-65",""
"html-keyboard-response","301","1181350","0.0-41.44-2.44","null","","","","","","","null","","","","","","","",""
"image-selector-fb","302","1184037","0.0-41.45-0.45","2180","pics2/SA3.jpg,pics2/SW2.jpg","","","","","","","true","1","","","sizeS.png","","",""
"image-slider-2AFC","303","1187793","0.0-41.45-1.45","3753","","","","39","","","","","","","","sizeS.png","2482","39",""
"html-keyboard-response","304","1188495","0.0-41.45-2.45","null","","","","","","","null","","","","","","","",""
"image-selector-fb","305","1191741","0.0-41.46-0.46","2734","pics2/SA4.jpg,pics2/FR1.jpg","","","","","","","false","0","","","heartS.png","","",""
"image-slider-2AFC","306","1196128","0.0-41.46-1.46","4382","","","","5","","","","","","","","sizeS.png","3667","5",""
"html-keyboard-response","307","1196930","0.0-41.46-2.46","null","","","","","","","null","","","","","","","",""
"image-selector-fb","308","1199031","0.0-41.47-0.47","1594","pics2/SA1.jpg,pics2/SW2.jpg","","","","","","","false","0","","","heartS.png","","",""
"image-slider-2AFC","309","1202575","0.0-41.47-1.47","3541","","","","-11","","","","","","","","sizeS.png","2854","-11",""
"html-keyboard-response","310","1203328","0.0-41.47-2.47","null","","","","","","","null","","","","","","","",""
"image-selector-fb","311","1205802","0.0-41.48-0.48","1968","pics2/FR1.jpg,pics2/SW1.jpg","","","","","","","true","1","","","sizeS.png","","",""
"image-slider-2AFC","312","1209579","0.0-41.48-1.48","3775","","","","19","","","","","","","","sizeS.png","2705","19",""
"html-keyboard-response","313","1210381","0.0-41.48-2.48","null","","","","","","","null","","","","","","","",""
"image-selector-fb","314","1212906","0.0-41.49-0.49","2019","pics2/VE4.jpg,pics2/VE3.jpg","","","","","","","true","1","","","sizeS.png","","",""
"image-slider-2AFC","315","1216662","0.0-41.49-1.49","3752","","","","-32","","","","","","","","heartS.png","1695","-32",""
"html-keyboard-response","316","1217414","0.0-41.49-2.49","null","","","","","","","null","","","","","","","",""
"image-selector-fb","317","1219858","0.0-41.50-0.50","1939","pics2/FR2.jpg,pics2/VE3.jpg","","","","","","","false","0","","","heartS.png","","",""
"image-slider-2AFC","318","1222949","0.0-41.50-1.50","3087","","","","3","","","","","","","","sizeS.png","2279","3",""
"html-keyboard-response","319","1223802","0.0-41.50-2.50","null","","","","","","","null","","","","","","","",""
"image-selector-fb","320","1225630","0.0-41.51-0.51","1322","pics2/SA1.jpg,pics2/SW6.jpg","","","","","","","false","0","","","heartS.png","","",""
"image-slider-2AFC","321","1227885","0.0-41.51-1.51","2245","","","","-47","","","","","","","","sizeS.png","1103","-47",""
"html-keyboard-response","322","1228687","0.0-41.51-2.51","null","","","","","","","null","","","","","","","",""
"image-selector-fb","323","1230586","0.0-41.52-0.52","1394","pics2/SA4.jpg,pics2/SW5.jpg","","","","","","","true","1","","","sizeS.png","","",""
"image-slider-2AFC","324","1233525","0.0-41.52-1.52","2937","","","","26","","","","","","","","sizeS.png","2190","26",""
"html-keyboard-response","325","1234378","0.0-41.52-2.52","null","","","","","","","null","","","","","","","",""
"image-selector-fb","326","1236469","0.0-41.53-0.53","1585","pics2/SA1.jpg,pics2/VE4.jpg","","","","","","","false","0","","","sizeS.png","","",""
"image-slider-2AFC","327","1239348","0.0-41.53-1.53","2876","","","","-52","","","","","","","","heartS.png","1615","-52",""
"html-keyboard-response","328","1240050","0.0-41.53-2.53","null","","","","","","","null","","","","","","","",""
"image-selector-fb","329","1242537","0.0-41.54-0.54","1981","pics2/FR1.jpg,pics2/SA4.jpg","","","","","","","false","0","","","sizeS.png","","",""
"image-slider-2AFC","330","1245436","0.0-41.54-1.54","2897","","","","37","","","","","","","","heartS.png","2141","37",""
"html-keyboard-response","331","1246139","0.0-41.54-2.54","null","","","","","","","null","","","","","","","",""
"image-selector-fb","332","1249146","0.0-41.55-0.55","null","pics2/SA2.jpg,pics2/VE4.jpg","","","","","","","false","null","","","noS.png","","",""
"image-slider-2AFC","333","1253552","0.0-41.55-1.55","4402","","","","25","","","","","","","","sizeS.png","3533","25",""
"html-keyboard-response","334","1254304","0.0-41.55-2.55","null","","","","","","","null","","","","","","","",""
"image-selector-fb","335","1257311","0.0-41.56-0.56","null","pics2/FR1.jpg,pics2/SW2.jpg","","","","","","","false","null","","","noS.png","","",""
"image-slider-2AFC","336","1260732","0.0-41.56-1.56","3417","","","","28","","","","","","","","sizeS.png","2731","28",""
"html-keyboard-response","337","1261485","0.0-41.56-2.56","null","","","","","","","null","","","","","","","",""
"image-selector-fb","338","1264492","0.0-41.57-0.57","null","pics2/SA1.jpg,pics2/SW5.jpg","","","","","","","false","null","","","noS.png","","",""
"image-slider-2AFC","339","1268889","0.0-41.57-1.57","4394","","","","-42","","","","","","","","heartS.png","3184","-42",""
"html-keyboard-response","340","1269642","0.0-41.57-2.57","null","","","","","","","null","","","","","","","",""
"image-selector-fb","341","1272649","0.0-41.58-0.58","null","pics2/SW2.jpg,pics2/SW1.jpg","","","","","","","false","null","","","noS.png","","",""
"image-slider-2AFC","342","1277031","0.0-41.58-1.58","4379","","","","20","","","","","","","","sizeS.png","3551","20",""
"html-keyboard-response","343","1277785","0.0-41.58-2.58","null","","","","","","","null","","","","","","","",""
"image-selector-fb","344","1280792","0.0-41.59-0.59","null","pics2/FR2.jpg,pics2/SA3.jpg","","","","","","","false","null","","","noS.png","","",""
"image-slider-2AFC","345","1284705","0.0-41.59-1.59","3910","","","","19","","","","","","","","heartS.png","3032","19",""
"html-keyboard-response","346","1285457","0.0-41.59-2.59","null","","","","","","","null","","","","","","","",""
"image-selector-fb","347","1289669","0.0-41.60-0.60","3705","pics2/SW2.jpg,pics2/VE3.jpg","","","","","","","false","0","","","sizeS.png","","",""
"image-slider-2AFC","348","1292626","0.0-41.60-1.60","2953","","","","-34","","","","","","","","heartS.png","1663","-34",""
"html-keyboard-response","349","1293429","0.0-41.60-2.60","null","","","","","","","null","","","","","","","",""
"image-selector-fb","350","1296436","0.0-41.61-0.61","null","pics2/SA4.jpg,pics2/VE4.jpg","","","","","","","false","null","","","noS.png","","",""
"image-slider-2AFC","351","1300298","0.0-41.61-1.61","3859","","","","-27","","","","","","","","heartS.png","3080","-27",""
"html-keyboard-response","352","1301051","0.0-41.61-2.61","null","","","","","","","null","","","","","","","",""
"image-selector-fb","353","1304313","0.0-41.62-0.62","2755","pics2/SA2.jpg,pics2/SA4.jpg","","","","","","","false","0","","","sizeS.png","","",""
"image-slider-2AFC","354","1307852","0.0-41.62-1.62","3535","","","","-2","","","","","","","","heartS.png","2765","-2",""
"html-keyboard-response","355","1308654","0.0-41.62-2.62","null","","","","","","","null","","","","","","","",""
"image-selector-fb","356","1311523","0.0-41.63-0.63","2363","pics2/SA4.jpg,pics2/SW1.jpg","","","","","","","true","1","","","heartS.png","","",""
"image-slider-2AFC","357","1315555","0.0-41.63-1.63","4028","","","","20","","","","","","","","heartS.png","3051","20",""
"html-keyboard-response","358","1316408","0.0-41.63-2.63","null","","","","","","","null","","","","","","","",""
"image-selector-fb","359","1318693","0.0-41.64-0.64","1778","pics2/SW1.jpg,pics2/SA3.jpg","","","","","","","false","0","","","heartS.png","","",""
"image-slider-2AFC","360","1321675","0.0-41.64-1.64","2978","","","","-38","","","","","","","","sizeS.png","1969","-38",""
"html-keyboard-response","361","1322528","0.0-41.64-2.64","null","","","","","","","null","","","","","","","",""
"image-selector-fb","362","1324914","0.0-41.65-0.65","1880","pics2/SW1.jpg,pics2/SW2.jpg","","","","","","","false","0","","","heartS.png","","",""
"image-slider-2AFC","363","1328886","0.0-41.65-1.65","3969","","","","-32","","","","","","","","heartS.png","2958","-32",""
"html-keyboard-response","364","1329739","0.0-41.65-2.65","null","","","","","","","null","","","","","","","",""
"pavlovia","365","1329763","0.0-42.0","","","","","","","","","","","","","","","",""
"html-keyboard-response","366","1334765","0.0-43.0","null","<div style='width: 700px;'> <font size=6><b>SHORT BREAK</font></b><br><br><i> Please wait 5 seconds to continue</i></div> ","","","","","","null","","","","","","","",""
"pavlovia","367","1334769","0.0-44.0","","","","","","","","","","","","","","","",""
"html-button-response","368","1339585","0.0-45.0","4812","<div style='width: 700px;'> <font size=6><b>BLOCK 2</font></b><br><br>Press the button whenever you feel ready to start the second block (there are 3 in total)</div>","0","","","","","","","","","","","","",""
"image-selector-fb","369","1342590","0.0-46.0-0.0","null","pics2/VE3.jpg,pics2/SA1.jpg","","","","","","","false","null","","","noS.png","","",""
"image-slider-2AFC","370","1346499","0.0-46.0-1.0","3906","","","","14","","","","","","","","sizeS.png","3128","14",""
"html-keyboard-response","371","1347351","0.0-46.0-2.0","null","","","","","","","null","","","","","","","",""
"image-selector-fb","372","1350150","0.0-46.1-0.1","2293","pics2/VE3.jpg,pics2/SA3.jpg","","","","","","","true","1","","","heartS.png","","",""
"image-slider-2AFC","373","1353352","0.0-46.1-1.1","3198","","","","17","","","","","","","","heartS.png","2360","17",""
"html-keyboard-response","374","1354204","0.0-46.1-2.1","null","","","","","","","null","","","","","","","",""
"image-selector-fb","375","1356185","0.0-46.2-0.2","1475","pics2/SW1.jpg,pics2/FR1.jpg","","","","","","","false","0","","","heartS.png","","",""
"image-slider-2AFC","376","1358608","0.0-46.2-1.2","2420","","","","-49","","","","","","","","heartS.png","1723","-49",""
"html-keyboard-response","377","1359411","0.0-46.2-2.2","null","","","","","","","null","","","","","","","",""
"image-selector-fb","378","1361251","0.0-46.3-0.3","1333","pics2/SW2.jpg,pics2/SW1.jpg","","","","","","","false","0","","","sizeS.png","","",""
"image-slider-2AFC","379","1363564","0.0-46.3-1.3","2311","","","","-39","","","","","","","","sizeS.png","1614","-39",""
"html-keyboard-response","380","1364417","0.0-46.3-2.3","null","","","","","","","null","","","","","","","",""
"image-selector-fb","381","1366106","0.0-46.4-0.4","1184","pics2/SA3.jpg,pics2/SA1.jpg","","","","","","","true","1","","","sizeS.png","","",""
"image-slider-2AFC","382","1369044","0.0-46.4-1.4","2934","","","","60","","","","","","","","heartS.png","1654","60",""
"html-keyboard-response","383","1369747","0.0-46.4-2.4","null","","","","","","","null","","","","","","","",""
"image-selector-fb","384","1372753","0.0-46.5-0.5","null","pics2/SA1.jpg,pics2/SA3.jpg","","","","","","","false","null","","","noS.png","","",""
"image-slider-2AFC","385","1375617","0.0-46.5-1.5","2860","","","","-61","","","","","","","","sizeS.png","1759","-61",""
"html-keyboard-response","386","1376469","0.0-46.5-2.5","null","","","","","","","null","","","","","","","",""
"image-selector-fb","387","1378662","0.0-46.6-0.6","1687","pics2/SW5.jpg,pics2/SW2.jpg","","","","","","","true","1","","","heartS.png","","",""
"image-slider-2AFC","388","1381168","0.0-46.6-1.6","2502","","","","22","","","","","","","","heartS.png","1694","22",""
"html-keyboard-response","389","1381871","0.0-46.6-2.6","null","","","","","","","null","","","","","","","",""
"image-selector-fb","390","1384877","0.0-46.7-0.7","null","pics2/FR1.jpg,pics2/SW1.jpg","","","","","","","false","null","","","noS.png","","",""
"image-slider-2AFC","391","1388395","0.0-46.7-1.7","3514","","","","28","","","","","","","","sizeS.png","2213","28",""
"html-keyboard-response","392","1389248","0.0-46.7-2.7","null","","","","","","","null","","","","","","","",""
"image-selector-fb","393","1392167","0.0-46.8-0.8","2413","pics2/SA1.jpg,pics2/SA2.jpg","","","","","","","false","0","","","heartS.png","","",""
"image-slider-2AFC","394","1395128","0.0-46.8-1.8","2957","","","","-15","","","","","","","","heartS.png","2090","-15",""
"html-keyboard-response","395","1395981","0.0-46.8-2.8","null","","","","","","","null","","","","","","","",""
"image-selector-fb","396","1398990","0.0-46.9-0.9","2502","pics2/FR2.jpg,pics2/VE4.jpg","","","","","","","true","1","","","heartS.png","","",""
"image-slider-2AFC","397","1401043","0.0-46.9-1.9","2048","","","","13","","","","","","","","heartS.png","1303","13",""
"html-keyboard-response","398","1401795","0.0-46.9-2.9","null","","","","","","","null","","","","","","","",""
"image-selector-fb","399","1403794","0.0-46.10-0.10","1493","pics2/SA1.jpg,pics2/SW5.jpg","","","","","","","false","0","","","sizeS.png","","",""
"image-slider-2AFC","400","1406884","0.0-46.10-1.10","3087","","","","-45","","","","","","","","sizeS.png","2209","-45",""
"html-keyboard-response","401","1407736","0.0-46.10-2.10","null","","","","","","","null","","","","","","","",""
"image-selector-fb","402","1410744","0.0-46.11-0.11","null","pics2/SA4.jpg,pics2/SA1.jpg","","","","","","","false","null","","","noS.png","","",""
"image-slider-2AFC","403","1414393","0.0-46.11-1.11","3646","","","","36","","","","","","","","heartS.png","2798","36",""
"html-keyboard-response","404","1415246","0.0-46.11-2.11","null","","","","","","","null","","","","","","","",""
"image-selector-fb","405","1417248","0.0-46.12-0.12","1495","pics2/SW2.jpg,pics2/SW5.jpg","","","","","","","false","0","","","sizeS.png","","",""
"image-slider-2AFC","406","1419561","0.0-46.12-1.12","2309","","","","-25","","","","","","","","heartS.png","1250","-25",""
"html-keyboard-response","407","1420264","0.0-46.12-2.12","null","","","","","","","null","","","","","","","",""
"image-selector-fb","408","1423272","0.0-46.13-0.13","null","pics2/FR1.jpg,pics2/SW5.jpg","","","","","","","false","null","","","noS.png","","",""
"image-slider-2AFC","409","1426638","0.0-46.13-1.13","3362","","","","14","","","","","","","","heartS.png","2675","14",""
"html-keyboard-response","410","1427440","0.0-46.13-2.13","null","","","","","","","null","","","","","","","",""
"image-selector-fb","411","1430448","0.0-46.14-0.14","null","pics2/SW6.jpg,pics2/SW5.jpg","","","","","","","false","null","","","noS.png","","",""
"image-slider-2AFC","412","1435227","0.0-46.14-1.14","4776","","","","20","","","","","","","","sizeS.png","3959","20",""
"html-keyboard-response","413","1435980","0.0-46.14-2.14","null","","","","","","","null","","","","","","","",""
"image-selector-fb","414","1438940","0.0-46.15-0.15","2453","pics2/SW1.jpg,pics2/SA1.jpg","","","","","","","false","0","","","sizeS.png","","",""
"image-slider-2AFC","415","1440983","0.0-46.15-1.15","2041","","","","-8","","","","","","","","sizeS.png","1213","-8",""
"html-keyboard-response","416","1441736","0.0-46.15-2.15","null","","","","","","","null","","","","","","","",""
"image-selector-fb","417","1444742","0.0-46.16-0.16","null","pics2/FR2.jpg,pics2/VE4.jpg","","","","","","","false","null","","","noS.png","","",""
"image-slider-2AFC","418","1448637","0.0-46.16-1.16","3892","","","","-19","","","","","","","","sizeS.png","2801","-19",""
"html-keyboard-response","419","1449439","0.0-46.16-2.16","null","","","","","","","null","","","","","","","",""
"image-selector-fb","420","1451198","0.0-46.17-0.17","1252","pics2/SA4.jpg,pics2/VE3.jpg","","","","","","","true","1","","","sizeS.png","","",""
"image-slider-2AFC","421","1453290","0.0-46.17-1.17","2088","","","","14","","","","","","","","sizeS.png","1421","14",""
"html-keyboard-response","422","1454043","0.0-46.17-2.17","null","","","","","","","null","","","","","","","",""
"image-selector-fb","423","1455740","0.0-46.18-0.18","1192","pics2/SW2.jpg,pics2/VE4.jpg","","","","","","","false","0","","","sizeS.png","","",""
"image-slider-2AFC","424","1457944","0.0-46.18-1.18","2200","","","","-36","","","","","","","","sizeS.png","1141","-36",""
"html-keyboard-response","425","1458646","0.0-46.18-2.18","null","","","","","","","null","","","","","","","",""
"image-selector-fb","426","1460244","0.0-46.19-0.19","1091","pics2/VE4.jpg,pics2/FR2.jpg","","","","","","","true","1","","","sizeS.png","","",""
"image-slider-2AFC","427","1462803","0.0-46.19-1.19","2556","","","","32","","","","","","","","sizeS.png","1759","32",""
"html-keyboard-response","428","1463656","0.0-46.19-2.19","null","","","","","","","null","","","","","","","",""
"image-selector-fb","429","1465283","0.0-46.20-0.20","1122","pics2/SW5.jpg,pics2/SA1.jpg","","","","","","","true","1","","","heartS.png","","",""
"image-slider-2AFC","430","1468598","0.0-46.20-1.20","3311","","","","50","","","","","","","","sizeS.png","2291","50",""
"html-keyboard-response","431","1469450","0.0-46.20-2.20","null","","","","","","","null","","","","","","","",""
"image-selector-fb","432","1471301","0.0-46.21-0.21","1345","pics2/SA3.jpg,pics2/SA4.jpg","","","","","","","false","0","","","sizeS.png","","",""
"image-slider-2AFC","433","1474404","0.0-46.21-1.21","3100","","","","-26","","","","","","","","sizeS.png","2291","-26",""
"html-keyboard-response","434","1475257","0.0-46.21-2.21","null","","","","","","","null","","","","","","","",""
"image-selector-fb","435","1478265","0.0-46.22-0.22","null","pics2/VE3.jpg,pics2/SW5.jpg","","","","","","","false","null","","","noS.png","","",""
"image-slider-2AFC","436","1482510","0.0-46.22-1.22","4241","","","","-20","","","","","","","","sizeS.png","3465","-20",""
"html-keyboard-response","437","1483362","0.0-46.22-2.22","null","","","","","","","null","","","","","","","",""
"image-selector-fb","438","1485244","0.0-46.23-0.23","1375","pics2/VE4.jpg,pics2/SA1.jpg","","","","","","","true","1","","","heartS.png","","",""
"image-slider-2AFC","439","1489022","0.0-46.23-1.23","3775","","","","29","","","","","","","","sizeS.png","2685","29",""
"html-keyboard-response","440","1489774","0.0-46.23-2.23","null","","","","","","","null","","","","","","","",""
"image-selector-fb","441","1492781","0.0-46.24-0.24","null","pics2/FR1.jpg,pics2/VE3.jpg","","","","","","","false","null","","","noS.png","","",""
"image-slider-2AFC","442","1495646","0.0-46.24-1.24","2862","","","","-11","","","","","","","","sizeS.png","2207","-11",""
"html-keyboard-response","443","1496499","0.0-46.24-2.24","null","","","","","","","null","","","","","","","",""
"image-selector-fb","444","1498631","0.0-46.25-0.25","1625","pics2/SW6.jpg,pics2/SA2.jpg","","","","","","","true","1","","","heartS.png","","",""
"image-slider-2AFC","445","1501493","0.0-46.25-1.25","2858","","","","30","","","","","","","","heartS.png","2110","30",""
"html-keyboard-response","446","1502195","0.0-46.25-2.25","null","","","","","","","null","","","","","","","",""
"image-selector-fb","447","1504275","0.0-46.26-0.26","1574","pics2/SW2.jpg,pics2/SA3.jpg","","","","","","","false","0","","","heartS.png","","",""
"image-slider-2AFC","448","1506832","0.0-46.26-1.26","2553","","","","-38","","","","","","","","sizeS.png","1453","-38",""
"html-keyboard-response","449","1507584","0.0-46.26-2.26","null","","","","","","","null","","","","","","","",""
"image-selector-fb","450","1510591","0.0-46.27-0.27","null","pics2/SW2.jpg,pics2/SA1.jpg","","","","","","","false","null","","","noS.png","","",""
"image-slider-2AFC","451","1513588","0.0-46.27-1.27","2995","","","","61","","","","","","","","heartS.png","1982","61",""
"html-keyboard-response","452","1514341","0.0-46.27-2.27","null","","","","","","","null","","","","","","","",""
"image-selector-fb","453","1516663","0.0-46.28-0.28","1817","pics2/SW5.jpg,pics2/SA2.jpg","","","","","","","true","1","","","heartS.png","","",""
"image-slider-2AFC","454","1520009","0.0-46.28-1.28","3342","","","","-3","","","","","","","","sizeS.png","2605","-3",""
"html-keyboard-response","455","1520861","0.0-46.28-2.28","null","","","","","","","null","","","","","","","",""
"image-selector-fb","456","1523868","0.0-46.29-0.29","null","pics2/VE4.jpg,pics2/SA3.jpg","","","","","","","false","null","","","noS.png","","",""
"image-slider-2AFC","457","1527187","0.0-46.29-1.29","3315","","","","-18","","","","","","","","heartS.png","2114","-18",""
"html-keyboard-response","458","1527989","0.0-46.29-2.29","null","","","","","","","null","","","","","","","",""
"image-selector-fb","459","1530092","0.0-46.30-0.30","1597","pics2/SW5.jpg,pics2/VE4.jpg","","","","","","","false","0","","","sizeS.png","","",""
"image-slider-2AFC","460","1533531","0.0-46.30-1.30","3436","","","","-36","","","","","","","","sizeS.png","2424","-36",""
"html-keyboard-response","461","1534384","0.0-46.30-2.30","null","","","","","","","null","","","","","","","",""
"image-selector-fb","462","1537392","0.0-46.31-0.31","null","pics2/SA1.jpg,pics2/SW1.jpg","","","","","","","false","null","","","noS.png","","",""
"image-slider-2AFC","463","1542396","0.0-46.31-1.31","null","","","","null","","","","","","","","sizeS.png","1902,4748","2,-11",""
"html-keyboard-response","464","1543097","0.0-46.31-2.31","null","","","","","","","null","","","","","","","",""
"image-selector-fb","465","1545645","0.0-46.32-0.32","2041","pics2/VE4.jpg,pics2/SW6.jpg","","","","","","","false","0","","","heartS.png","","",""
"image-slider-2AFC","466","1548848","0.0-46.32-1.32","3199","","","","-32","","","","","","","","heartS.png","1936","-32",""
"html-keyboard-response","467","1549701","0.0-46.32-2.32","null","","","","","","","null","","","","","","","",""
"image-selector-fb","468","1551815","0.0-46.33-0.33","1608","pics2/SW6.jpg,pics2/FR2.jpg","","","","","","","true","1","","","sizeS.png","","",""
"image-slider-2AFC","469","1554777","0.0-46.33-1.33","2958","","","","13","","","","","","","","heartS.png","2272","13",""
"html-keyboard-response","470","1555579","0.0-46.33-2.33","null","","","","","","","null","","","","","","","",""
"image-selector-fb","471","1558218","0.0-46.34-0.34","2133","pics2/SW6.jpg,pics2/VE3.jpg","","","","","","","true","1","","","sizeS.png","","",""
"image-slider-2AFC","472","1560141","0.0-46.34-1.34","1919","","","","11","","","","","","","","sizeS.png","1090","11",""
"html-keyboard-response","473","1560993","0.0-46.34-2.34","null","","","","","","","null","","","","","","","",""
"image-selector-fb","474","1564000","0.0-46.35-0.35","null","pics2/SW6.jpg,pics2/FR1.jpg","","","","","","","false","null","","","noS.png","","",""
"image-slider-2AFC","475","1567301","0.0-46.35-1.35","3297","","","","18","","","","","","","","sizeS.png","2297","18",""
"html-keyboard-response","476","1568154","0.0-46.35-2.35","null","","","","","","","null","","","","","","","",""
"image-selector-fb","477","1570137","0.0-46.36-0.36","1478","pics2/SA1.jpg,pics2/FR2.jpg","","","","","","","false","0","","","sizeS.png","","",""
"image-slider-2AFC","478","1572614","0.0-46.36-1.36","2475","","","","-77","","","","","","","","heartS.png","1445","-77",""
"html-keyboard-response","479","1573368","0.0-46.36-2.36","null","","","","","","","null","","","","","","","",""
"image-selector-fb","480","1575641","0.0-46.37-0.37","1768","pics2/FR2.jpg,pics2/SW6.jpg","","","","","","","false","0","","","heartS.png","","",""
"image-slider-2AFC","481","1578149","0.0-46.37-1.37","2504","","","","-34","","","","","","","","sizeS.png","1666","-34",""
"html-keyboard-response","482","1578951","0.0-46.37-2.37","null","","","","","","","null","","","","","","","",""
"image-selector-fb","483","1581958","0.0-46.38-0.38","null","pics2/SA1.jpg,pics2/VE4.jpg","","","","","","","false","null","","","noS.png","","",""
"image-slider-2AFC","484","1585793","0.0-46.38-1.38","3831","","","","-50","","","","","","","","heartS.png","2469","-50",""
"html-keyboard-response","485","1586546","0.0-46.38-2.38","null","","","","","","","null","","","","","","","",""
"image-selector-fb","486","1588679","0.0-46.39-0.39","1627","pics2/FR1.jpg,pics2/SW6.jpg","","","","","","","false","0","","","sizeS.png","","",""
"image-slider-2AFC","487","1591148","0.0-46.39-1.39","2465","","","","-24","","","","","","","","heartS.png","1464","-24",""
"html-keyboard-response","488","1591900","0.0-46.39-2.39","null","","","","","","","null","","","","","","","",""
"image-selector-fb","489","1594907","0.0-46.40-0.40","null","pics2/SA4.jpg,pics2/SW1.jpg","","","","","","","false","null","","","noS.png","","",""
"image-slider-2AFC","490","1598833","0.0-46.40-1.40","3923","","","","56","","","","","","","","sizeS.png","2912","56",""
"html-keyboard-response","491","1599636","0.0-46.40-2.40","null","","","","","","","null","","","","","","","",""
"image-selector-fb","492","1602194","0.0-46.41-0.41","2053","pics2/SW6.jpg,pics2/FR1.jpg","","","","","","","true","1","","","heartS.png","","",""
"image-slider-2AFC","493","1605299","0.0-46.41-1.41","3103","","","","22","","","","","","","","sizeS.png","1494,2362","14,22",""
"html-keyboard-response","494","1606052","0.0-46.41-2.41","null","","","","","","","null","","","","","","","",""
"image-selector-fb","495","1609111","0.0-46.42-0.42","2552","pics2/VE4.jpg,pics2/FR1.jpg","","","","","","","false","0","","","heartS.png","","",""
"image-slider-2AFC","496","1612054","0.0-46.42-1.42","2939","","","","-26","","","","","","","","heartS.png","1969","-26",""
"html-keyboard-response","497","1612806","0.0-46.42-2.42","null","","","","","","","null","","","","","","","",""
"image-selector-fb","498","1615858","0.0-46.43-0.43","2545","pics2/FR1.jpg,pics2/FR2.jpg","","","","","","","false","0","","","sizeS.png","","",""
"image-slider-2AFC","499","1619255","0.0-46.43-1.43","3394","","","","-23","","","","","","","","sizeS.png","2312","-23",""
"html-keyboard-response","500","1620058","0.0-46.43-2.43","null","","","","","","","null","","","","","","","",""
"image-selector-fb","501","1623065","0.0-46.44-0.44","null","pics2/SA2.jpg,pics2/SW5.jpg","","","","","","","false","null","","","noS.png","","",""
"image-slider-2AFC","502","1628069","0.0-46.44-1.44","null","","","","null","","","","","","","","sizeS.png","4499","-15",""
"html-keyboard-response","503","1628871","0.0-46.44-2.44","null","","","","","","","null","","","","","","","",""
"image-selector-fb","504","1631878","0.0-46.45-0.45","null","pics2/SW6.jpg,pics2/VE4.jpg","","","","","","","false","null","","","noS.png","","",""
"image-slider-2AFC","505","1636114","0.0-46.45-1.45","4232","","","","-19","","","","","","","","sizeS.png","3383","-19",""
"html-keyboard-response","506","1636966","0.0-46.45-2.45","null","","","","","","","null","","","","","","","",""
"image-selector-fb","507","1640162","0.0-46.46-0.46","2689","pics2/FR2.jpg,pics2/FR1.jpg","","","","","","","true","1","","","heartS.png","","",""
"image-slider-2AFC","508","1642460","0.0-46.46-1.46","2295","","","","18","","","","","","","","sizeS.png","1627","18",""
"html-keyboard-response","509","1643263","0.0-46.46-2.46","null","","","","","","","null","","","","","","","",""
"image-selector-fb","510","1645782","0.0-46.47-0.47","2013","pics2/FR1.jpg,pics2/SA2.jpg","","","","","","","false","0","","","sizeS.png","","",""
"image-slider-2AFC","511","1648270","0.0-46.47-1.47","2484","","","","-13","","","","","","","","sizeS.png","1302","-13",""
"html-keyboard-response","512","1649127","0.0-46.47-2.47","null","","","","","","","null","","","","","","","",""
"image-selector-fb","513","1652136","0.0-46.48-0.48","null","pics2/SA4.jpg,pics2/FR1.jpg","","","","","","","false","null","","","noS.png","","",""
"image-slider-2AFC","514","1655706","0.0-46.48-1.48","3566","","","","-54","","","","","","","","heartS.png","2324","-54",""
"html-keyboard-response","515","1656509","0.0-46.48-2.48","null","","","","","","","null","","","","","","","",""
"image-selector-fb","516","1659516","0.0-46.49-0.49","null","pics2/FR2.jpg,pics2/SW1.jpg","","","","","","","false","null","","","noS.png","","",""
"image-slider-2AFC","517","1663401","0.0-46.49-1.49","3882","","","","48","","","","","","","","heartS.png","3043","48",""
"html-keyboard-response","518","1664254","0.0-46.49-2.49","null","","","","","","","null","","","","","","","",""
"image-selector-fb","519","1667260","0.0-46.50-0.50","null","pics2/FR1.jpg,pics2/SA1.jpg","","","","","","","false","null","","","noS.png","","",""
"image-slider-2AFC","520","1669964","0.0-46.50-1.50","2700","","","","55","","","","","","","","heartS.png","1639","55",""
"html-keyboard-response","521","1670667","0.0-46.50-2.50","null","","","","","","","null","","","","","","","",""
"image-selector-fb","522","1673254","0.0-46.51-0.51","2080","pics2/SW2.jpg,pics2/SA1.jpg","","","","","","","false","0","","","sizeS.png","","",""
"image-slider-2AFC","523","1676519","0.0-46.51-1.51","3261","","","","-44","","","","","","","","sizeS.png","2231","-44",""
"html-keyboard-response","524","1677371","0.0-46.51-2.51","null","","","","","","","null","","","","","","","",""
"image-selector-fb","525","1679353","0.0-46.52-0.52","1477","pics2/SW6.jpg,pics2/SW1.jpg","","","","","","","true","1","","","sizeS.png","","",""
"image-slider-2AFC","526","1681803","0.0-46.52-1.52","2447","","","","48","","","","","","","","heartS.png","1597","48",""
"html-keyboard-response","527","1682555","0.0-46.52-2.52","null","","","","","","","null","","","","","","","",""
"image-selector-fb","528","1685215","0.0-46.53-0.53","2154","pics2/SA3.jpg,pics2/VE3.jpg","","","","","","","false","0","","","sizeS.png","","",""
"image-slider-2AFC","529","1687864","0.0-46.53-1.53","2645","","","","-27","","","","","","","","sizeS.png","1644","-27",""
"html-keyboard-response","530","1688666","0.0-46.53-2.53","null","","","","","","","null","","","","","","","",""
"image-selector-fb","531","1690790","0.0-46.54-0.54","1617","pics2/SA3.jpg,pics2/VE4.jpg","","","","","","","false","0","","","sizeS.png","","",""
"image-slider-2AFC","532","1694436","0.0-46.54-1.54","3644","","","","32","","","","","","","","heartS.png","2633","32",""
"html-keyboard-response","533","1695289","0.0-46.54-2.54","null","","","","","","","null","","","","","","","",""
"image-selector-fb","534","1698523","0.0-46.55-0.55","2728","pics2/VE4.jpg,pics2/SW5.jpg","","","","","","","false","0","","","heartS.png","","",""
"image-slider-2AFC","535","1701027","0.0-46.55-1.55","2501","","","","-37","","","","","","","","heartS.png","1523","-37",""
"html-keyboard-response","536","1701730","0.0-46.55-2.55","null","","","","","","","null","","","","","","","",""
"image-selector-fb","537","1704737","0.0-46.56-0.56","null","pics2/SA2.jpg,pics2/SA3.jpg","","","","","","","false","null","","","noS.png","","",""
"image-slider-2AFC","538","1708328","0.0-46.56-1.56","3588","","","","-44","","","","","","","","heartS.png","2508","-44",""
"html-keyboard-response","539","1709031","0.0-46.56-2.56","null","","","","","","","null","","","","","","","",""
"image-selector-fb","540","1712038","0.0-46.57-0.57","null","pics2/FR2.jpg,pics2/FR1.jpg","","","","","","","false","null","","","noS.png","","",""
"image-slider-2AFC","541","1715459","0.0-46.57-1.57","3418","","","","35","","","","","","","","sizeS.png","2640","35",""
"html-keyboard-response","542","1716311","0.0-46.57-2.57","null","","","","","","","null","","","","","","","",""
"image-selector-fb","543","1718980","0.0-46.58-0.58","2162","pics2/SW5.jpg,pics2/VE3.jpg","","","","","","","true","1","","","sizeS.png","","",""
"image-slider-2AFC","544","1722415","0.0-46.58-1.58","3432","","","","-12","","","","","","","","heartS.png","2696","-12",""
"html-keyboard-response","545","1723269","0.0-46.58-2.58","null","","","","","","","null","","","","","","","",""
"image-selector-fb","546","1726009","0.0-46.59-0.59","2233","pics2/SW5.jpg,pics2/SA4.jpg","","","","","","","true","1","","","heartS.png","","",""
"image-slider-2AFC","547","1728980","0.0-46.59-1.59","2968","","","","39","","","","","","","","heartS.png","1928","39",""
"html-keyboard-response","548","1729684","0.0-46.59-2.59","null","","","","","","","null","","","","","","","",""
"image-selector-fb","549","1732691","0.0-46.60-0.60","null","pics2/VE3.jpg,pics2/VE4.jpg","","","","","","","false","null","","","noS.png","","",""
"image-slider-2AFC","550","1736646","0.0-46.60-1.60","3951","","","","-21","","","","","","","","sizeS.png","3123","-21",""
"html-keyboard-response","551","1737350","0.0-46.60-2.60","null","","","","","","","null","","","","","","","",""
"image-selector-fb","552","1739763","0.0-46.61-0.61","1906","pics2/SA1.jpg,pics2/SW1.jpg","","","","","","","false","0","","","heartS.png","","",""
"image-slider-2AFC","553","1742546","0.0-46.61-1.61","2780","","","","-51","","","","","","","","heartS.png","1929","-51",""
"html-keyboard-response","554","1743399","0.0-46.61-2.61","null","","","","","","","null","","","","","","","",""
"image-selector-fb","555","1746997","0.0-46.62-0.62","3091","pics2/FR1.jpg,pics2/SW2.jpg","","","","","","","true","1","","","sizeS.png","","",""
"image-slider-2AFC","556","1750636","0.0-46.62-1.62","3635","","","","27","","","","","","","","heartS.png","2746","27",""
"html-keyboard-response","557","1751489","0.0-46.62-2.62","null","","","","","","","null","","","","","","","",""
"image-selector-fb","558","1753682","0.0-46.63-0.63","1687","pics2/SA1.jpg,pics2/VE3.jpg","","","","","","","false","0","","","sizeS.png","","",""
"image-slider-2AFC","559","1756936","0.0-46.63-1.63","3250","","","","-42","","","","","","","","sizeS.png","2099","-42",""
"html-keyboard-response","560","1757639","0.0-46.63-2.63","null","","","","","","","null","","","","","","","",""
"image-selector-fb","561","1759772","0.0-46.64-0.64","1628","pics2/SA4.jpg,pics2/SW6.jpg","","","","","","","false","0","","","heartS.png","","",""
"image-slider-2AFC","562","1762461","0.0-46.64-1.64","2685","","","","19","","","","","","","","sizeS.png","1725","19",""
"html-keyboard-response","563","1763314","0.0-46.64-2.64","null","","","","","","","null","","","","","","","",""
"image-selector-fb","564","1766321","0.0-46.65-0.65","null","pics2/SA2.jpg,pics2/SW2.jpg","","","","","","","false","null","","","noS.png","","",""
"image-slider-2AFC","565","1769640","0.0-46.65-1.65","3316","","","","-33","","","","","","","","heartS.png","2580","-33",""
"html-keyboard-response","566","1770393","0.0-46.65-2.65","null","","","","","","","null","","","","","","","",""
"pavlovia","567","1770426","0.0-47.0","","","","","","","","","","","","","","","",""
"html-keyboard-response","568","1775428","0.0-48.0","null","<div style='width: 700px;'> <font size=6><b>SHORT BREAK</font></b><br><br><i> Please wait 5 seconds to continue</i></div> ","","","","","","null","","","","","","","",""
"pavlovia","569","1775432","0.0-49.0","","","","","","","","","","","","","","","",""
"html-button-response","570","1778287","0.0-50.0","2853","<div style='width: 700px;'> <font size=6><b>BLOCK 3</font></b><br><br>Press the button whenever you feel ready to start the third and final block</div>","0","","","","","","","","","","","","",""
"image-selector-fb","571","1780512","0.0-51.0-0.0","1721","pics2/SA3.jpg,pics2/SW1.jpg","","","","","","","true","1","","","sizeS.png","","",""
"image-slider-2AFC","572","1783151","0.0-51.0-1.0","2636","","","","36","","","","","","","","heartS.png","1758","36",""
"html-keyboard-response","573","1783854","0.0-51.0-2.0","null","","","","","","","null","","","","","","","",""
"image-selector-fb","574","1785785","0.0-51.1-0.1","1424","pics2/SA3.jpg,pics2/FR2.jpg","","","","","","","true","1","","","sizeS.png","","",""
"image-slider-2AFC","575","1787637","0.0-51.1-1.1","1846","","","","26","","","","","","","","heartS.png","1038","26",""
"html-keyboard-response","576","1788439","0.0-51.1-2.1","null","","","","","","","null","","","","","","","",""
"image-selector-fb","577","1791446","0.0-51.2-0.2","null","pics2/SW1.jpg,pics2/SA3.jpg","","","","","","","false","null","","","noS.png","","",""
"image-slider-2AFC","578","1794214","0.0-51.2-1.2","2765","","","","-52","","","","","","","","heartS.png","1864","-52",""
"html-keyboard-response","579","1795017","0.0-51.2-2.2","null","","","","","","","null","","","","","","","",""
"image-selector-fb","580","1799312","0.0-51.3-0.3","3789","pics2/VE3.jpg,pics2/FR1.jpg","","","","","","","true","1","","","heartS.png","","",""
"image-slider-2AFC","581","1801800","0.0-51.3-1.3","2484","","","","8","","","","","","","","sizeS.png","1815","8",""
"html-keyboard-response","582","1802602","0.0-51.3-2.3","null","","","","","","","null","","","","","","","",""
"image-selector-fb","583","1804603","0.0-51.4-0.4","1495","pics2/FR1.jpg,pics2/VE3.jpg","","","","","","","false","0","","","sizeS.png","","",""
"image-slider-2AFC","584","1807253","0.0-51.4-1.4","2646","","","","-34","","","","","","","","heartS.png","1726","-34",""
"html-keyboard-response","585","1808105","0.0-51.4-2.4","null","","","","","","","null","","","","","","","",""
"image-selector-fb","586","1810552","0.0-51.5-0.5","1941","pics2/SW5.jpg,pics2/SA3.jpg","","","","","","","false","0","","","heartS.png","","",""
"image-slider-2AFC","587","1813735","0.0-51.5-1.5","3180","","","","-7","","","","","","","","sizeS.png","2482","-7",""
"html-keyboard-response","588","1814538","0.0-51.5-2.5","null","","","","","","","null","","","","","","","",""
"image-selector-fb","589","1816494","0.0-51.6-0.6","1450","pics2/SW2.jpg,pics2/FR2.jpg","","","","","","","false","0","","","sizeS.png","","",""
"image-slider-2AFC","590","1819911","0.0-51.6-1.6","3414","","","","-32","","","","","","","","sizeS.png","2426","-32",""
"html-keyboard-response","591","1820714","0.0-51.6-2.6","null","","","","","","","null","","","","","","","",""
"image-selector-fb","592","1823547","0.0-51.7-0.7","2326","pics2/VE3.jpg,pics2/SA2.jpg","","","","","","","true","1","","","heartS.png","","",""
"image-slider-2AFC","593","1826580","0.0-51.7-1.7","3031","","","","43","","","","","","","","heartS.png","1981","43",""
"html-keyboard-response","594","1827434","0.0-51.7-2.7","null","","","","","","","null","","","","","","","",""
"image-selector-fb","595","1829437","0.0-51.8-0.8","1497","pics2/FR2.jpg,pics2/SA4.jpg","","","","","","","true","1","","","heartS.png","","",""
"image-slider-2AFC","596","1831499","0.0-51.8-1.8","2059","","","","-9","","","","","","","","sizeS.png","1313","-9",""
"html-keyboard-response","597","1832302","0.0-51.8-2.8","null","","","","","","","null","","","","","","","",""
"image-selector-fb","598","1835309","0.0-51.9-0.9","null","pics2/FR1.jpg,pics2/SA3.jpg","","","","","","","false","null","","","noS.png","","",""
"image-slider-2AFC","599","1839074","0.0-51.9-1.9","3762","","","","-11","","","","","","","","sizeS.png","3035","-11",""
"html-keyboard-response","600","1839877","0.0-51.9-2.9","null","","","","","","","null","","","","","","","",""
"image-selector-fb","601","1842284","0.0-51.10-0.10","1901","pics2/SW5.jpg,pics2/SW1.jpg","","","","","","","true","1","","","heartS.png","","",""
"image-slider-2AFC","602","1846185","0.0-51.10-1.10","3896","","","","64","","","","","","","","sizeS.png","2837","64",""
"html-keyboard-response","603","1846938","0.0-51.10-2.10","null","","","","","","","null","","","","","","","",""
"image-selector-fb","604","1849944","0.0-51.11-0.11","null","pics2/SA4.jpg,pics2/SW2.jpg","","","","","","","false","null","","","noS.png","","",""
"image-slider-2AFC","605","1853212","0.0-51.11-1.11","3263","","","","46","","","","","","","","sizeS.png","2183","46",""
"html-keyboard-response","606","1853965","0.0-51.11-2.11","null","","","","","","","null","","","","","","","",""
"image-selector-fb","607","1856971","0.0-51.12-0.12","null","pics2/SA4.jpg,pics2/SW5.jpg","","","","","","","false","null","","","noS.png","","",""
"image-slider-2AFC","608","1860898","0.0-51.12-1.12","3922","","","","-61","","","","","","","","heartS.png","2679","-61",""
"html-keyboard-response","609","1861750","0.0-51.12-2.12","null","","","","","","","null","","","","","","","",""
"image-selector-fb","610","1864308","0.0-51.13-0.13","2052","pics2/SW6.jpg,pics2/SW5.jpg","","","","","","","true","1","","","sizeS.png","","",""
"image-slider-2AFC","611","1868071","0.0-51.13-1.13","3760","","","","30","","","","","","","","sizeS.png","2718","30",""
"html-keyboard-response","612","1868773","0.0-51.13-2.13","null","","","","","","","null","","","","","","","",""
"image-selector-fb","613","1871779","0.0-51.14-0.14","null","pics2/SA4.jpg,pics2/SA2.jpg","","","","","","","false","null","","","noS.png","","",""
"image-slider-2AFC","614","1874712","0.0-51.14-1.14","2930","","","","23","","","","","","","","heartS.png","2081","23",""
"html-keyboard-response","615","1875414","0.0-51.14-2.14","null","","","","","","","null","","","","","","","",""
"image-selector-fb","616","1877263","0.0-51.15-0.15","1342","pics2/SW2.jpg,pics2/SW6.jpg","","","","","","","false","0","","","heartS.png","","",""
"image-slider-2AFC","617","1880342","0.0-51.15-1.15","3076","","","","-50","","","","","","","","heartS.png","1822","-50",""
"html-keyboard-response","618","1881045","0.0-51.15-2.15","null","","","","","","","null","","","","","","","",""
"image-selector-fb","619","1883978","0.0-51.16-0.16","2426","pics2/SW2.jpg,pics2/FR1.jpg","","","","","","","false","0","","","heartS.png","","",""
"image-slider-2AFC","620","1886435","0.0-51.16-1.16","2453","","","","-48","","","","","","","","heartS.png","1544","-48",""
"html-keyboard-response","621","1887238","0.0-51.16-2.16","null","","","","","","","null","","","","","","","",""
"image-selector-fb","622","1889281","0.0-51.17-0.17","1537","pics2/SA2.jpg,pics2/SW5.jpg","","","","","","","true","1","","","sizeS.png","","",""
"image-slider-2AFC","623","1892289","0.0-51.17-1.17","3004","","","","-53","","","","","","","","heartS.png","1768","-53",""
"html-keyboard-response","624","1893091","0.0-51.17-2.17","null","","","","","","","null","","","","","","","",""
"image-selector-fb","625","1895323","0.0-51.18-0.18","1727","pics2/SA2.jpg,pics2/SW1.jpg","","","","","","","true","1","","","sizeS.png","","",""
"image-slider-2AFC","626","1900183","0.0-51.18-1.18","4856","","","","47","","","","","","","","sizeS.png","4007","47",""
"html-keyboard-response","627","1901036","0.0-51.18-2.18","null","","","","","","","null","","","","","","","",""
"image-selector-fb","628","1903704","0.0-51.19-0.19","2162","pics2/SW1.jpg,pics2/SA4.jpg","","","","","","","false","0","","","sizeS.png","","",""
"image-slider-2AFC","629","1906404","0.0-51.19-1.19","2696","","","","-39","","","","","","","","heartS.png","1948","-39",""
"html-keyboard-response","630","1907206","0.0-51.19-2.19","null","","","","","","","null","","","","","","","",""
"image-selector-fb","631","1910213","0.0-51.20-0.20","null","pics2/SW6.jpg,pics2/FR2.jpg","","","","","","","false","null","","","noS.png","","",""
"image-slider-2AFC","632","1914815","0.0-51.20-1.20","4598","","","","29","","","","","","","","sizeS.png","3599","29",""
"html-keyboard-response","633","1915568","0.0-51.20-2.20","null","","","","","","","null","","","","","","","",""
"image-selector-fb","634","1917833","0.0-51.21-0.21","1757","pics2/VE3.jpg,pics2/SW5.jpg","","","","","","","true","1","","","heartS.png","","",""
"image-slider-2AFC","635","1921046","0.0-51.21-1.21","3210","","","","-32","","","","","","","","sizeS.png","2041","-32",""
"html-keyboard-response","636","1921749","0.0-51.21-2.21","null","","","","","","","null","","","","","","","",""
"image-selector-fb","637","1923690","0.0-51.22-0.22","1436","pics2/SA4.jpg,pics2/SA2.jpg","","","","","","","true","1","","","heartS.png","","",""
"image-slider-2AFC","638","1926746","0.0-51.22-1.22","3051","","","","27","","","","","","","","heartS.png","1666","27",""
"html-keyboard-response","639","1927449","0.0-51.22-2.22","null","","","","","","","null","","","","","","","",""
"image-selector-fb","640","1929620","0.0-51.23-0.23","1666","pics2/SA2.jpg,pics2/FR1.jpg","","","","","","","false","0","","","heartS.png","","",""
"image-slider-2AFC","641","1931778","0.0-51.23-1.23","2155","","","","-39","","","","","","","","heartS.png","1143","-39",""
"html-keyboard-response","642","1932580","0.0-51.23-2.23","null","","","","","","","null","","","","","","","",""
"image-selector-fb","643","1935586","0.0-51.24-0.24","null","pics2/SA4.jpg,pics2/VE3.jpg","","","","","","","false","null","","","noS.png","","",""
"image-slider-2AFC","644","1939053","0.0-51.24-1.24","3463","","","","45","","","","","","","","sizeS.png","2511","45",""
"html-keyboard-response","645","1939805","0.0-51.24-2.24","null","","","","","","","null","","","","","","","",""
"image-selector-fb","646","1942323","0.0-51.25-0.25","2012","pics2/FR2.jpg,pics2/SW2.jpg","","","","","","","true","1","","","heartS.png","","",""
"image-slider-2AFC","647","1945697","0.0-51.25-1.25","3371","","","","30","","","","","","","","sizeS.png","2392","30",""
"html-keyboard-response","648","1946450","0.0-51.25-2.25","null","","","","","","","null","","","","","","","",""
"image-selector-fb","649","1949457","0.0-51.26-0.26","null","pics2/FR2.jpg,pics2/VE3.jpg","","","","","","","false","null","","","noS.png","","",""
"image-slider-2AFC","650","1952432","0.0-51.26-1.26","2972","","","","-36","","","","","","","","heartS.png","2044","-36",""
"html-keyboard-response","651","1953235","0.0-51.26-2.26","null","","","","","","","null","","","","","","","",""
"image-selector-fb","652","1955268","0.0-51.27-0.27","1527","pics2/SW1.jpg,pics2/SW5.jpg","","","","","","","false","0","","","sizeS.png","","",""
"image-slider-2AFC","653","1958221","0.0-51.27-1.27","2949","","","","-69","","","","","","","","heartS.png","1718","-69",""
"html-keyboard-response","654","1959023","0.0-51.27-2.27","null","","","","","","","null","","","","","","","",""
"image-selector-fb","655","1962029","0.0-51.28-0.28","null","pics2/FR2.jpg,pics2/SW5.jpg","","","","","","","false","null","","","noS.png","","",""
"image-slider-2AFC","656","1966362","0.0-51.28-1.28","4329","","","","-24","","","","","","","","sizeS.png","2753","-24",""
"html-keyboard-response","657","1967165","0.0-51.28-2.28","null","","","","","","","null","","","","","","","",""
"image-selector-fb","658","1969530","0.0-51.29-0.29","1861","pics2/SA2.jpg,pics2/VE3.jpg","","","","","","","true","1","","","sizeS.png","","",""
"image-slider-2AFC","659","1972403","0.0-51.29-1.29","2869","","","","-40","","","","","","","","heartS.png","1952","-40",""
"html-keyboard-response","660","1973256","0.0-51.29-2.29","null","","","","","","","null","","","","","","","",""
"image-selector-fb","661","1975682","0.0-51.30-0.30","1921","pics2/SW6.jpg,pics2/SW2.jpg","","","","","","","true","1","","","sizeS.png","","",""
"image-slider-2AFC","662","1980686","0.0-51.30-1.30","null","","","","null","","","","","","","","sizeS.png","","",""
"html-keyboard-response","663","1981539","0.0-51.30-2.30","null","","","","","","","null","","","","","","","",""
"image-selector-fb","664","1984470","0.0-51.31-0.31","2426","pics2/SW5.jpg,pics2/FR2.jpg","","","","","","","true","1","","","sizeS.png","","",""
"image-slider-2AFC","665","1986865","0.0-51.31-1.31","2391","","","","19","","","","","","","","sizeS.png","1776","19",""
"html-keyboard-response","666","1987668","0.0-51.31-2.31","null","","","","","","","null","","","","","","","",""
"image-selector-fb","667","1989599","0.0-51.32-0.32","1424","pics2/SW5.jpg,pics2/SW6.jpg","","","","","","","false","0","","","heartS.png","","",""
"image-slider-2AFC","668","1992562","0.0-51.32-1.32","2959","","","","-32","","","","","","","","heartS.png","2099","-32",""
"html-keyboard-response","669","1993364","0.0-51.32-2.32","null","","","","","","","null","","","","","","","",""
"image-selector-fb","670","1996371","0.0-51.33-0.33","null","pics2/SW6.jpg,pics2/SA4.jpg","","","","","","","false","null","","","noS.png","","",""
"image-slider-2AFC","671","2000560","0.0-51.33-1.33","4185","","","","47","","","","","","","","heartS.png","2842","47",""
"html-keyboard-response","672","2001262","0.0-51.33-2.33","null","","","","","","","null","","","","","","","",""
"image-selector-fb","673","2004255","0.0-51.34-0.34","2487","pics2/SW6.jpg,pics2/SA4.jpg","","","","","","","false","0","","","sizeS.png","","",""
"image-slider-2AFC","674","2008045","0.0-51.34-1.34","3787","","","","-14","","","","","","","","sizeS.png","3091","-14",""
"html-keyboard-response","675","2008748","0.0-51.34-2.34","null","","","","","","","null","","","","","","","",""
"image-selector-fb","676","2010768","0.0-51.35-0.35","1514","pics2/VE3.jpg,pics2/SW2.jpg","","","","","","","true","1","","","heartS.png","","",""
"image-slider-2AFC","677","2013773","0.0-51.35-1.35","3001","","","","32","","","","","","","","sizeS.png","2203","32",""
"html-keyboard-response","678","2014476","0.0-51.35-2.35","null","","","","","","","null","","","","","","","",""
"image-selector-fb","679","2017729","0.0-51.36-0.36","2746","pics2/VE4.jpg,pics2/SW2.jpg","","","","","","","false","0","","","heartS.png","","",""
"image-slider-2AFC","680","2019935","0.0-51.36-1.36","2202","","","","-41","","","","","","","","heartS.png","1295","-41",""
"html-keyboard-response","681","2020737","0.0-51.36-2.36","null","","","","","","","null","","","","","","","",""
"image-selector-fb","682","2023744","0.0-51.37-0.37","null","pics2/VE3.jpg,pics2/SA2.jpg","","","","","","","false","null","","","noS.png","","",""
"image-slider-2AFC","683","2026220","0.0-51.37-1.37","2472","","","","-42","","","","","","","","sizeS.png","1462","-42",""
"html-keyboard-response","684","2027022","0.0-51.37-2.37","null","","","","","","","null","","","","","","","",""
"image-selector-fb","685","2029247","0.0-51.38-0.38","1719","pics2/SA4.jpg,pics2/VE4.jpg","","","","","","","true","1","","","sizeS.png","","",""
"image-slider-2AFC","686","2032042","0.0-51.38-1.38","2793","","","","-38","","","","","","","","heartS.png","1466","-38",""
"html-keyboard-response","687","2032845","0.0-51.38-2.38","null","","","","","","","null","","","","","","","",""
"image-selector-fb","688","2034805","0.0-51.39-0.39","1453","pics2/FR1.jpg,pics2/SW5.jpg","","","","","","","false","0","","","sizeS.png","","",""
"image-slider-2AFC","689","2037473","0.0-51.39-1.39","2666","","","","40","","","","","","","","heartS.png","1718","40",""
"html-keyboard-response","690","2038276","0.0-51.39-2.39","null","","","","","","","null","","","","","","","",""
"image-selector-fb","691","2041282","0.0-51.40-0.40","null","pics2/SW6.jpg,pics2/SA1.jpg","","","","","","","false","null","","","noS.png","","",""
"image-slider-2AFC","692","2044404","0.0-51.40-1.40","3119","","","","34","","","","","","","","sizeS.png","2309","34",""
"html-keyboard-response","693","2045207","0.0-51.40-2.40","null","","","","","","","null","","","","","","","",""
"image-selector-fb","694","2047300","0.0-51.41-0.41","1587","pics2/FR2.jpg,pics2/SA3.jpg","","","","","","","false","0","","","heartS.png","","",""
"image-slider-2AFC","695","2050423","0.0-51.41-1.41","3120","","","","-36","","","","","","","","heartS.png","2231","-36",""
"html-keyboard-response","696","2051276","0.0-51.41-2.41","null","","","","","","","null","","","","","","","",""
"image-selector-fb","697","2053076","0.0-51.42-0.42","1293","pics2/SA2.jpg,pics2/SA1.jpg","","","","","","","true","1","","","sizeS.png","","",""
"image-slider-2AFC","698","2055879","0.0-51.42-1.42","2800","","","","33","","","","","","","","sizeS.png","1871","33",""
"html-keyboard-response","699","2056582","0.0-51.42-2.42","null","","","","","","","null","","","","","","","",""
"image-selector-fb","700","2058543","0.0-51.43-0.43","1455","pics2/SA4.jpg,pics2/SA3.jpg","","","","","","","false","0","","","heartS.png","","",""
"image-slider-2AFC","701","2060648","0.0-51.43-1.43","2101","","","","-65","","","","","","","","heartS.png","1243","-65",""
"html-keyboard-response","702","2061501","0.0-51.43-2.43","null","","","","","","","null","","","","","","","",""
"image-selector-fb","703","2064508","0.0-51.44-0.44","null","pics2/SW6.jpg,pics2/SA3.jpg","","","","","","","false","null","","","noS.png","","",""
"image-slider-2AFC","704","2067962","0.0-51.44-1.44","3451","","","","-30","","","","","","","","heartS.png","2229","-30",""
"html-keyboard-response","705","2068766","0.0-51.44-2.44","null","","","","","","","null","","","","","","","",""
"image-selector-fb","706","2072080","0.0-51.45-0.45","2806","pics2/SW6.jpg,pics2/VE4.jpg","","","","","","","false","0","","","sizeS.png","","",""
"image-slider-2AFC","707","2075358","0.0-51.45-1.45","3274","","","","20","","","","","","","","heartS.png","2463","20",""
"html-keyboard-response","708","2076060","0.0-51.45-2.45","null","","","","","","","null","","","","","","","",""
