"trial_type","trial_index","time_elapsed","internal_node_id","rt","stimulus","button_pressed","success","response","cat","value","key_press","correct","image_click","first_click_rt","first_click_val","symbol","all_click_rt","all_click_val","view_history"
"pavlovia","0","9","0.0-0.0","","","","","","","","","","","","","","","",""
"html-button-response","1","1599","0.0-1.0","1589","<div style='width: 700px; font-size: 150%'><font size='40'>  Welcome to our study!</font><br><br><br> <small> Our experiment is about <i>decision making</i>. You will choose and rate different food items, such as these: <br><br> <div><img src='food_combo2.png', height = '400px'></img></div>","0","","","","","","","","","","","","",""
"html-button-response","2","3871","0.0-2.0","2271","<div style='width: 700px; font-size: 150%'><br><br><br><small> <u><i>This is a multi-part study.</i></u><br><br> In the first part you will rate 24 food items twice.<br><br><div><img src=""rat1.png"" style=""width: 25%""></img></div><br>In the second part (longest) you will make repeated choices and judgements concerning the food items.<br><br><div><img src=""mainx.png"" style=""width: 50%""></img></div><br>In the third and final part, you will rate the items again and answer few short questionnaires.<br><br><div><img src=""rat2.png"" style=""width: 50%""></img></div><br><br>","0","","","","","","","","","","","","",""
"fullscreen","3","5889","0.0-3.0","","","","true","","","","","","","","","","","",""
"html-button-response","4","7219","0.0-4.0","1329","<div style='width: 900px; font-size: 150%;' <font size='20%'> In the first part of the task you will use the mouse to rate food items on <i>2 scales</i> </font></div><br><br><div style='width: 900px'><div style='float: left; width: 50%; margin-right:2.5em'><img src='heartS.png'></img><p class='small' style='text-align: justify'>When you see the heart cue you will rate food items in terms of how much like them/would like to eat them <i>right now</i>. You will rate them on a continuous scale from left (strong dislike) to right (strong liking). Before submitting your rating, try imagining how the item tastes and how much you desire it.<br><br></p></div><div ><img src='sizeS.png'></img><p class='small' style='text-align: justify'>When you see the size cue, you will rate the same food items in terms of their size. The scale goes from left (tiny) to right (very large). You should assess picture size <i><u>relative</i></u> to the white background. <b>Remember:</b> rate the size of the picture, <u>not</u> the size of the item in real life. </p></div><div style='width: 900px'><br><br><b><i>Notice:</b> by starting the rating you agree that your sumbission might be rejected at an early stage and the experiment might end, if your size ratings are not at least modestly related to objective sizes, or if you repeat the same value ratings too many times. If you don't agree, please exit by closing the browser window. </i><br><br><br>","0","","","","","","","","","","","","",""
"html-button-response","5","8172","0.0-5.0","952","<div><img src='heartS.png'></img></div><br><div style='text-align: justify; width: 700px'>Using the mouse, rate the <b><i>likeness</b></i> of the food items (how much you like them/would like to eat them <i>right now</i>). Far right-end of the scale indicates an item you <i>like a lot</i>. Far left-end indicates an item you <i>dislike a lot</i>. Think about each answer.   <ul><li>Try <b><i>not</b></i> to give identical rating to different items.</li><li>Use the whole scale, and <b><i>not</b></i> just the extremes</ul></div><br>","0","","","","","","","","","","","","",""
"image-slider-response","6","10414","0.0-6.0-0.0-0.0","2239","pics2/SW6.jpg","","","76","SW","","","","","","","","","",""
"image-slider-response","7","12468","0.0-6.0-0.0-0.1","1851","pics2/SA6.jpg","","","65","SA","","","","","","","","","",""
"image-slider-response","8","14245","0.0-6.0-0.0-0.2","1576","pics2/VE5.jpg","","","56","VE","","","","","","","","","",""
"image-slider-response","9","16496","0.0-6.0-0.0-0.3","2049","pics2/FR6.jpg","","","59","FR","","","","","","","","","",""
"image-slider-response","10","18203","0.0-6.0-0.0-0.4","1503","pics2/SA2.jpg","","","59","SA","","","","","","","","","",""
"image-slider-response","11","20069","0.0-6.0-0.0-0.5","1665","pics2/FR2.jpg","","","66","FR","","","","","","","","","",""
"image-slider-response","12","21969","0.0-6.0-0.0-0.6","1681","pics2/VE6.jpg","","","35","VE","","","","","","","","","",""
"image-slider-response","13","24062","0.0-6.0-0.0-0.7","1891","pics2/FR5.jpg","","","38","FR","","","","","","","","","",""
"image-slider-response","14","26064","0.0-6.0-0.0-0.8","1799","pics2/FR4.jpg","","","70","FR","","","","","","","","","",""
"image-slider-response","15","27955","0.0-6.0-0.0-0.9","1690","pics2/VE3.jpg","","","27","VE","","","","","","","","","",""
"image-slider-response","16","29650","0.0-6.0-0.0-0.10","1493","pics2/SW4.jpg","","","84","SW","","","","","","","","","",""
"image-slider-response","17","32295","0.0-6.0-0.0-0.11","2442","pics2/SA4.jpg","","","100","SA","","","","","","","","","",""
"image-slider-response","18","34112","0.0-6.0-0.0-0.12","1615","pics2/VE2.jpg","","","39","VE","","","","","","","","","",""
"image-slider-response","19","36598","0.0-6.0-0.0-0.13","2284","pics2/SW2.jpg","","","67","SW","","","","","","","","","",""
"image-slider-response","20","38094","0.0-6.0-0.0-0.14","1293","pics2/SW1.jpg","","","60","SW","","","","","","","","","",""
"image-slider-response","21","40913","0.0-6.0-0.0-0.15","2618","pics2/SA5.jpg","","","22","SA","","","","","","","","","",""
"image-slider-response","22","43816","0.0-6.0-0.0-0.16","2701","pics2/VE4.jpg","","","39","VE","","","","","","","","","",""
"image-slider-response","23","45552","0.0-6.0-0.0-0.17","1534","pics2/FR3.jpg","","","41","FR","","","","","","","","","",""
"image-slider-response","24","47027","0.0-6.0-0.0-0.18","1272","pics2/VE1.jpg","","","57","VE","","","","","","","","","",""
"image-slider-response","25","48631","0.0-6.0-0.0-0.19","1403","pics2/SA3.jpg","","","56","SA","","","","","","","","","",""
"image-slider-response","26","51379","0.0-6.0-0.0-0.20","2545","pics2/SW3.jpg","","","97","SW","","","","","","","","","",""
"image-slider-response","27","53082","0.0-6.0-0.0-0.21","1501","pics2/FR1.jpg","","","72","FR","","","","","","","","","",""
"image-slider-response","28","54509","0.0-6.0-0.0-0.22","1225","pics2/SA1.jpg","","","59","SA","","","","","","","","","",""
"image-slider-response","29","56848","0.0-6.0-0.0-0.23","2136","pics2/SW5.jpg","","","68","SW","","","","","","","","","",""
"html-button-response","30","58332","0.0-7.0","1283","<div style='width: 900px;'> <font size = 6><b> End of the first rating</b><br><br>","0","","","","","","","","","","","","",""
"html-button-response","31","77647","0.0-9.0","19314","<div ><img src='sizeS.png'></img></div><br><div style='text-align: justify; width: 700px'> Using the mouse, rate the <b><i>size</b></i> of the food items <b><i> relative to the white background.</b></i> Right-end of the scale indicates a <i>very large item</i>, which covers a large portion of the white rectangle. Left-end indicates a <i>very tiny</i> item which covers a tiny portion of the white rectangle.<br><br><i><u>Remember</i></u>: everything that is not the white background also contributes to item size (e.g. packing, plates, ect.)<br><br> Please keep in mind that if the accuracy of ratings do not allign well with actual sizes, the experiment will end.  As a result it will be consider incomplete and therefore no payment would be made. Good luck!<br><br></div><br>","0","","","","","","","","","","","","",""
"html-button-response","32","80923","0.0-10.0","3274","<div ><img src='sizeS.png'></img></div><br><b><font size=6>Examples of items that you might encounter</b><br><div style='width: 750px;'><div style='width: 33.33%; float:left'><br><br><br><i>Large Item</i><br><br><img src='large.jpg', width=200px></img></div><div style='float:right'><br><br><br><i>Small Item</i><br><br><img src='small.jpg', width=200px></img></div><div ><br><br><br><i>Medium Item</i><br><br><img src='med.jpg', width=200px></img></div></div><br><br>","0","","","","","","","","","","","","",""
"image-slider-response","33","83134","0.0-11.0-0.0-0.0","2210","pics2/SW3.jpg","","","97","null","","","","","","","","","",""
"image-slider-response","34","85595","0.0-11.0-0.0-0.1","2260","pics2/FR6.jpg","","","71","null","","","","","","","","","",""
"image-slider-response","35","89585","0.0-11.0-0.0-0.2","3779","pics2/VE1.jpg","","","71","null","","","","","","","","","",""
"image-slider-response","36","90897","0.0-11.0-0.0-0.3","1109","pics2/FR3.jpg","","","50","null","","","","","","","","","",""
"image-slider-response","37","93725","0.0-11.0-0.0-0.4","2625","pics2/VE3.jpg","","","84","null","","","","","","","","","",""
"image-slider-response","38","95750","0.0-11.0-0.0-0.5","1822","pics2/VE6.jpg","","","33","null","","","","","","","","","",""
"image-slider-response","39","97966","0.0-11.0-0.0-0.6","2014","pics2/SA1.jpg","","","83","null","","","","","","","","","",""
"image-slider-response","40","100044","0.0-11.0-0.0-0.7","1876","pics2/SW5.jpg","","","57","null","","","","","","","","","",""
"image-slider-response","41","102668","0.0-11.0-0.0-0.8","2421","pics2/SA2.jpg","","","27","null","","","","","","","","","",""
"image-slider-response","42","104828","0.0-11.0-0.0-0.9","1957","pics2/SW1.jpg","","","66","null","","","","","","","","","",""
"image-slider-response","43","107387","0.0-11.0-0.0-0.10","2353","pics2/SW6.jpg","","","8","null","","","","","","","","","",""
"image-slider-response","44","109431","0.0-11.0-0.0-0.11","1842","pics2/FR1.jpg","","","58","null","","","","","","","","","",""
"image-slider-response","45","111355","0.0-11.0-0.0-0.12","1720","pics2/FR4.jpg","","","54","null","","","","","","","","","",""
"image-slider-response","46","113254","0.0-11.0-0.0-0.13","1689","pics2/SW2.jpg","","","67","null","","","","","","","","","",""
"image-slider-response","47","115079","0.0-11.0-0.0-0.14","1622","pics2/VE2.jpg","","","40","null","","","","","","","","","",""
"image-slider-response","48","116740","0.0-11.0-0.0-0.15","1458","pics2/FR2.jpg","","","59","null","","","","","","","","","",""
"image-slider-response","49","118771","0.0-11.0-0.0-0.16","1829","pics2/FR5.jpg","","","44","null","","","","","","","","","",""
"image-slider-response","50","120906","0.0-11.0-0.0-0.17","1932","pics2/SA4.jpg","","","3","null","","","","","","","","","",""
"image-slider-response","51","123644","0.0-11.0-0.0-0.18","2535","pics2/SA3.jpg","","","65","null","","","","","","","","","",""
"image-slider-response","52","126296","0.0-11.0-0.0-0.19","2451","pics2/SA5.jpg","","","40","null","","","","","","","","","",""
"image-slider-response","53","129051","0.0-11.0-0.0-0.20","2552","pics2/VE4.jpg","","","42","null","","","","","","","","","",""
"image-slider-response","54","131291","0.0-11.0-0.0-0.21","2037","pics2/SA6.jpg","","","57","null","","","","","","","","","",""
"image-slider-response","55","133288","0.0-11.0-0.0-0.22","1794","pics2/SW4.jpg","","","73","null","","","","","","","","","",""
"image-slider-response","56","136654","0.0-11.0-0.0-0.23","3162","pics2/VE5.jpg","","","66","null","","","","","","","","","",""
"html-button-response","57","137933","0.0-12.0","1076","<div style='width: 900px;'> <font size = 6><b> End of the second rating</b><br><br>","0","","","","","","","","","","","","",""
"html-button-response","58","141759","0.0-13.0","3825","<div style='width: 900px;'>Now please rate the items for the second time. <br><br>This is not a memory test - you don't need to be consistent with your previous ratings. Just as before, try to make accurate judgements.<br><br>","0","","","","","","","","","","","","",""
"html-button-response","59","143120","0.0-14.0","1359","<div><img src='heartS.png'></img></div><br><div style='text-align: justify; width: 700px'>Using the mouse, rate the <b><i>likeness</b></i> of the food items (how much you like them/would like to eat them <i>right now</i>). Far right-end of the scale indicates an item you <i>like a lot</i>. Far left-end indicates an item you <i>dislike a lot</i>. Think about each answer.   <ul><li>Try <b><i>not</b></i> to give identical rating to different items.</li><li>Use the whole scale, and <b><i>not</b></i> just the extremes</ul></div><br>","0","","","","","","","","","","","","",""
"image-slider-response","60","145426","0.0-15.0-0.0-0.0","2305","pics2/VE2.jpg","","","44","VE","","","","","","","","","",""
"image-slider-response","61","146991","0.0-15.0-0.0-0.1","1363","pics2/SA1.jpg","","","58","SA","","","","","","","","","",""
"image-slider-response","62","149672","0.0-15.0-0.0-0.2","2479","pics2/SA4.jpg","","","100","SA","","","","","","","","","",""
"image-slider-response","63","152030","0.0-15.0-0.0-0.3","2155","pics2/SW2.jpg","","","62","SW","","","","","","","","","",""
"image-slider-response","64","154354","0.0-15.0-0.0-0.4","2120","pics2/SW5.jpg","","","79","SW","","","","","","","","","",""
"image-slider-response","65","157194","0.0-15.0-0.0-0.5","2637","pics2/VE1.jpg","","","73","VE","","","","","","","","","",""
"image-slider-response","66","162414","0.0-15.0-0.0-0.6","5018","pics2/FR6.jpg","","","66","FR","","","","","","","","","",""
"image-slider-response","67","180536","0.0-15.0-0.0-0.7","17919","pics2/FR2.jpg","","","62","FR","","","","","","","","","",""
"image-slider-response","68","182774","0.0-15.0-0.0-0.8","2034","pics2/VE4.jpg","","","43","VE","","","","","","","","","",""
"image-slider-response","69","184828","0.0-15.0-0.0-0.9","1851","pics2/VE5.jpg","","","61","VE","","","","","","","","","",""
"image-slider-response","70","187733","0.0-15.0-0.0-0.10","2702","pics2/VE6.jpg","","","2","VE","","","","","","","","","",""
"image-slider-response","71","189697","0.0-15.0-0.0-0.11","1762","pics2/SW1.jpg","","","71","SW","","","","","","","","","",""
"image-slider-response","72","191970","0.0-15.0-0.0-0.12","2070","pics2/SW4.jpg","","","84","SW","","","","","","","","","",""
"image-slider-response","73","193727","0.0-15.0-0.0-0.13","1554","pics2/SW6.jpg","","","62","SW","","","","","","","","","",""
"image-slider-response","74","195739","0.0-15.0-0.0-0.14","1811","pics2/SA5.jpg","","","31","SA","","","","","","","","","",""
"image-slider-response","75","197989","0.0-15.0-0.0-0.15","2047","pics2/FR4.jpg","","","70","FR","","","","","","","","","",""
"image-slider-response","76","200194","0.0-15.0-0.0-0.16","2002","pics2/FR5.jpg","","","62","FR","","","","","","","","","",""
"image-slider-response","77","202630","0.0-15.0-0.0-0.17","2233","pics2/SA2.jpg","","","64","SA","","","","","","","","","",""
"image-slider-response","78","207100","0.0-15.0-0.0-0.18","4267","pics2/VE3.jpg","","","41","VE","","","","","","","","","",""
"image-slider-response","79","209300","0.0-15.0-0.0-0.19","1998","pics2/SW3.jpg","","","92","SW","","","","","","","","","",""
"image-slider-response","80","211403","0.0-15.0-0.0-0.20","1901","pics2/SA6.jpg","","","59","SA","","","","","","","","","",""
"image-slider-response","81","213693","0.0-15.0-0.0-0.21","2087","pics2/SA3.jpg","","","67","SA","","","","","","","","","",""
"image-slider-response","82","216137","0.0-15.0-0.0-0.22","2242","pics2/FR3.jpg","","","36","FR","","","","","","","","","",""
"image-slider-response","83","217686","0.0-15.0-0.0-0.23","1345","pics2/FR1.jpg","","","66","FR","","","","","","","","","",""
"call-function","84","217895","0.0-16.0","","","","","","","","","","","","","","","",""
"call-function","85","217897","0.0-17.0","","","","","","","","","","","","","","","",""
"html-button-response","86","218924","0.0-18.0","1027","<div style='width: 900px;'> <font size = 6><b> End of the first rating</b><br><br>","0","","","","","","","","","","","","",""
"html-button-response","87","225551","0.0-19.0","6625","<div ><img src='sizeS.png'></img></div><br><div style='text-align: justify; width: 700px'> Using the mouse, rate the <b><i>size</b></i> of the food items <b><i> relative to the white background.</b></i> Right-end of the scale indicates a <i>very large item</i>, which covers a large portion of the white rectangle. Left-end indicates a <i>very tiny</i> item which covers a tiny portion of the white rectangle.<br><br><i><u>Remember</i></u>: everything that is not the white background also contributes to item size (e.g. packing, plates, ect.)<br><br> Please keep in mind that if the accuracy of ratings do not allign well with actual sizes, the experiment will end.  As a result it will be consider incomplete and therefore no payment would be made. Good luck!<br><br></div><br>","0","","","","","","","","","","","","",""
"image-slider-response","88","229581","0.0-20.0-0.0-0.0","4029","pics2/SA4.jpg","","","41","null","","","","","","","","","",""
"image-slider-response","89","231740","0.0-20.0-0.0-0.1","1956","pics2/VE2.jpg","","","61","null","","","","","","","","","",""
"image-slider-response","90","233411","0.0-20.0-0.0-0.2","1468","pics2/VE5.jpg","","","54","null","","","","","","","","","",""
"image-slider-response","91","235900","0.0-20.0-0.0-0.3","2287","pics2/VE3.jpg","","","72","null","","","","","","","","","",""
"image-slider-response","92","237897","0.0-20.0-0.0-0.4","1794","pics2/SW1.jpg","","","83","null","","","","","","","","","",""
"image-slider-response","93","239958","0.0-20.0-0.0-0.5","1859","pics2/VE6.jpg","","","20","null","","","","","","","","","",""
"image-slider-response","94","243120","0.0-20.0-0.0-0.6","2960","pics2/SW3.jpg","","","92","null","","","","","","","","","",""
"image-slider-response","95","244932","0.0-20.0-0.0-0.7","1608","pics2/SA5.jpg","","","42","null","","","","","","","","","",""
"image-slider-response","96","247687","0.0-20.0-0.0-0.8","2552","pics2/SA6.jpg","","","43","null","","","","","","","","","",""
"image-slider-response","97","249930","0.0-20.0-0.0-0.9","2041","pics2/SW4.jpg","","","74","null","","","","","","","","","",""
"image-slider-response","98","251854","0.0-20.0-0.0-0.10","1721","pics2/FR3.jpg","","","71","null","","","","","","","","","",""
"image-slider-response","99","253817","0.0-20.0-0.0-0.11","1759","pics2/FR2.jpg","","","82","null","","","","","","","","","",""
"image-slider-response","100","256017","0.0-20.0-0.0-0.12","1999","pics2/FR4.jpg","","","95","null","","","","","","","","","",""
"image-slider-response","101","257983","0.0-20.0-0.0-0.13","1763","pics2/SW6.jpg","","","60","null","","","","","","","","","",""
"image-slider-response","102","259982","0.0-20.0-0.0-0.14","1791","pics2/SA2.jpg","","","49","null","","","","","","","","","",""
"image-slider-response","103","262337","0.0-20.0-0.0-0.15","2151","pics2/SA3.jpg","","","57","null","","","","","","","","","",""
"image-slider-response","104","266044","0.0-20.0-0.0-0.16","3505","pics2/SA1.jpg","","","91","null","","","","","","","","","",""
"image-slider-response","105","268358","0.0-20.0-0.0-0.17","2110","pics2/VE1.jpg","","","59","null","","","","","","","","","",""
"image-slider-response","106","270038","0.0-20.0-0.0-0.18","1477","pics2/FR1.jpg","","","66","null","","","","","","","","","",""
"image-slider-response","107","272547","0.0-20.0-0.0-0.19","2305","pics2/FR6.jpg","","","76","null","","","","","","","","","",""
"image-slider-response","108","274416","0.0-20.0-0.0-0.20","1667","pics2/VE4.jpg","","","39","null","","","","","","","","","",""
"image-slider-response","109","276314","0.0-20.0-0.0-0.21","1696","pics2/SW2.jpg","","","74","null","","","","","","","","","",""
"image-slider-response","110","278710","0.0-20.0-0.0-0.22","2194","pics2/FR5.jpg","","","65","null","","","","","","","","","",""
"image-slider-response","111","280250","0.0-20.0-0.0-0.23","1337","pics2/SW5.jpg","","","50","null","","","","","","","","","",""
"call-function","112","280459","0.0-21.0","","","","","","","","","","","","","","","",""
"html-button-response","113","281916","0.0-22.0","1457","<div style='width: 900px;'> <font size = 6><b> End of the second rating</b><br><br>","0","","","","","","","","","","","","",""
"pavlovia","114","281925","0.0-23.0","","","","","","","","","","","","","","","",""
"html-keyboard-response","115","286928","0.0-24.0","null","<div style='width: 700px;'> <font size=6><b>SHORT BREAK</font></b><br><br><i> Please wait 5 seconds to continue</i></div> ","","","","","","null","","","","","","","",""
"pavlovia","116","286929","0.0-25.0","","","","","","","","","","","","","","","",""
"html-button-response","117","296599","0.0-26.0","9669","<div style='width: 700px;'>In the main part of the study, you will be choosing between 2 items. When it's time to choose,  this symbol will appear: <br><br><img src='chooseS.png'></img><br><br>Below, a cue will signify the type of choice: </div><br><div style='width: 700px;'><div style='float: left; width: 50%'><img src='heartS.png'></img><p class='small'>Heart cue means you should choose the item you <b><i>prefer</b></i> more.</p></div><div class='float: right; width:50%'><img src='sizeS.png'></img><p class='small'>Size cue means you should choose the <b><i>larger</b></i> item. </p></div></div><br><div style='width: 700px;'>When you click, a green square will appear around the item you chose.<br></div><div><br>","0","","","","","","","","","","","","",""
"image-selector-fb-tut","118","300146","0.0-27.0","2541","0232.jpg,0123.jpg","","","","","","","false","0","","","","","",""
"image-selector-fb-tut","119","302841","0.0-28.0","1692","0232.jpg,0123.jpg","","","","","","","true","1","","","","","",""
"html-button-response","120","304695","0.0-29.0","1853","<div style='width: 900px;'>Your choices should be both <b><i>fast and accurate</b></i>. <br><br>You will have <i>4 seconds</i> to make each choice, which should be enough consider the options and click on one of the items.<br><br>","0","","","","","","","","","","","","",""
"html-button-response","121","306040","0.0-30.0","1344","<div style='width: 900px;'>Additionally, on some choice trials you will see the <b><i>no-choice cue</b></i>: <br><br><img src='noS.png'></img> <br><br>This cue means you can't make any choice. You can examine the items, but  can't click on any of them. Just wait patiently for the cue to dissapear.<br><br>","0","","","","","","","","","","","","",""
"image-selector-fb-tut","122","308045","0.0-31.0","null","0232.jpg,0123.jpg","","","","","","","false","null","","","","","",""
"html-button-response","123","309395","0.0-32.0","1349","<div style='width: 900px;'>After each choice the items will remain on the screen and you will see this symbol: <br><br><img src='judgeS.png'></img> <br><br>This means you should rate<b> the magnitude of the difference</b> between the items using a scale: </div><br><div style='width: 900px; '><div style='float: left; width: 50%; margin-right: 2.5em; align-self:left'><img src='heartS.png'></img><p class='small' style = 'text-align: justify;'>Heart cue means you should rate <b>how much you prefer</b> one of the items over the other. Moving the scale indicator to the left means you prefer the left one; moving it to the right - right one. The more you prefer one of them, the more towards that side you should move the scale indicator. </p></div><div class='float: right; width: 50%; margin-left: 2.5em;'><img src='sizeS.png'></img><p class='small' style='text-align: justify'>Size cue means you should rate <b>how much larger</b> is one of the items over the other. Moving the scale indicator to the left means you think the left is larger; moving it to the right - right one. The greater the difference in size, the more towards that side you should move the scale indicator.</div><br>","0","","","","","","","","","","","","",""
"image-slider-2AFC-tut","124","314272","0.0-33.0","4875","","","","73","","","","","","4063","73","","","",""
"image-slider-2AFC-tut","125","316993","0.0-34.0","2719","","","","34","","","","","","2091","34","","","",""
"html-button-response","126","324671","0.0-35.0","7676","<br><br><font size = 36><b> Examples </b></font><br><br><i> 1) I would like to eat some croissants a <b>lot more</b> than doritos right now:</i><br><img src='ex1.PNG', width='62%'></img><br><br><br><i> 2) I would like to eat some doritos a <b>bit more</b> than croissants right now, but just slightly:</i><br><img src='ex2.PNG' width='62%'></img>","0","","","","","","","","","","","","",""
"html-button-response","127","326640","0.0-36.0","1968","<div style='width: 900px;'><i>Now you know everything you need to do the task!</i> <br><br>Let's start by doing a <b>short training</b>, so you'll get used to how it works. </div><br>","0","","","","","","","","","","","","",""
"image-selector-fb","128","329301","0.0-37.0-0.0","2155","pics2/VE2.jpg,pics2/VE6.jpg","","","","","","","true","1","","","heartS.png","","",""
"image-slider-2AFC","129","332351","0.0-37.0-1.0","3048","","","","19","","","","","","","","heartS.png","2485","19",""
"html-keyboard-response","130","333155","0.0-37.0-2.0","null","","","","","","","null","","","","","","","",""
"image-selector-fb","131","335982","0.0-37.1-0.1","2322","pics2/SA3.jpg,pics2/SA2.jpg","","","","","","","false","0","","","sizeS.png","","",""
"image-slider-2AFC","132","338677","0.0-37.1-1.1","2693","","","","-27","","","","","","","","sizeS.png","2058","-27",""
"html-keyboard-response","133","339378","0.0-37.1-2.1","null","","","","","","","null","","","","","","","",""
"image-selector-fb","134","341810","0.0-37.2-0.2","1928","pics2/SA3.jpg,pics2/VE6.jpg","","","","","","","false","0","","","sizeS.png","","",""
"image-slider-2AFC","135","344462","0.0-37.2-1.2","2651","","","","-57","","","","","","","","sizeS.png","1861","-57",""
"html-keyboard-response","136","345313","0.0-37.2-2.2","null","","","","","","","null","","","","","","","",""
"image-selector-fb","137","347907","0.0-37.3-0.3","2088","pics2/SA1.jpg,pics2/SA6.jpg","","","","","","","false","0","","","sizeS.png","","",""
"image-slider-2AFC","138","351441","0.0-37.3-1.3","3533","","","","37","","","","","","","","heartS.png","2073","37",""
"html-keyboard-response","139","352293","0.0-37.3-2.3","null","","","","","","","null","","","","","","","",""
"image-selector-fb","140","355299","0.0-37.4-0.4","null","pics2/FR5.jpg,pics2/VE5.jpg","","","","","","","false","null","","","noS.png","","",""
"image-slider-2AFC","141","360140","0.0-37.4-1.4","4839","","","","-34","","","","","","","","heartS.png","4055","-34",""
"html-keyboard-response","142","360993","0.0-37.4-2.4","null","","","","","","","null","","","","","","","",""
"image-selector-fb","143","363045","0.0-37.5-0.5","1549","pics2/VE2.jpg,pics2/SA6.jpg","","","","","","","true","1","","","heartS.png","","",""
"image-slider-2AFC","144","366752","0.0-37.5-1.5","3706","","","","-45","","","","","","","","sizeS.png","3062","-45",""
"html-keyboard-response","145","367504","0.0-37.5-2.5","null","","","","","","","null","","","","","","","",""
"image-selector-fb","146","370171","0.0-37.6-0.6","2163","pics2/VE4.jpg,pics2/FR5.jpg","","","","","","","true","1","","","heartS.png","","",""
"image-slider-2AFC","147","373107","0.0-37.6-1.6","2934","","","","33","","","","","","","","sizeS.png","2384","33",""
"html-keyboard-response","148","373860","0.0-37.6-2.6","null","","","","","","","null","","","","","","","",""
"image-selector-fb","149","375993","0.0-37.7-0.7","1629","pics2/VE4.jpg,pics2/VE6.jpg","","","","","","","false","0","","","heartS.png","","",""
"image-slider-2AFC","150","380995","0.0-37.7-1.7","null","","","","null","","","","","","","","sizeS.png","","",""
"html-keyboard-response","151","381697","0.0-37.7-2.7","null","","","","","","","null","","","","","","","",""
"image-selector-fb","152","384703","0.0-37.8-0.8","null","pics2/VE5.jpg,pics2/SA5.jpg","","","","","","","false","null","","","noS.png","","",""
"image-slider-2AFC","153","387443","0.0-37.8-1.8","2738","","","","-38","","","","","","","","heartS.png","1989","-38",""
"html-keyboard-response","154","388247","0.0-37.8-2.8","null","","","","","","","null","","","","","","","",""
"image-selector-fb","155","390035","0.0-37.9-0.9","1285","pics2/VE2.jpg,pics2/FR3.jpg","","","","","","","true","1","","","heartS.png","","",""
"image-slider-2AFC","156","392981","0.0-37.9-1.9","2944","","","","26","","","","","","","","sizeS.png","2202","26",""
"html-keyboard-response","157","393834","0.0-37.9-2.9","null","","","","","","","null","","","","","","","",""
"image-selector-fb","158","395814","0.0-37.10-0.10","1476","pics2/SA2.jpg,pics2/SA6.jpg","","","","","","","false","0","","","heartS.png","","",""
"image-slider-2AFC","159","399158","0.0-37.10-1.10","3342","","","","18","","","","","","","","sizeS.png","1035,2886","-41,18",""
"html-keyboard-response","160","399959","0.0-37.10-2.10","null","","","","","","","null","","","","","","","",""
"image-selector-fb","161","402965","0.0-37.11-0.11","null","pics2/FR3.jpg,pics2/SA5.jpg","","","","","","","false","null","","","noS.png","","",""
"image-slider-2AFC","162","407529","0.0-37.11-1.11","4562","","","","-85","","","","","","","","heartS.png","3092","-85",""
"html-keyboard-response","163","408283","0.0-37.11-2.11","null","","","","","","","null","","","","","","","",""
"html-button-response","164","412265","0.0-38.0","3980","<i><font size=10>Good job!</font></i> <br><br>Before we begin, you have a chance to review the rules, in case something was not clear.<br><br>","0","","","","","","","","","","","","",""
"instructions","165","417045","0.0-39.0","4779","","","","","","","","","","","","","","","[{""page_index"":0,""viewing_time"":2560},{""page_index"":1,""viewing_time"":1198},{""page_index"":2,""viewing_time"":1020}]"
"html-button-response","166","423835","0.0-40.0","6790","<div style='width: 900px;'> <font size='40'>Great! Now you're ready to begin</font><br><br>The main part of the experiment will consist of <u>3 blocks</u>. Each block consists of 66 decisions and judgements. You will have time for a short break between blocks.<br><br><br><i><u>Do your best to respond within the time limit.</u></i><br><br><i> Press the button to start the experiment<br><br></i>","0","","","","","","","","","","","","",""
"image-selector-fb","167","426843","0.0-41.0-0.0","null","pics2/FR1.jpg,pics2/SW6.jpg","","","","","","","false","null","","","noS.png","","",""
"image-slider-2AFC","168","430257","0.0-41.0-1.0","3413","","","","-28","","","","","","","","sizeS.png","2478","-28",""
"html-keyboard-response","169","430961","0.0-41.0-2.0","null","","","","","","","null","","","","","","","",""
"image-selector-fb","170","433967","0.0-41.1-0.1","null","pics2/SA4.jpg,pics2/VE1.jpg","","","","","","","false","null","","","noS.png","","",""
"image-slider-2AFC","171","437751","0.0-41.1-1.1","3783","","","","42","","","","","","","","sizeS.png","3163","42",""
"html-keyboard-response","172","438605","0.0-41.1-2.1","null","","","","","","","null","","","","","","","",""
"image-selector-fb","173","440758","0.0-41.2-0.2","1649","pics2/FR1.jpg,pics2/SW2.jpg","","","","","","","true","1","","","heartS.png","","",""
"image-slider-2AFC","174","443566","0.0-41.2-1.2","2807","","","","17","","","","","","","","sizeS.png","2317","17",""
"html-keyboard-response","175","444269","0.0-41.2-2.2","null","","","","","","","null","","","","","","","",""
"image-selector-fb","176","446499","0.0-41.3-0.3","1725","pics2/VE1.jpg,pics2/FR1.jpg","","","","","","","false","0","","","heartS.png","","",""
"image-slider-2AFC","177","449285","0.0-41.3-1.3","2785","","","","-52","","","","","","","","heartS.png","1922","-52",""
"html-keyboard-response","178","449988","0.0-41.3-2.3","null","","","","","","","null","","","","","","","",""
"image-selector-fb","179","452277","0.0-41.4-0.4","1785","pics2/SW5.jpg,pics2/FR2.jpg","","","","","","","true","1","","","sizeS.png","","",""
"image-slider-2AFC","180","453561","0.0-41.4-1.4","1281","","","","22","","","","","","","","heartS.png","743","22",""
"html-keyboard-response","181","454364","0.0-41.4-2.4","null","","","","","","","null","","","","","","","",""
"image-selector-fb","182","457371","0.0-41.5-0.5","null","pics2/SW5.jpg,pics2/VE1.jpg","","","","","","","false","null","","","noS.png","","",""
"image-slider-2AFC","183","461640","0.0-41.5-1.5","4268","","","","-53","","","","","","","","sizeS.png","3498","-53",""
"html-keyboard-response","184","462343","0.0-41.5-2.5","null","","","","","","","null","","","","","","","",""
"image-selector-fb","185","464394","0.0-41.6-0.6","1546","pics2/SW3.jpg,pics2/FR4.jpg","","","","","","","true","1","","","heartS.png","","",""
"image-slider-2AFC","186","467522","0.0-41.6-1.6","3127","","","","15","","","","","","","","sizeS.png","2622","15",""
"html-keyboard-response","187","468324","0.0-41.6-2.6","null","","","","","","","null","","","","","","","",""
"image-selector-fb","188","470006","0.0-41.7-0.7","1178","pics2/FR2.jpg,pics2/SA4.jpg","","","","","","","true","1","","","heartS.png","","",""
"image-slider-2AFC","189","475008","0.0-41.7-1.7","null","","","","null","","","","","","","","sizeS.png","","",""
"html-keyboard-response","190","475712","0.0-41.7-2.7","null","","","","","","","null","","","","","","","",""
"image-selector-fb","191","478717","0.0-41.8-0.8","null","pics2/SW1.jpg,pics2/FR1.jpg","","","","","","","false","null","","","noS.png","","",""
"image-slider-2AFC","192","482098","0.0-41.8-1.8","3380","","","","-52","","","","","","","","heartS.png","2325","-52",""
"html-keyboard-response","193","482852","0.0-41.8-2.8","null","","","","","","","null","","","","","","","",""
"image-selector-fb","194","485856","0.0-41.9-0.9","null","pics2/FR2.jpg,pics2/FR4.jpg","","","","","","","false","null","","","noS.png","","",""
"image-slider-2AFC","195","489870","0.0-41.9-1.9","4012","","","","76","","","","","","","","heartS.png","3279","76",""
"html-keyboard-response","196","490622","0.0-41.9-2.9","null","","","","","","","null","","","","","","","",""
"image-selector-fb","197","492849","0.0-41.10-0.10","1725","pics2/SW3.jpg,pics2/SW4.jpg","","","","","","","false","0","","","heartS.png","","",""
"image-slider-2AFC","198","497852","0.0-41.10-1.10","null","","","","null","","","","","","","","heartS.png","","",""
"html-keyboard-response","199","498554","0.0-41.10-2.10","null","","","","","","","null","","","","","","","",""
"image-selector-fb","200","501560","0.0-41.11-0.11","null","pics2/SW1.jpg,pics2/SW5.jpg","","","","","","","false","null","","","noS.png","","",""
"image-slider-2AFC","201","506566","0.0-41.11-1.11","null","","","","null","","","","","","","","heartS.png","","",""
"html-keyboard-response","202","507419","0.0-41.11-2.11","null","","","","","","","null","","","","","","","",""
"image-selector-fb","203","510426","0.0-41.12-0.12","null","pics2/SW3.jpg,pics2/FR4.jpg","","","","","","","false","null","","","noS.png","","",""
"image-slider-2AFC","204","513367","0.0-41.12-1.12","2938","","","","56","","","","","","","","sizeS.png","1994","56",""
"html-keyboard-response","205","514220","0.0-41.12-2.12","null","","","","","","","null","","","","","","","",""
"image-selector-fb","206","517229","0.0-41.13-0.13","null","pics2/FR2.jpg,pics2/SW6.jpg","","","","","","","false","null","","","noS.png","","",""
"image-slider-2AFC","207","520601","0.0-41.13-1.13","3371","","","","-79","","","","","","","","sizeS.png","2479","-79",""
"html-keyboard-response","208","521403","0.0-41.13-2.13","null","","","","","","","null","","","","","","","",""
"image-selector-fb","209","524410","0.0-41.14-0.14","null","pics2/FR2.jpg,pics2/SW1.jpg","","","","","","","false","null","","","noS.png","","",""
"image-slider-2AFC","210","527370","0.0-41.14-1.14","2959","","","","41","","","","","","","","sizeS.png","1941","41",""
"html-keyboard-response","211","528122","0.0-41.14-2.14","null","","","","","","","null","","","","","","","",""
"image-selector-fb","212","529625","0.0-41.15-0.15","999","pics2/SA4.jpg,pics2/SW4.jpg","","","","","","","false","0","","","heartS.png","","",""
"image-slider-2AFC","213","534629","0.0-41.15-1.15","null","","","","null","","","","","","","","heartS.png","","",""
"html-keyboard-response","214","535482","0.0-41.15-2.15","null","","","","","","","null","","","","","","","",""
"image-selector-fb","215","539793","0.0-41.16-0.16","3807","pics2/SW4.jpg,pics2/FR6.jpg","","","","","","","true","1","","","sizeS.png","","",""
"image-slider-2AFC","216","543044","0.0-41.16-1.16","3249","","","","-43","","","","","","","","heartS.png","2161","-43",""
"html-keyboard-response","217","543746","0.0-41.16-2.16","null","","","","","","","null","","","","","","","",""
"image-selector-fb","218","545427","0.0-41.17-0.17","1177","pics2/FR1.jpg,pics2/SW3.jpg","","","","","","","true","1","","","heartS.png","","",""
"image-slider-2AFC","219","550430","0.0-41.17-1.17","null","","","","null","","","","","","","","sizeS.png","","",""
"html-keyboard-response","220","551183","0.0-41.17-2.17","null","","","","","","","null","","","","","","","",""
"image-selector-fb","221","552797","0.0-41.18-0.18","1111","pics2/VE1.jpg,pics2/FR4.jpg","","","","","","","true","1","","","heartS.png","","",""
"image-slider-2AFC","222","555135","0.0-41.18-1.18","2337","","","","10","","","","","","","","heartS.png","988","10",""
"html-keyboard-response","223","555887","0.0-41.18-2.18","null","","","","","","","null","","","","","","","",""
"image-selector-fb","224","557469","0.0-41.19-0.19","1079","pics2/SW4.jpg,pics2/FR2.jpg","","","","","","","true","1","","","sizeS.png","","",""
"image-slider-2AFC","225","562473","0.0-41.19-1.19","null","","","","null","","","","","","","","sizeS.png","","",""
"html-keyboard-response","226","563276","0.0-41.19-2.19","null","","","","","","","null","","","","","","","",""
"image-selector-fb","227","565972","0.0-41.20-0.20","2191","pics2/SW6.jpg,pics2/SW5.jpg","","","","","","","true","1","","","sizeS.png","","",""
"image-slider-2AFC","228","568429","0.0-41.20-1.20","2454","","","","-39","","","","","","","","heartS.png","1681","-39",""
"html-keyboard-response","229","569282","0.0-41.20-2.20","null","","","","","","","null","","","","","","","",""
"image-selector-fb","230","572286","0.0-41.21-0.21","null","pics2/SW4.jpg,pics2/FR4.jpg","","","","","","","false","null","","","noS.png","","",""
"image-slider-2AFC","231","574858","0.0-41.21-1.21","2571","","","","63","","","","","","","","heartS.png","1821","63",""
"html-keyboard-response","232","575561","0.0-41.21-2.21","null","","","","","","","null","","","","","","","",""
"image-selector-fb","233","578567","0.0-41.22-0.22","null","pics2/SW3.jpg,pics2/VE1.jpg","","","","","","","false","null","","","noS.png","","",""
"image-slider-2AFC","234","583570","0.0-41.22-1.22","null","","","","null","","","","","","","","heartS.png","","",""
"html-keyboard-response","235","584423","0.0-41.22-2.22","null","","","","","","","null","","","","","","","",""
"image-selector-fb","236","585949","0.0-41.23-0.23","1023","pics2/SA4.jpg,pics2/FR4.jpg","","","","","","","false","0","","","heartS.png","","",""
"image-slider-2AFC","237","588430","0.0-41.23-1.23","2480","","","","54","","","","","","","","sizeS.png","1557","54",""
"html-keyboard-response","238","589233","0.0-41.23-2.23","null","","","","","","","null","","","","","","","",""
"image-selector-fb","239","591074","0.0-41.24-0.24","1336","pics2/SW3.jpg,pics2/SW5.jpg","","","","","","","false","0","","","heartS.png","","",""
"image-slider-2AFC","240","594439","0.0-41.24-1.24","3363","","","","78","","","","","","","","sizeS.png","2493","78",""
"html-keyboard-response","241","595142","0.0-41.24-2.24","null","","","","","","","null","","","","","","","",""
"image-selector-fb","242","596667","0.0-41.25-0.25","1021","pics2/FR4.jpg,pics2/FR6.jpg","","","","","","","false","0","","","sizeS.png","","",""
"image-slider-2AFC","243","601669","0.0-41.25-1.25","null","","","","null","","","","","","","","heartS.png","","",""
"html-keyboard-response","244","602372","0.0-41.25-2.25","null","","","","","","","null","","","","","","","",""
"image-selector-fb","245","605377","0.0-41.26-0.26","null","pics2/SW5.jpg,pics2/SW2.jpg","","","","","","","false","null","","","noS.png","","",""
"image-slider-2AFC","246","607819","0.0-41.26-1.26","2441","","","","30","","","","","","","","heartS.png","1911","30",""
"html-keyboard-response","247","608571","0.0-41.26-2.26","null","","","","","","","null","","","","","","","",""
"image-selector-fb","248","610344","0.0-41.27-0.27","1269","pics2/SW4.jpg,pics2/SW5.jpg","","","","","","","false","0","","","heartS.png","","",""
"image-slider-2AFC","249","615348","0.0-41.27-1.27","null","","","","null","","","","","","","","heartS.png","","",""
"html-keyboard-response","250","616051","0.0-41.27-2.27","null","","","","","","","null","","","","","","","",""
"image-selector-fb","251","617935","0.0-41.28-0.28","1380","pics2/SW2.jpg,pics2/VE1.jpg","","","","","","","false","0","","","sizeS.png","","",""
"image-slider-2AFC","252","622937","0.0-41.28-1.28","null","","","","null","","","","","","","","heartS.png","","",""
"html-keyboard-response","253","623791","0.0-41.28-2.28","null","","","","","","","null","","","","","","","",""
"image-selector-fb","254","626796","0.0-41.29-0.29","null","pics2/SW1.jpg,pics2/FR4.jpg","","","","","","","false","null","","","noS.png","","",""
"image-slider-2AFC","255","629316","0.0-41.29-1.29","2518","","","","-36","","","","","","","","sizeS.png","1808","-36",""
"html-keyboard-response","256","630019","0.0-41.29-2.29","null","","","","","","","null","","","","","","","",""
"image-selector-fb","257","632809","0.0-41.30-0.30","2285","pics2/FR2.jpg,pics2/SW1.jpg","","","","","","","true","1","","","heartS.png","","",""
"image-slider-2AFC","258","637812","0.0-41.30-1.30","null","","","","null","","","","","","","","sizeS.png","","",""
"html-keyboard-response","259","638514","0.0-41.30-2.30","null","","","","","","","null","","","","","","","",""
"image-selector-fb","260","641520","0.0-41.31-0.31","null","pics2/FR2.jpg,pics2/SW2.jpg","","","","","","","false","null","","","noS.png","","",""
"image-slider-2AFC","261","643570","0.0-41.31-1.31","2048","","","","29","","","","","","","","heartS.png","1356","29",""
"html-keyboard-response","262","644373","0.0-41.31-2.31","null","","","","","","","null","","","","","","","",""
"image-selector-fb","263","647379","0.0-41.32-0.32","null","pics2/SW3.jpg,pics2/FR1.jpg","","","","","","","false","null","","","noS.png","","",""
"image-slider-2AFC","264","650536","0.0-41.32-1.32","3155","","","","64","","","","","","","","heartS.png","2369","64",""
"html-keyboard-response","265","651289","0.0-41.32-2.32","null","","","","","","","null","","","","","","","",""
"image-selector-fb","266","652757","0.0-41.33-0.33","964","pics2/VE1.jpg,pics2/FR2.jpg","","","","","","","false","0","","","sizeS.png","","",""
"image-slider-2AFC","267","657759","0.0-41.33-1.33","null","","","","null","","","","","","","","sizeS.png","","",""
"html-keyboard-response","268","658513","0.0-41.33-2.33","null","","","","","","","null","","","","","","","",""
"image-selector-fb","269","660317","0.0-41.34-0.34","1301","pics2/SW4.jpg,pics2/FR4.jpg","","","","","","","true","1","","","heartS.png","","",""
"image-slider-2AFC","270","664559","0.0-41.34-1.34","4241","","","","48","","","","","","","","heartS.png","3508","48",""
"html-keyboard-response","271","665362","0.0-41.34-2.34","null","","","","","","","null","","","","","","","",""
"image-selector-fb","272","666842","0.0-41.35-0.35","977","pics2/SW1.jpg,pics2/SW3.jpg","","","","","","","false","0","","","sizeS.png","","",""
"image-slider-2AFC","273","671502","0.0-41.35-1.35","4659","","","","-54","","","","","","","","sizeS.png","3815","-54",""
"html-keyboard-response","274","672304","0.0-41.35-2.35","null","","","","","","","null","","","","","","","",""
"image-selector-fb","275","675310","0.0-41.36-0.36","null","pics2/SW2.jpg,pics2/SW6.jpg","","","","","","","false","null","","","noS.png","","",""
"image-slider-2AFC","276","680312","0.0-41.36-1.36","null","","","","null","","","","","","","","heartS.png","4335","-31",""
"html-keyboard-response","277","681065","0.0-41.36-2.36","null","","","","","","","null","","","","","","","",""
"image-selector-fb","278","684070","0.0-41.37-0.37","null","pics2/SW3.jpg,pics2/SW1.jpg","","","","","","","false","null","","","noS.png","","",""
"image-slider-2AFC","279","689074","0.0-41.37-1.37","null","","","","null","","","","","","","","heartS.png","","",""
"html-keyboard-response","280","689927","0.0-41.37-2.37","null","","","","","","","null","","","","","","","",""
"image-selector-fb","281","692932","0.0-41.38-0.38","null","pics2/SW4.jpg,pics2/SW2.jpg","","","","","","","false","null","","","noS.png","","",""
"image-slider-2AFC","282","695060","0.0-41.38-1.38","2127","","","","22","","","","","","","","heartS.png","1541","22",""
"html-keyboard-response","283","695763","0.0-41.38-2.38","null","","","","","","","null","","","","","","","",""
"image-selector-fb","284","697191","0.0-41.39-0.39","925","pics2/FR6.jpg,pics2/SW1.jpg","","","","","","","true","1","","","heartS.png","","",""
"image-slider-2AFC","285","699493","0.0-41.39-1.39","2300","","","","17","","","","","","","","sizeS.png","1747","17",""
"html-keyboard-response","286","700295","0.0-41.39-2.39","null","","","","","","","null","","","","","","","",""
"image-selector-fb","287","703680","0.0-41.40-0.40","2881","pics2/SW5.jpg,pics2/SW1.jpg","","","","","","","false","0","","","sizeS.png","","",""
"image-slider-2AFC","288","705552","0.0-41.40-1.40","1870","","","","-28","","","","","","","","sizeS.png","1072","-28",""
"html-keyboard-response","289","706304","0.0-41.40-2.40","null","","","","","","","null","","","","","","","",""
"image-selector-fb","290","708074","0.0-41.41-0.41","1267","pics2/FR2.jpg,pics2/SW3.jpg","","","","","","","true","1","","","heartS.png","","",""
"image-slider-2AFC","291","710641","0.0-41.41-1.41","2564","","","","27","","","","","","","","heartS.png","1909","27",""
"html-keyboard-response","292","711393","0.0-41.41-2.41","null","","","","","","","null","","","","","","","",""
"image-selector-fb","293","714399","0.0-41.42-0.42","null","pics2/SW4.jpg,pics2/VE1.jpg","","","","","","","false","null","","","noS.png","","",""
"image-slider-2AFC","294","719148","0.0-41.42-1.42","4746","","","","-43","","","","","","","","sizeS.png","3973","-43",""
"html-keyboard-response","295","719950","0.0-41.42-2.42","null","","","","","","","null","","","","","","","",""
"image-selector-fb","296","721579","0.0-41.43-0.43","1125","pics2/SW5.jpg,pics2/FR4.jpg","","","","","","","true","1","","","heartS.png","","",""
"image-slider-2AFC","297","723870","0.0-41.43-1.43","2290","","","","32","","","","","","","","sizeS.png","1426","32",""
"html-keyboard-response","298","724721","0.0-41.43-2.43","null","","","","","","","null","","","","","","","",""
"image-selector-fb","299","726482","0.0-41.44-0.44","1257","pics2/SW6.jpg,pics2/SW3.jpg","","","","","","","true","1","","","sizeS.png","","",""
"image-slider-2AFC","300","730933","0.0-41.44-1.44","4449","","","","100","","","","","","","","sizeS.png","3530","100",""
"html-keyboard-response","301","731736","0.0-41.44-2.44","null","","","","","","","null","","","","","","","",""
"image-selector-fb","302","733376","0.0-41.45-0.45","1135","pics2/FR4.jpg,pics2/FR1.jpg","","","","","","","false","0","","","sizeS.png","","",""
"image-slider-2AFC","303","735365","0.0-41.45-1.45","1986","","","","-42","","","","","","","","heartS.png","1058","-42",""
"html-keyboard-response","304","736117","0.0-41.45-2.45","null","","","","","","","null","","","","","","","",""
"image-selector-fb","305","737827","0.0-41.46-0.46","1205","pics2/FR1.jpg,pics2/FR6.jpg","","","","","","","true","1","","","sizeS.png","","",""
"image-slider-2AFC","306","740410","0.0-41.46-1.46","2582","","","","-16","","","","","","","","heartS.png","1428","-16",""
"html-keyboard-response","307","741113","0.0-41.46-2.46","null","","","","","","","null","","","","","","","",""
"image-selector-fb","308","744119","0.0-41.47-0.47","null","pics2/SW1.jpg,pics2/SW4.jpg","","","","","","","false","null","","","noS.png","","",""
"image-slider-2AFC","309","747335","0.0-41.47-1.47","3214","","","","36","","","","","","","","sizeS.png","2213","36",""
"html-keyboard-response","310","748187","0.0-41.47-2.47","null","","","","","","","null","","","","","","","",""
"image-selector-fb","311","750685","0.0-41.48-0.48","1993","pics2/SA4.jpg,pics2/VE1.jpg","","","","","","","true","1","","","sizeS.png","","",""
"image-slider-2AFC","312","753065","0.0-41.48-1.48","2378","","","","-88","","","","","","","","heartS.png","1527","-88",""
"html-keyboard-response","313","753768","0.0-41.48-2.48","null","","","","","","","null","","","","","","","",""
"image-selector-fb","314","755546","0.0-41.49-0.49","1273","pics2/FR2.jpg,pics2/SW5.jpg","","","","","","","false","0","","","heartS.png","","",""
"image-slider-2AFC","315","756976","0.0-41.49-1.49","1429","","","","13","","","","","","","","sizeS.png","908","13",""
"html-keyboard-response","316","757778","0.0-41.49-2.49","null","","","","","","","null","","","","","","","",""
"image-selector-fb","317","760783","0.0-41.50-0.50","null","pics2/SA4.jpg,pics2/FR1.jpg","","","","","","","false","null","","","noS.png","","",""
"image-slider-2AFC","318","765578","0.0-41.50-1.50","4793","","","","100","","","","","","","","sizeS.png","3914","100",""
"html-keyboard-response","319","766430","0.0-41.50-2.50","null","","","","","","","null","","","","","","","",""
"image-selector-fb","320","769436","0.0-41.51-0.51","null","pics2/SA4.jpg,pics2/SW5.jpg","","","","","","","false","null","","","noS.png","","",""
"image-slider-2AFC","321","772911","0.0-41.51-1.51","3473","","","","58","","","","","","","","sizeS.png","2837","58",""
"html-keyboard-response","322","773764","0.0-41.51-2.51","null","","","","","","","null","","","","","","","",""
"image-selector-fb","323","776594","0.0-41.52-0.52","2324","pics2/SW6.jpg,pics2/SA4.jpg","","","","","","","false","0","","","sizeS.png","","",""
"image-slider-2AFC","324","779175","0.0-41.52-1.52","2579","","","","61","","","","","","","","heartS.png","1642","61",""
"html-keyboard-response","325","779929","0.0-41.52-2.52","null","","","","","","","null","","","","","","","",""
"image-selector-fb","326","782935","0.0-41.53-0.53","null","pics2/SA4.jpg,pics2/SW1.jpg","","","","","","","false","null","","","noS.png","","",""
"image-slider-2AFC","327","785786","0.0-41.53-1.53","2848","","","","48","","","","","","","","sizeS.png","2030","48",""
"html-keyboard-response","328","786539","0.0-41.53-2.53","null","","","","","","","null","","","","","","","",""
"image-selector-fb","329","788707","0.0-41.54-0.54","1664","pics2/SA4.jpg,pics2/SW5.jpg","","","","","","","true","1","","","heartS.png","","",""
"image-slider-2AFC","330","791225","0.0-41.54-1.54","2516","","","","52","","","","","","","","sizeS.png","1620","52",""
"html-keyboard-response","331","791978","0.0-41.54-2.54","null","","","","","","","null","","","","","","","",""
"image-selector-fb","332","794984","0.0-41.55-0.55","null","pics2/FR2.jpg,pics2/SW3.jpg","","","","","","","false","null","","","noS.png","","",""
"image-slider-2AFC","333","797982","0.0-41.55-1.55","2997","","","","35","","","","","","","","heartS.png","2107","35",""
"html-keyboard-response","334","798735","0.0-41.55-2.55","null","","","","","","","null","","","","","","","",""
"image-selector-fb","335","801085","0.0-41.56-0.56","1846","pics2/FR6.jpg,pics2/FR4.jpg","","","","","","","true","1","","","heartS.png","","",""
"image-slider-2AFC","336","803727","0.0-41.56-1.56","2639","","","","28","","","","","","","","sizeS.png","2078","28",""
"html-keyboard-response","337","804429","0.0-41.56-2.56","null","","","","","","","null","","","","","","","",""
"image-selector-fb","338","806599","0.0-41.57-0.57","1665","pics2/FR2.jpg,pics2/FR6.jpg","","","","","","","false","0","","","heartS.png","","",""
"image-slider-2AFC","339","810056","0.0-41.57-1.57","3455","","","","-86","","","","","","","","sizeS.png","1351,2605","-86,-86",""
"html-keyboard-response","340","810907","0.0-41.57-2.57","null","","","","","","","null","","","","","","","",""
"image-selector-fb","341","813786","0.0-41.58-0.58","2375","pics2/SW5.jpg,pics2/SW3.jpg","","","","","","","false","0","","","sizeS.png","","",""
"image-slider-2AFC","342","816768","0.0-41.58-1.58","2980","","","","-10","","","","","","","","heartS.png","1904","-10",""
"html-keyboard-response","343","817571","0.0-41.58-2.58","null","","","","","","","null","","","","","","","",""
"image-selector-fb","344","820298","0.0-41.59-0.59","2223","pics2/VE1.jpg,pics2/SW6.jpg","","","","","","","true","1","","","heartS.png","","",""
"image-slider-2AFC","345","823049","0.0-41.59-1.59","2749","","","","-19","","","","","","","","sizeS.png","2041","-19",""
"html-keyboard-response","346","823851","0.0-41.59-2.59","null","","","","","","","null","","","","","","","",""
"image-selector-fb","347","826316","0.0-41.60-0.60","1961","pics2/SW2.jpg,pics2/SW5.jpg","","","","","","","false","0","","","heartS.png","","",""
"image-slider-2AFC","348","829439","0.0-41.60-1.60","3121","","","","-25","","","","","","","","sizeS.png","2276","-25",""
"html-keyboard-response","349","830242","0.0-41.60-2.60","null","","","","","","","null","","","","","","","",""
"image-selector-fb","350","832749","0.0-41.61-0.61","2003","pics2/SW1.jpg,pics2/SW4.jpg","","","","","","","true","1","","","sizeS.png","","",""
"image-slider-2AFC","351","834519","0.0-41.61-1.61","1768","","","","6","","","","","","","","sizeS.png","1336","6",""
"html-keyboard-response","352","835221","0.0-41.61-2.61","null","","","","","","","null","","","","","","","",""
"image-selector-fb","353","837187","0.0-41.62-0.62","1463","pics2/SW5.jpg,pics2/FR6.jpg","","","","","","","false","0","","","sizeS.png","","",""
"image-slider-2AFC","354","838687","0.0-41.62-1.62","1499","","","","-19","","","","","","","","sizeS.png","921","-19",""
"html-keyboard-response","355","839541","0.0-41.62-2.62","null","","","","","","","null","","","","","","","",""
"image-selector-fb","356","841445","0.0-41.63-0.63","1400","pics2/SA4.jpg,pics2/SW2.jpg","","","","","","","false","0","","","heartS.png","","",""
"image-slider-2AFC","357","843761","0.0-41.63-1.63","2315","","","","-67","","","","","","","","heartS.png","1606","-67",""
"html-keyboard-response","358","844563","0.0-41.63-2.63","null","","","","","","","null","","","","","","","",""
"image-selector-fb","359","846874","0.0-41.64-0.64","1806","pics2/SW3.jpg,pics2/SW6.jpg","","","","","","","false","0","","","heartS.png","","",""
"image-slider-2AFC","360","849379","0.0-41.64-1.64","2503","","","","-47","","","","","","","","heartS.png","1730","-47",""
"html-keyboard-response","361","850081","0.0-41.64-2.64","null","","","","","","","null","","","","","","","",""
"image-selector-fb","362","851840","0.0-41.65-0.65","1254","pics2/FR1.jpg,pics2/SA4.jpg","","","","","","","true","1","","","heartS.png","","",""
"image-slider-2AFC","363","854245","0.0-41.65-1.65","2403","","","","58","","","","","","","","heartS.png","1913","58",""
"html-keyboard-response","364","855048","0.0-41.65-2.65","null","","","","","","","null","","","","","","","",""
"pavlovia","365","855061","0.0-42.0","","","","","","","","","","","","","","","",""
"html-keyboard-response","366","860063","0.0-43.0","null","<div style='width: 700px;'> <font size=6><b>SHORT BREAK</font></b><br><br><i> Please wait 5 seconds to continue</i></div> ","","","","","","null","","","","","","","",""
"pavlovia","367","860065","0.0-44.0","","","","","","","","","","","","","","","",""
"html-button-response","368","880635","0.0-45.0","20570","<div style='width: 700px;'> <font size=6><b>BLOCK 2</font></b><br><br>Press the button whenever you feel ready to start the second block (there are 3 in total)</div>","0","","","","","","","","","","","","",""
"image-selector-fb","369","883552","0.0-46.0-0.0","2412","pics2/SW4.jpg,pics2/SW1.jpg","","","","","","","true","1","","","heartS.png","","",""
"image-slider-2AFC","370","885773","0.0-46.0-1.0","2218","","","","32","","","","","","","","heartS.png","1517","32",""
"html-keyboard-response","371","886526","0.0-46.0-2.0","null","","","","","","","null","","","","","","","",""
"image-selector-fb","372","889532","0.0-46.1-0.1","null","pics2/SW1.jpg,pics2/SW2.jpg","","","","","","","false","null","","","noS.png","","",""
"image-slider-2AFC","373","892127","0.0-46.1-1.1","2592","","","","38","","","","","","","","sizeS.png","1873","38",""
"html-keyboard-response","374","892829","0.0-46.1-2.1","null","","","","","","","null","","","","","","","",""
"image-selector-fb","375","895835","0.0-46.2-0.2","null","pics2/FR6.jpg,pics2/FR1.jpg","","","","","","","false","null","","","noS.png","","",""
"image-slider-2AFC","376","898804","0.0-46.2-1.2","2967","","","","43","","","","","","","","sizeS.png","1997","43",""
"html-keyboard-response","377","899557","0.0-46.2-2.2","null","","","","","","","null","","","","","","","",""
"image-selector-fb","378","901670","0.0-46.3-0.3","1608","pics2/FR4.jpg,pics2/SW6.jpg","","","","","","","false","0","","","sizeS.png","","",""
"image-slider-2AFC","379","904170","0.0-46.3-1.3","2498","","","","-29","","","","","","","","sizeS.png","1448","-29",""
"html-keyboard-response","380","904972","0.0-46.3-2.3","null","","","","","","","null","","","","","","","",""
"image-selector-fb","381","906999","0.0-46.4-0.4","1522","pics2/SW1.jpg,pics2/VE1.jpg","","","","","","","false","0","","","sizeS.png","","",""
"image-slider-2AFC","382","909930","0.0-46.4-1.4","2929","","","","-13","","","","","","","","sizeS.png","2065","-13",""
"html-keyboard-response","383","910783","0.0-46.4-2.4","null","","","","","","","null","","","","","","","",""
"image-selector-fb","384","913789","0.0-46.5-0.5","null","pics2/SW3.jpg,pics2/SW5.jpg","","","","","","","false","null","","","noS.png","","",""
"image-slider-2AFC","385","916552","0.0-46.5-1.5","2760","","","","-49","","","","","","","","heartS.png","1922","-49",""
"html-keyboard-response","386","917405","0.0-46.5-2.5","null","","","","","","","null","","","","","","","",""
"image-selector-fb","387","919282","0.0-46.6-0.6","1373","pics2/SW1.jpg,pics2/SW2.jpg","","","","","","","true","1","","","heartS.png","","",""
"image-slider-2AFC","388","921992","0.0-46.6-1.6","2708","","","","39","","","","","","","","sizeS.png","1553","39",""
"html-keyboard-response","389","922795","0.0-46.6-2.6","null","","","","","","","null","","","","","","","",""
"image-selector-fb","390","924845","0.0-46.7-0.7","1545","pics2/SW1.jpg,pics2/SW5.jpg","","","","","","","true","1","","","heartS.png","","",""
"image-slider-2AFC","391","927278","0.0-46.7-1.7","2432","","","","27","","","","","","","","heartS.png","1820","27",""
"html-keyboard-response","392","928082","0.0-46.7-2.7","null","","","","","","","null","","","","","","","",""
"image-selector-fb","393","930349","0.0-46.8-0.8","1764","pics2/SW3.jpg,pics2/SW2.jpg","","","","","","","false","0","","","heartS.png","","",""
"image-slider-2AFC","394","932338","0.0-46.8-1.8","1987","","","","-24","","","","","","","","heartS.png","1268","-24",""
"html-keyboard-response","395","933192","0.0-46.8-2.8","null","","","","","","","null","","","","","","","",""
"image-selector-fb","396","934656","0.0-46.9-0.9","958","pics2/SW1.jpg,pics2/SA4.jpg","","","","","","","true","1","","","sizeS.png","","",""
"image-slider-2AFC","397","937648","0.0-46.9-1.9","2988","","","","66","","","","","","","","heartS.png","2210","66",""
"html-keyboard-response","398","938500","0.0-46.9-2.9","null","","","","","","","null","","","","","","","",""
"image-selector-fb","399","940234","0.0-46.10-0.10","1229","pics2/FR2.jpg,pics2/SW6.jpg","","","","","","","true","1","","","heartS.png","","",""
"image-slider-2AFC","400","941926","0.0-46.10-1.10","1690","","","","19","","","","","","","","heartS.png","1234","19",""
"html-keyboard-response","401","942777","0.0-46.10-2.10","null","","","","","","","null","","","","","","","",""
"image-selector-fb","402","945783","0.0-46.11-0.11","null","pics2/SW3.jpg,pics2/SW2.jpg","","","","","","","false","null","","","noS.png","","",""
"image-slider-2AFC","403","949928","0.0-46.11-1.11","4142","","","","54","","","","","","","","sizeS.png","3458","54",""
"html-keyboard-response","404","950631","0.0-46.11-2.11","null","","","","","","","null","","","","","","","",""
"image-selector-fb","405","952355","0.0-46.12-0.12","1219","pics2/VE1.jpg,pics2/SW2.jpg","","","","","","","true","1","","","heartS.png","","",""
"image-slider-2AFC","406","954365","0.0-46.12-1.12","2009","","","","50","","","","","","","","sizeS.png","1324","50",""
"html-keyboard-response","407","955217","0.0-46.12-2.12","null","","","","","","","null","","","","","","","",""
"image-selector-fb","408","958223","0.0-46.13-0.13","null","pics2/SW1.jpg,pics2/SW6.jpg","","","","","","","false","null","","","noS.png","","",""
"image-slider-2AFC","409","961172","0.0-46.13-1.13","2947","","","","-64","","","","","","","","heartS.png","2226","-64",""
"html-keyboard-response","410","962023","0.0-46.13-2.13","null","","","","","","","null","","","","","","","",""
"image-selector-fb","411","965359","0.0-46.14-0.14","2832","pics2/SW4.jpg,pics2/VE1.jpg","","","","","","","true","1","","","sizeS.png","","",""
"image-slider-2AFC","412","970184","0.0-46.14-1.14","4822","","","","59","","","","","","","","sizeS.png","4022","59",""
"html-keyboard-response","413","971036","0.0-46.14-2.14","null","","","","","","","null","","","","","","","",""
"image-selector-fb","414","974273","0.0-46.15-0.15","2732","pics2/SW6.jpg,pics2/FR6.jpg","","","","","","","true","1","","","sizeS.png","","",""
"image-slider-2AFC","415","977025","0.0-46.15-1.15","2749","","","","-42","","","","","","","","heartS.png","1747","-42",""
"html-keyboard-response","416","977877","0.0-46.15-2.15","null","","","","","","","null","","","","","","","",""
"image-selector-fb","417","980882","0.0-46.16-0.16","null","pics2/SA4.jpg,pics2/SW4.jpg","","","","","","","false","null","","","noS.png","","",""
"image-slider-2AFC","418","983828","0.0-46.16-1.16","2945","","","","-73","","","","","","","","heartS.png","2118","-73",""
"html-keyboard-response","419","984530","0.0-46.16-2.16","null","","","","","","","null","","","","","","","",""
"image-selector-fb","420","987058","0.0-46.17-0.17","2022","pics2/SW2.jpg,pics2/FR4.jpg","","","","","","","false","0","","","heartS.png","","",""
"image-slider-2AFC","421","990318","0.0-46.17-1.17","3258","","","","-75","","","","","","","","sizeS.png","2566","-75",""
"html-keyboard-response","422","991021","0.0-46.17-2.17","null","","","","","","","null","","","","","","","",""
"image-selector-fb","423","993153","0.0-46.18-0.18","1627","pics2/SA4.jpg,pics2/SW1.jpg","","","","","","","true","1","","","heartS.png","","",""
"image-slider-2AFC","424","996791","0.0-46.18-1.18","3636","","","","88","","","","","","","","sizeS.png","2412","88",""
"html-keyboard-response","425","997494","0.0-46.18-2.18","null","","","","","","","null","","","","","","","",""
"image-selector-fb","426","1000501","0.0-46.19-0.19","null","pics2/FR6.jpg,pics2/SW6.jpg","","","","","","","false","null","","","noS.png","","",""
"image-slider-2AFC","427","1003564","0.0-46.19-1.19","3062","","","","59","","","","","","","","sizeS.png","2027","59",""
"html-keyboard-response","428","1004367","0.0-46.19-2.19","null","","","","","","","null","","","","","","","",""
"image-selector-fb","429","1006968","0.0-46.20-0.20","2095","pics2/FR6.jpg,pics2/SW6.jpg","","","","","","","true","1","","","heartS.png","","",""
"image-slider-2AFC","430","1009771","0.0-46.20-1.20","2801","","","","66","","","","","","","","heartS.png","2206","66",""
"html-keyboard-response","431","1010523","0.0-46.20-2.20","null","","","","","","","null","","","","","","","",""
"image-selector-fb","432","1013530","0.0-46.21-0.21","null","pics2/SW5.jpg,pics2/FR6.jpg","","","","","","","false","null","","","noS.png","","",""
"image-slider-2AFC","433","1017176","0.0-46.21-1.21","3644","","","","-61","","","","","","","","heartS.png","2642","-61",""
"html-keyboard-response","434","1017979","0.0-46.21-2.21","null","","","","","","","null","","","","","","","",""
"image-selector-fb","435","1020513","0.0-46.22-0.22","2031","pics2/FR4.jpg,pics2/SA4.jpg","","","","","","","false","0","","","sizeS.png","","",""
"image-slider-2AFC","436","1023001","0.0-46.22-1.22","2485","","","","63","","","","","","","","heartS.png","1644","63",""
"html-keyboard-response","437","1023754","0.0-46.22-2.22","null","","","","","","","null","","","","","","","",""
"image-selector-fb","438","1026760","0.0-46.23-0.23","null","pics2/SW1.jpg,pics2/FR6.jpg","","","","","","","false","null","","","noS.png","","",""
"image-slider-2AFC","439","1030901","0.0-46.23-1.23","4138","","","","-55","","","","","","","","sizeS.png","2911","-55",""
"html-keyboard-response","440","1031704","0.0-46.23-2.23","null","","","","","","","null","","","","","","","",""
"image-selector-fb","441","1034709","0.0-46.24-0.24","null","pics2/FR2.jpg,pics2/FR1.jpg","","","","","","","false","null","","","noS.png","","",""
"image-slider-2AFC","442","1039712","0.0-46.24-1.24","null","","","","null","","","","","","","","sizeS.png","2694,4408","48,-71",""
"html-keyboard-response","443","1040415","0.0-46.24-2.24","null","","","","","","","null","","","","","","","",""
"image-selector-fb","444","1044830","0.0-46.25-0.25","3910","pics2/SW5.jpg,pics2/FR1.jpg","","","","","","","false","0","","","sizeS.png","","",""
"image-slider-2AFC","445","1047530","0.0-46.25-1.25","2699","","","","-28","","","","","","","","sizeS.png","1849","-28",""
"html-keyboard-response","446","1048233","0.0-46.25-2.25","null","","","","","","","null","","","","","","","",""
"image-selector-fb","447","1051239","0.0-46.26-0.26","null","pics2/SW3.jpg,pics2/FR6.jpg","","","","","","","false","null","","","noS.png","","",""
"image-slider-2AFC","448","1054011","0.0-46.26-1.26","2771","","","","-20","","","","","","","","sizeS.png","2151","-20",""
"html-keyboard-response","449","1054813","0.0-46.26-2.26","null","","","","","","","null","","","","","","","",""
"image-selector-fb","450","1056732","0.0-46.27-0.27","1414","pics2/SW3.jpg,pics2/SW1.jpg","","","","","","","false","0","","","heartS.png","","",""
"image-slider-2AFC","451","1061735","0.0-46.27-1.27","null","","","","null","","","","","","","","sizeS.png","","",""
"html-keyboard-response","452","1062487","0.0-46.27-2.27","null","","","","","","","null","","","","","","","",""
"image-selector-fb","453","1065493","0.0-46.28-0.28","null","pics2/SA4.jpg,pics2/FR6.jpg","","","","","","","false","null","","","noS.png","","",""
"image-slider-2AFC","454","1068798","0.0-46.28-1.28","3302","","","","-87","","","","","","","","heartS.png","2097","-87",""
"html-keyboard-response","455","1069550","0.0-46.28-2.28","null","","","","","","","null","","","","","","","",""
"image-selector-fb","456","1071641","0.0-46.29-0.29","1586","pics2/SW6.jpg,pics2/FR4.jpg","","","","","","","true","1","","","heartS.png","","",""
"image-slider-2AFC","457","1073939","0.0-46.29-1.29","2296","","","","51","","","","","","","","heartS.png","1648","51",""
"html-keyboard-response","458","1074692","0.0-46.29-2.29","null","","","","","","","null","","","","","","","",""
"image-selector-fb","459","1077698","0.0-46.30-0.30","null","pics2/VE1.jpg,pics2/SW2.jpg","","","","","","","false","null","","","noS.png","","",""
"image-slider-2AFC","460","1080305","0.0-46.30-1.30","2606","","","","39","","","","","","","","sizeS.png","1994","39",""
"html-keyboard-response","461","1081159","0.0-46.30-2.30","null","","","","","","","null","","","","","","","",""
"image-selector-fb","462","1083957","0.0-46.31-0.31","2296","pics2/FR6.jpg,pics2/SA4.jpg","","","","","","","true","1","","","heartS.png","","",""
"image-slider-2AFC","463","1086310","0.0-46.31-1.31","2351","","","","-44","","","","","","","","sizeS.png","1545","-44",""
"html-keyboard-response","464","1087063","0.0-46.31-2.31","null","","","","","","","null","","","","","","","",""
"image-selector-fb","465","1089219","0.0-46.32-0.32","1652","pics2/FR6.jpg,pics2/SW3.jpg","","","","","","","true","1","","","heartS.png","","",""
"image-slider-2AFC","466","1091642","0.0-46.32-1.32","2421","","","","35","","","","","","","","heartS.png","1461","35",""
"html-keyboard-response","467","1092495","0.0-46.32-2.32","null","","","","","","","null","","","","","","","",""
"image-selector-fb","468","1094275","0.0-46.33-0.33","1275","pics2/FR1.jpg,pics2/SW1.jpg","","","","","","","true","1","","","heartS.png","","",""
"image-slider-2AFC","469","1096040","0.0-46.33-1.33","1764","","","","19","","","","","","","","heartS.png","1291","19",""
"html-keyboard-response","470","1096743","0.0-46.33-2.33","null","","","","","","","null","","","","","","","",""
"image-selector-fb","471","1098239","0.0-46.34-0.34","991","pics2/SW1.jpg,pics2/FR2.jpg","","","","","","","false","0","","","sizeS.png","","",""
"image-slider-2AFC","472","1100322","0.0-46.34-1.34","2081","","","","-3","","","","","","","","sizeS.png","1592","-3",""
"html-keyboard-response","473","1101174","0.0-46.34-2.34","null","","","","","","","null","","","","","","","",""
"image-selector-fb","474","1104180","0.0-46.35-0.35","null","pics2/FR4.jpg,pics2/FR6.jpg","","","","","","","false","null","","","noS.png","","",""
"image-slider-2AFC","475","1108775","0.0-46.35-1.35","4592","","","","-43","","","","","","","","sizeS.png","3582","-43",""
"html-keyboard-response","476","1109628","0.0-46.35-2.35","null","","","","","","","null","","","","","","","",""
"image-selector-fb","477","1112634","0.0-46.36-0.36","null","pics2/SA4.jpg,pics2/SW6.jpg","","","","","","","false","null","","","noS.png","","",""
"image-slider-2AFC","478","1116577","0.0-46.36-1.36","3942","","","","29","","","","","","","","sizeS.png","3419","29",""
"html-keyboard-response","479","1117380","0.0-46.36-2.36","null","","","","","","","null","","","","","","","",""
"image-selector-fb","480","1121120","0.0-46.37-0.37","3232","pics2/SW6.jpg,pics2/VE1.jpg","","","","","","","true","1","","","sizeS.png","","",""
"image-slider-2AFC","481","1122883","0.0-46.37-1.37","1761","","","","9","","","","","","","","sizeS.png","1320","9",""
"html-keyboard-response","482","1123586","0.0-46.37-2.37","null","","","","","","","null","","","","","","","",""
"image-selector-fb","483","1125485","0.0-46.38-0.38","1392","pics2/FR4.jpg,pics2/FR2.jpg","","","","","","","false","0","","","sizeS.png","","",""
"image-slider-2AFC","484","1127001","0.0-46.38-1.38","1515","","","","-6","","","","","","","","sizeS.png","1051","-6",""
"html-keyboard-response","485","1127803","0.0-46.38-2.38","null","","","","","","","null","","","","","","","",""
"image-selector-fb","486","1130810","0.0-46.39-0.39","null","pics2/SW4.jpg,pics2/SW6.jpg","","","","","","","false","null","","","noS.png","","",""
"image-slider-2AFC","487","1133536","0.0-46.39-1.39","2726","","","","-18","","","","","","","","sizeS.png","2156","-18",""
"html-keyboard-response","488","1134238","0.0-46.39-2.39","null","","","","","","","null","","","","","","","",""
"image-selector-fb","489","1137724","0.0-46.40-0.40","2982","pics2/FR2.jpg,pics2/VE1.jpg","","","","","","","false","0","","","heartS.png","","",""
"image-slider-2AFC","490","1140072","0.0-46.40-1.40","2346","","","","-78","","","","","","","","heartS.png","1549","-78",""
"html-keyboard-response","491","1140824","0.0-46.40-2.40","null","","","","","","","null","","","","","","","",""
"image-selector-fb","492","1143831","0.0-46.41-0.41","null","pics2/SW5.jpg,pics2/SW6.jpg","","","","","","","false","null","","","noS.png","","",""
"image-slider-2AFC","493","1147094","0.0-46.41-1.41","3262","","","","-57","","","","","","","","sizeS.png","2292","-57",""
"html-keyboard-response","494","1147897","0.0-46.41-2.41","null","","","","","","","null","","","","","","","",""
"image-selector-fb","495","1150032","0.0-46.42-0.42","1632","pics2/VE1.jpg,pics2/SW5.jpg","","","","","","","true","1","","","heartS.png","","",""
"image-slider-2AFC","496","1151892","0.0-46.42-1.42","1857","","","","24","","","","","","","","heartS.png","1344","24",""
"html-keyboard-response","497","1152744","0.0-46.42-2.42","null","","","","","","","null","","","","","","","",""
"image-selector-fb","498","1155750","0.0-46.43-0.43","null","pics2/FR4.jpg,pics2/SW6.jpg","","","","","","","false","null","","","noS.png","","",""
"image-slider-2AFC","499","1159661","0.0-46.43-1.43","3909","","","","-45","","","","","","","","heartS.png","2163","-45",""
"html-keyboard-response","500","1160413","0.0-46.43-2.43","null","","","","","","","null","","","","","","","",""
"image-selector-fb","501","1163417","0.0-46.44-0.44","null","pics2/SW4.jpg,pics2/FR6.jpg","","","","","","","false","null","","","noS.png","","",""
"image-slider-2AFC","502","1166780","0.0-46.44-1.44","3362","","","","-37","","","","","","","","heartS.png","2261","-37",""
"html-keyboard-response","503","1167582","0.0-46.44-2.44","null","","","","","","","null","","","","","","","",""
"image-selector-fb","504","1170589","0.0-46.45-0.45","null","pics2/SW4.jpg,pics2/FR1.jpg","","","","","","","false","null","","","noS.png","","",""
"image-slider-2AFC","505","1174184","0.0-46.45-1.45","3593","","","","39","","","","","","","","sizeS.png","3055","39",""
"html-keyboard-response","506","1174985","0.0-46.45-2.45","null","","","","","","","null","","","","","","","",""
"image-selector-fb","507","1177483","0.0-46.46-0.46","1993","pics2/FR6.jpg,pics2/SW5.jpg","","","","","","","true","1","","","heartS.png","","",""
"image-slider-2AFC","508","1179399","0.0-46.46-1.46","1914","","","","37","","","","","","","","sizeS.png","1278","37",""
"html-keyboard-response","509","1180251","0.0-46.46-2.46","null","","","","","","","null","","","","","","","",""
"image-selector-fb","510","1181884","0.0-46.47-0.47","1128","pics2/SW3.jpg,pics2/FR6.jpg","","","","","","","false","0","","","sizeS.png","","",""
"image-slider-2AFC","511","1184264","0.0-46.47-1.47","2379","","","","-47","","","","","","","","sizeS.png","1499","-47",""
"html-keyboard-response","512","1185117","0.0-46.47-2.47","null","","","","","","","null","","","","","","","",""
"image-selector-fb","513","1188123","0.0-46.48-0.48","null","pics2/SW4.jpg,pics2/SW5.jpg","","","","","","","false","null","","","noS.png","","",""
"image-slider-2AFC","514","1191325","0.0-46.48-1.48","3200","","","","-64","","","","","","","","sizeS.png","2247","-64",""
"html-keyboard-response","515","1192029","0.0-46.48-2.48","null","","","","","","","null","","","","","","","",""
"image-selector-fb","516","1194032","0.0-46.49-0.49","1499","pics2/FR4.jpg,pics2/SW3.jpg","","","","","","","false","0","","","sizeS.png","","",""
"image-slider-2AFC","517","1195964","0.0-46.49-1.49","1931","","","","-27","","","","","","","","sizeS.png","1245","-27",""
"html-keyboard-response","518","1196817","0.0-46.49-2.49","null","","","","","","","null","","","","","","","",""
"image-selector-fb","519","1198514","0.0-46.50-0.50","1194","pics2/FR6.jpg,pics2/VE1.jpg","","","","","","","true","1","","","heartS.png","","",""
"image-slider-2AFC","520","1200250","0.0-46.50-1.50","1734","","","","44","","","","","","","","heartS.png","984","44",""
"html-keyboard-response","521","1201003","0.0-46.50-2.50","null","","","","","","","null","","","","","","","",""
"image-selector-fb","522","1204515","0.0-46.51-0.51","3009","pics2/SW2.jpg,pics2/FR2.jpg","","","","","","","false","0","","","sizeS.png","","",""
"image-slider-2AFC","523","1207201","0.0-46.51-1.51","2683","","","","-59","","","","","","","","heartS.png","1844","-59",""
"html-keyboard-response","524","1207953","0.0-46.51-2.51","null","","","","","","","null","","","","","","","",""
"image-selector-fb","525","1210701","0.0-46.52-0.52","2244","pics2/SW3.jpg,pics2/SA4.jpg","","","","","","","true","1","","","heartS.png","","",""
"image-slider-2AFC","526","1213959","0.0-46.52-1.52","3257","","","","-46","","","","","","","","sizeS.png","2530","-46",""
"html-keyboard-response","527","1214713","0.0-46.52-2.52","null","","","","","","","null","","","","","","","",""
"image-selector-fb","528","1217119","0.0-46.53-0.53","1903","pics2/FR1.jpg,pics2/FR2.jpg","","","","","","","true","1","","","sizeS.png","","",""
"image-slider-2AFC","529","1219811","0.0-46.53-1.53","2689","","","","5","","","","","","","","sizeS.png","1833","5",""
"html-keyboard-response","530","1220664","0.0-46.53-2.53","null","","","","","","","null","","","","","","","",""
"image-selector-fb","531","1222466","0.0-46.54-0.54","1297","pics2/VE1.jpg,pics2/SA4.jpg","","","","","","","true","1","","","heartS.png","","",""
"image-slider-2AFC","532","1225633","0.0-46.54-1.54","3166","","","","99","","","","","","","","heartS.png","2472","99",""
"html-keyboard-response","533","1226486","0.0-46.54-2.54","null","","","","","","","null","","","","","","","",""
"image-selector-fb","534","1229078","0.0-46.55-0.55","2087","pics2/FR1.jpg,pics2/SW5.jpg","","","","","","","true","1","","","heartS.png","","",""
"image-slider-2AFC","535","1231193","0.0-46.55-1.55","2113","","","","53","","","","","","","","heartS.png","1347","53",""
"html-keyboard-response","536","1231995","0.0-46.55-2.55","null","","","","","","","null","","","","","","","",""
"image-selector-fb","537","1235002","0.0-46.56-0.56","null","pics2/FR2.jpg,pics2/VE1.jpg","","","","","","","false","null","","","noS.png","","",""
"image-slider-2AFC","538","1237582","0.0-46.56-1.56","2577","","","","-61","","","","","","","","sizeS.png","1787","-61",""
"html-keyboard-response","539","1238334","0.0-46.56-2.56","null","","","","","","","null","","","","","","","",""
"image-selector-fb","540","1240986","0.0-46.57-0.57","2148","pics2/SW4.jpg,pics2/SW3.jpg","","","","","","","true","1","","","sizeS.png","","",""
"image-slider-2AFC","541","1243273","0.0-46.57-1.57","2285","","","","45","","","","","","","","sizeS.png","1642","45",""
"html-keyboard-response","542","1244076","0.0-46.57-2.57","null","","","","","","","null","","","","","","","",""
"image-selector-fb","543","1246654","0.0-46.58-0.58","2073","pics2/FR4.jpg,pics2/SW2.jpg","","","","","","","true","1","","","sizeS.png","","",""
"image-slider-2AFC","544","1248891","0.0-46.58-1.58","2235","","","","40","","","","","","","","sizeS.png","1722","40",""
"html-keyboard-response","545","1249744","0.0-46.58-2.58","null","","","","","","","null","","","","","","","",""
"image-selector-fb","546","1252749","0.0-46.59-0.59","null","pics2/FR2.jpg,pics2/SW4.jpg","","","","","","","false","null","","","noS.png","","",""
"image-slider-2AFC","547","1255455","0.0-46.59-1.59","2703","","","","-51","","","","","","","","heartS.png","1856","-51",""
"html-keyboard-response","548","1256257","0.0-46.59-2.59","null","","","","","","","null","","","","","","","",""
"image-selector-fb","549","1259263","0.0-46.60-0.60","null","pics2/VE1.jpg,pics2/SW6.jpg","","","","","","","false","null","","","noS.png","","",""
"image-slider-2AFC","550","1262859","0.0-46.60-1.60","3594","","","","-36","","","","","","","","heartS.png","2641","-36",""
"html-keyboard-response","551","1263612","0.0-46.60-2.60","null","","","","","","","null","","","","","","","",""
"image-selector-fb","552","1265767","0.0-46.61-0.61","1650","pics2/SW2.jpg,pics2/SW4.jpg","","","","","","","false","0","","","sizeS.png","","",""
"image-slider-2AFC","553","1268149","0.0-46.61-1.61","2381","","","","-41","","","","","","","","heartS.png","1551","-41",""
"html-keyboard-response","554","1268853","0.0-46.61-2.61","null","","","","","","","null","","","","","","","",""
"image-selector-fb","555","1271859","0.0-46.62-0.62","null","pics2/SA4.jpg,pics2/FR4.jpg","","","","","","","false","null","","","noS.png","","",""
"image-slider-2AFC","556","1275607","0.0-46.62-1.62","3747","","","","-39","","","","","","","","heartS.png","3177","-39",""
"html-keyboard-response","557","1276408","0.0-46.62-2.62","null","","","","","","","null","","","","","","","",""
"image-selector-fb","558","1279347","0.0-46.63-0.63","2434","pics2/SW4.jpg,pics2/SA4.jpg","","","","","","","false","0","","","sizeS.png","","",""
"image-slider-2AFC","559","1281332","0.0-46.63-1.63","1983","","","","54","","","","","","","","heartS.png","1233","54",""
"html-keyboard-response","560","1282085","0.0-46.63-2.63","null","","","","","","","null","","","","","","","",""
"image-selector-fb","561","1284215","0.0-46.64-0.64","1625","pics2/SW2.jpg,pics2/SW6.jpg","","","","","","","false","0","","","heartS.png","","",""
"image-slider-2AFC","562","1286518","0.0-46.64-1.64","2301","","","","-44","","","","","","","","heartS.png","1439","-44",""
"html-keyboard-response","563","1287221","0.0-46.64-2.64","null","","","","","","","null","","","","","","","",""
"image-selector-fb","564","1289678","0.0-46.65-0.65","1952","pics2/SA4.jpg,pics2/FR6.jpg","","","","","","","true","1","","","sizeS.png","","",""
"image-slider-2AFC","565","1291493","0.0-46.65-1.65","1813","","","","37","","","","","","","","sizeS.png","1112","37",""
"html-keyboard-response","566","1292196","0.0-46.65-2.65","null","","","","","","","null","","","","","","","",""
"pavlovia","567","1292214","0.0-47.0","","","","","","","","","","","","","","","",""
"html-keyboard-response","568","1297215","0.0-48.0","null","<div style='width: 700px;'> <font size=6><b>SHORT BREAK</font></b><br><br><i> Please wait 5 seconds to continue</i></div> ","","","","","","null","","","","","","","",""
"pavlovia","569","1297217","0.0-49.0","","","","","","","","","","","","","","","",""
"html-button-response","570","1321408","0.0-50.0","24190","<div style='width: 700px;'> <font size=6><b>BLOCK 3</font></b><br><br>Press the button whenever you feel ready to start the third and final block</div>","0","","","","","","","","","","","","",""
"image-selector-fb","571","1325911","0.0-51.0-0.0","null","pics2/VE1.jpg,pics2/SW4.jpg","","","","","","","false","null","","","heartS.png","","",""
"image-slider-2AFC","572","1325912","0.0-51.0-1.0","null","","","","null","","","","","","","","sizeS.png","","",""
"html-keyboard-response","573","1326765","0.0-51.0-2.0","null","","","","","","","null","","","","","","","",""
"image-selector-fb","574","1328474","0.0-51.1-0.1","1204","pics2/FR6.jpg,pics2/FR1.jpg","","","","","","","true","1","","","heartS.png","","",""
"image-slider-2AFC","575","1331840","0.0-51.1-1.1","3365","","","","34","","","","","","","","sizeS.png","2868","34",""
"html-keyboard-response","576","1332693","0.0-51.1-2.1","null","","","","","","","null","","","","","","","",""
"image-selector-fb","577","1334983","0.0-51.2-0.2","1783","pics2/FR1.jpg,pics2/FR4.jpg","","","","","","","true","1","","","heartS.png","","",""
"image-slider-2AFC","578","1337353","0.0-51.2-1.2","2369","","","","35","","","","","","","","heartS.png","1888","35",""
"html-keyboard-response","579","1338206","0.0-51.2-2.2","null","","","","","","","null","","","","","","","",""
"image-selector-fb","580","1340693","0.0-51.3-0.3","1983","pics2/FR4.jpg,pics2/SW1.jpg","","","","","","","false","0","","","sizeS.png","","",""
"image-slider-2AFC","581","1342663","0.0-51.3-1.3","1967","","","","-44","","","","","","","","heartS.png","1167","-44",""
"html-keyboard-response","582","1343366","0.0-51.3-2.3","null","","","","","","","null","","","","","","","",""
"image-selector-fb","583","1345147","0.0-51.4-0.4","1276","pics2/FR2.jpg,pics2/FR1.jpg","","","","","","","false","0","","","heartS.png","","",""
"image-slider-2AFC","584","1347775","0.0-51.4-1.4","2627","","","","-16","","","","","","","","sizeS.png","1821","-16",""
"html-keyboard-response","585","1348479","0.0-51.4-2.4","null","","","","","","","null","","","","","","","",""
"image-selector-fb","586","1351484","0.0-51.5-0.5","null","pics2/FR4.jpg,pics2/FR1.jpg","","","","","","","false","null","","","noS.png","","",""
"image-slider-2AFC","587","1354099","0.0-51.5-1.5","2613","","","","-37","","","","","","","","heartS.png","1872","-37",""
"html-keyboard-response","588","1354802","0.0-51.5-2.5","null","","","","","","","null","","","","","","","",""
"image-selector-fb","589","1357240","0.0-51.6-0.6","1934","pics2/SW2.jpg,pics2/SA4.jpg","","","","","","","false","0","","","sizeS.png","","",""
"image-slider-2AFC","590","1359349","0.0-51.6-1.6","2107","","","","-28","","","","","","","","sizeS.png","1195","-28",""
"html-keyboard-response","591","1360152","0.0-51.6-2.6","null","","","","","","","null","","","","","","","",""
"image-selector-fb","592","1361972","0.0-51.7-0.7","1314","pics2/SW6.jpg,pics2/FR2.jpg","","","","","","","true","1","","","sizeS.png","","",""
"image-slider-2AFC","593","1364136","0.0-51.7-1.7","2162","","","","65","","","","","","","","sizeS.png","1403","65",""
"html-keyboard-response","594","1364990","0.0-51.7-2.7","null","","","","","","","null","","","","","","","",""
"image-selector-fb","595","1367994","0.0-51.8-0.8","null","pics2/SW5.jpg,pics2/FR4.jpg","","","","","","","false","null","","","noS.png","","",""
"image-slider-2AFC","596","1372060","0.0-51.8-1.8","4064","","","","66","","","","","","","","heartS.png","3494","66",""
"html-keyboard-response","597","1372812","0.0-51.8-2.8","null","","","","","","","null","","","","","","","",""
"image-selector-fb","598","1375818","0.0-51.9-0.9","null","pics2/SW3.jpg,pics2/SW4.jpg","","","","","","","false","null","","","noS.png","","",""
"image-slider-2AFC","599","1378085","0.0-51.9-1.9","2266","","","","-43","","","","","","","","sizeS.png","1556","-43",""
"html-keyboard-response","600","1378938","0.0-51.9-2.9","null","","","","","","","null","","","","","","","",""
"image-selector-fb","601","1381945","0.0-51.10-0.10","null","pics2/SA4.jpg,pics2/SW3.jpg","","","","","","","false","null","","","noS.png","","",""
"image-slider-2AFC","602","1385142","0.0-51.10-1.10","3196","","","","-65","","","","","","","","heartS.png","2554","-65",""
"html-keyboard-response","603","1385944","0.0-51.10-2.10","null","","","","","","","null","","","","","","","",""
"image-selector-fb","604","1388989","0.0-51.11-0.11","2541","pics2/FR6.jpg,pics2/SW2.jpg","","","","","","","true","1","","","heartS.png","","",""
"image-slider-2AFC","605","1391641","0.0-51.11-1.11","2651","","","","38","","","","","","","","heartS.png","1999","38",""
"html-keyboard-response","606","1392494","0.0-51.11-2.11","null","","","","","","","null","","","","","","","",""
"image-selector-fb","607","1394427","0.0-51.12-0.12","1428","pics2/FR2.jpg,pics2/SW4.jpg","","","","","","","false","0","","","heartS.png","","",""
"image-slider-2AFC","608","1396551","0.0-51.12-1.12","2122","","","","-42","","","","","","","","heartS.png","1591","-42",""
"html-keyboard-response","609","1397354","0.0-51.12-2.12","null","","","","","","","null","","","","","","","",""
"image-selector-fb","610","1400359","0.0-51.13-0.13","null","pics2/SW1.jpg,pics2/VE1.jpg","","","","","","","false","null","","","noS.png","","",""
"image-slider-2AFC","611","1404273","0.0-51.13-1.13","3911","","","","-48","","","","","","","","heartS.png","3186","-48",""
"html-keyboard-response","612","1404975","0.0-51.13-2.13","null","","","","","","","null","","","","","","","",""
"image-selector-fb","613","1407490","0.0-51.14-0.14","2010","pics2/SW2.jpg,pics2/SW3.jpg","","","","","","","false","0","","","sizeS.png","","",""
"image-slider-2AFC","614","1409478","0.0-51.14-1.14","1986","","","","-14","","","","","","","","heartS.png","1362","-14",""
"html-keyboard-response","615","1410181","0.0-51.14-2.14","null","","","","","","","null","","","","","","","",""
"image-selector-fb","616","1412245","0.0-51.15-0.15","1559","pics2/SA4.jpg,pics2/SW3.jpg","","","","","","","true","1","","","sizeS.png","","",""
"image-slider-2AFC","617","1414312","0.0-51.15-1.15","2066","","","","-77","","","","","","","","heartS.png","1422","-77",""
"html-keyboard-response","618","1415064","0.0-51.15-2.15","null","","","","","","","null","","","","","","","",""
"image-selector-fb","619","1416899","0.0-51.16-0.16","1331","pics2/SW5.jpg,pics2/SW2.jpg","","","","","","","true","1","","","sizeS.png","","",""
"image-slider-2AFC","620","1418716","0.0-51.16-1.16","1814","","","","21","","","","","","","","heartS.png","1220","21",""
"html-keyboard-response","621","1419467","0.0-51.16-2.16","null","","","","","","","null","","","","","","","",""
"image-selector-fb","622","1421547","0.0-51.17-0.17","1575","pics2/SW1.jpg,pics2/SW6.jpg","","","","","","","false","0","","","heartS.png","","",""
"image-slider-2AFC","623","1424172","0.0-51.17-1.17","2623","","","","-35","","","","","","","","sizeS.png","2071","-35",""
"html-keyboard-response","624","1424974","0.0-51.17-2.17","null","","","","","","","null","","","","","","","",""
"image-selector-fb","625","1427913","0.0-51.18-0.18","2435","pics2/VE1.jpg,pics2/SW3.jpg","","","","","","","true","1","","","heartS.png","","",""
"image-slider-2AFC","626","1430843","0.0-51.18-1.18","2927","","","","9","","","","","","","","sizeS.png","2463","9",""
"html-keyboard-response","627","1431645","0.0-51.18-2.18","null","","","","","","","null","","","","","","","",""
"image-selector-fb","628","1433449","0.0-51.19-0.19","1299","pics2/SW1.jpg,pics2/FR4.jpg","","","","","","","true","1","","","heartS.png","","",""
"image-slider-2AFC","629","1435255","0.0-51.19-1.19","1804","","","","7","","","","","","","","heartS.png","1362","7",""
"html-keyboard-response","630","1436007","0.0-51.19-2.19","null","","","","","","","null","","","","","","","",""
"image-selector-fb","631","1439076","0.0-51.20-0.20","2564","pics2/SW1.jpg,pics2/FR1.jpg","","","","","","","false","0","","","sizeS.png","","",""
"image-slider-2AFC","632","1441029","0.0-51.20-1.20","1952","","","","-12","","","","","","","","heartS.png","1454","-12",""
"html-keyboard-response","633","1441783","0.0-51.20-2.20","null","","","","","","","null","","","","","","","",""
"image-selector-fb","634","1444516","0.0-51.21-0.21","2229","pics2/SW2.jpg,pics2/FR6.jpg","","","","","","","false","0","","","sizeS.png","","",""
"image-slider-2AFC","635","1446729","0.0-51.21-1.21","2212","","","","-70","","","","","","","","sizeS.png","1535","-70",""
"html-keyboard-response","636","1447582","0.0-51.21-2.21","null","","","","","","","null","","","","","","","",""
"image-selector-fb","637","1450588","0.0-51.22-0.22","null","pics2/FR4.jpg,pics2/VE1.jpg","","","","","","","false","null","","","noS.png","","",""
"image-slider-2AFC","638","1455590","0.0-51.22-1.22","null","","","","null","","","","","","","","heartS.png","","",""
"html-keyboard-response","639","1456293","0.0-51.22-2.22","null","","","","","","","null","","","","","","","",""
"image-selector-fb","640","1458701","0.0-51.23-0.23","1903","pics2/FR1.jpg,pics2/SW4.jpg","","","","","","","true","1","","","heartS.png","","",""
"image-slider-2AFC","641","1460328","0.0-51.23-1.23","1625","","","","31","","","","","","","","sizeS.png","1095","31",""
"html-keyboard-response","642","1461031","0.0-51.23-2.23","null","","","","","","","null","","","","","","","",""
"image-selector-fb","643","1462908","0.0-51.24-0.24","1373","pics2/SA4.jpg,pics2/SW6.jpg","","","","","","","false","0","","","heartS.png","","",""
"image-slider-2AFC","644","1464708","0.0-51.24-1.24","1798","","","","-70","","","","","","","","heartS.png","1059","-70",""
"html-keyboard-response","645","1465510","0.0-51.24-2.24","null","","","","","","","null","","","","","","","",""
"image-selector-fb","646","1468896","0.0-51.25-0.25","2882","pics2/SW6.jpg,pics2/FR1.jpg","","","","","","","false","0","","","sizeS.png","","",""
"image-slider-2AFC","647","1471047","0.0-51.25-1.25","2149","","","","-23","","","","","","","","heartS.png","1554","-23",""
"html-keyboard-response","648","1471749","0.0-51.25-2.25","null","","","","","","","null","","","","","","","",""
"image-selector-fb","649","1474756","0.0-51.26-0.26","null","pics2/FR2.jpg,pics2/SW5.jpg","","","","","","","false","null","","","noS.png","","",""
"image-slider-2AFC","650","1478999","0.0-51.26-1.26","4242","","","","-21","","","","","","","","sizeS.png","3720","-21",""
"html-keyboard-response","651","1479702","0.0-51.26-2.26","null","","","","","","","null","","","","","","","",""
"image-selector-fb","652","1483240","0.0-51.27-0.27","3033","pics2/SW4.jpg,pics2/FR1.jpg","","","","","","","false","0","","","sizeS.png","","",""
"image-slider-2AFC","653","1485404","0.0-51.27-1.27","2163","","","","-15","","","","","","","","heartS.png","1690","-15",""
"html-keyboard-response","654","1486157","0.0-51.27-2.27","null","","","","","","","null","","","","","","","",""
"image-selector-fb","655","1488468","0.0-51.28-0.28","1807","pics2/SW2.jpg,pics2/FR1.jpg","","","","","","","false","0","","","sizeS.png","","",""
"image-slider-2AFC","656","1490595","0.0-51.28-1.28","2124","","","","-33","","","","","","","","sizeS.png","1432","-33",""
"html-keyboard-response","657","1491348","0.0-51.28-2.28","null","","","","","","","null","","","","","","","",""
"image-selector-fb","658","1494354","0.0-51.29-0.29","null","pics2/SW3.jpg,pics2/SW6.jpg","","","","","","","false","null","","","noS.png","","",""
"image-slider-2AFC","659","1496829","0.0-51.29-1.29","2473","","","","-30","","","","","","","","heartS.png","1839","-30",""
"html-keyboard-response","660","1497582","0.0-51.29-2.29","null","","","","","","","null","","","","","","","",""
"image-selector-fb","661","1500588","0.0-51.30-0.30","null","pics2/FR4.jpg,pics2/SW2.jpg","","","","","","","false","null","","","noS.png","","",""
"image-slider-2AFC","662","1503945","0.0-51.30-1.30","3356","","","","2","","","","","","","","sizeS.png","2770","2",""
"html-keyboard-response","663","1504748","0.0-51.30-2.30","null","","","","","","","null","","","","","","","",""
"image-selector-fb","664","1506298","0.0-51.31-0.31","1046","pics2/SW4.jpg,pics2/SW2.jpg","","","","","","","true","1","","","heartS.png","","",""
"image-slider-2AFC","665","1509077","0.0-51.31-1.31","2776","","","","16","","","","","","","","sizeS.png","1879","16",""
"html-keyboard-response","666","1509829","0.0-51.31-2.31","null","","","","","","","null","","","","","","","",""
"image-selector-fb","667","1511496","0.0-51.32-0.32","1163","pics2/FR6.jpg,pics2/FR2.jpg","","","","","","","true","1","","","sizeS.png","","",""
"image-slider-2AFC","668","1512950","0.0-51.32-1.32","1452","","","","11","","","","","","","","heartS.png","996","11",""
"html-keyboard-response","669","1513752","0.0-51.32-2.32","null","","","","","","","null","","","","","","","",""
"image-selector-fb","670","1515955","0.0-51.33-0.33","1699","pics2/SW5.jpg,pics2/SA4.jpg","","","","","","","false","0","","","sizeS.png","","",""
"image-slider-2AFC","671","1518304","0.0-51.33-1.33","2347","","","","-11","","","","","","","","sizeS.png","1768","-11",""
"html-keyboard-response","672","1519008","0.0-51.33-2.33","null","","","","","","","null","","","","","","","",""
"image-selector-fb","673","1522017","0.0-51.34-0.34","null","pics2/FR6.jpg,pics2/SW2.jpg","","","","","","","false","null","","","noS.png","","",""
"image-slider-2AFC","674","1524326","0.0-51.34-1.34","2307","","","","33","","","","","","","","heartS.png","1850","33",""
"html-keyboard-response","675","1525079","0.0-51.34-2.34","null","","","","","","","null","","","","","","","",""
"image-selector-fb","676","1527299","0.0-51.35-0.35","1716","pics2/SW3.jpg,pics2/VE1.jpg","","","","","","","false","0","","","sizeS.png","","",""
"image-slider-2AFC","677","1528992","0.0-51.35-1.35","1690","","","","-26","","","","","","","","heartS.png","1160","-26",""
"html-keyboard-response","678","1529744","0.0-51.35-2.35","null","","","","","","","null","","","","","","","",""
"image-selector-fb","679","1531327","0.0-51.36-0.36","1078","pics2/FR2.jpg,pics2/FR4.jpg","","","","","","","true","1","","","heartS.png","","",""
"image-slider-2AFC","680","1533767","0.0-51.36-1.36","2437","","","","-22","","","","","","","","sizeS.png","1949","-22",""
"html-keyboard-response","681","1534520","0.0-51.36-2.36","null","","","","","","","null","","","","","","","",""
"image-selector-fb","682","1537527","0.0-51.37-0.37","null","pics2/SA4.jpg,pics2/FR2.jpg","","","","","","","false","null","","","noS.png","","",""
"image-slider-2AFC","683","1540619","0.0-51.37-1.37","3090","","","","73","","","","","","","","sizeS.png","2366","73",""
"html-keyboard-response","684","1541471","0.0-51.37-2.37","null","","","","","","","null","","","","","","","",""
"image-selector-fb","685","1544399","0.0-51.38-0.38","2423","pics2/SW3.jpg,pics2/FR1.jpg","","","","","","","false","0","","","sizeS.png","","",""
"image-slider-2AFC","686","1546156","0.0-51.38-1.38","1755","","","","-31","","","","","","","","sizeS.png","1161","-31",""
"html-keyboard-response","687","1547007","0.0-51.38-2.38","null","","","","","","","null","","","","","","","",""
"image-selector-fb","688","1550013","0.0-51.39-0.39","null","pics2/FR1.jpg,pics2/SW2.jpg","","","","","","","false","null","","","noS.png","","",""
"image-slider-2AFC","689","1551726","0.0-51.39-1.39","1711","","","","30","","","","","","","","heartS.png","1189","30",""
"html-keyboard-response","690","1552478","0.0-51.39-2.39","null","","","","","","","null","","","","","","","",""
"image-selector-fb","691","1555483","0.0-51.40-0.40","null","pics2/SW5.jpg,pics2/FR1.jpg","","","","","","","false","null","","","noS.png","","",""
"image-slider-2AFC","692","1559194","0.0-51.40-1.40","3708","","","","22","","","","","","","","sizeS.png","2804","22",""
"html-keyboard-response","693","1559996","0.0-51.40-2.40","null","","","","","","","null","","","","","","","",""
"image-selector-fb","694","1562265","0.0-51.41-0.41","1765","pics2/SW5.jpg,pics2/SW6.jpg","","","","","","","false","0","","","heartS.png","","",""
"image-slider-2AFC","695","1564120","0.0-51.41-1.41","1852","","","","-17","","","","","","","","heartS.png","1266","-17",""
"html-keyboard-response","696","1564872","0.0-51.41-2.41","null","","","","","","","null","","","","","","","",""
"image-selector-fb","697","1567398","0.0-51.42-0.42","2021","pics2/FR2.jpg,pics2/SW2.jpg","","","","","","","true","1","","","heartS.png","","",""
"image-slider-2AFC","698","1569334","0.0-51.42-1.42","1934","","","","35","","","","","","","","heartS.png","1111","35",""
"html-keyboard-response","699","1570434","0.0-51.42-2.42","null","","","","","","","null","","","","","","","",""
"image-selector-fb","700","1573439","0.0-51.43-0.43","null","pics2/SA4.jpg,pics2/SW2.jpg","","","","","","","false","null","","","noS.png","","",""
"image-slider-2AFC","701","1576733","0.0-51.43-1.43","3292","","","","-58","","","","","","","","heartS.png","2444","-58",""
"html-keyboard-response","702","1577537","0.0-51.43-2.43","null","","","","","","","null","","","","","","","",""
"image-selector-fb","703","1579591","0.0-51.44-0.44","1549","pics2/SW1.jpg,pics2/FR6.jpg","","","","","","","false","0","","","sizeS.png","","",""
"image-slider-2AFC","704","1582205","0.0-51.44-1.44","2611","","","","-39","","","","","","","","heartS.png","1919","-39",""
"html-keyboard-response","705","1582908","0.0-51.44-2.44","null","","","","","","","null","","","","","","","",""
"image-selector-fb","706","1585554","0.0-51.45-0.45","2142","pics2/SW3.jpg,pics2/FR2.jpg","","","","","","","true","1","","","sizeS.png","","",""
"image-slider-2AFC","707","1587168","0.0-51.45-1.45","1612","","","","-15","","","","","","","","heartS.png","984","-15",""
"html-keyboard-response","708","1587969","0.0-51.45-2.45","null","","","","","","","null","","","","","","","",""
"image-selector-fb","709","1589974","0.0-51.46-0.46","1498","pics2/SW6.jpg,pics2/SW2.jpg","","","","","","","true","1","","","sizeS.png","","",""
"image-slider-2AFC","710","1593043","0.0-51.46-1.46","3067","","","","10","","","","","","","","sizeS.png","2619","10",""
"html-keyboard-response","711","1593896","0.0-51.46-2.46","null","","","","","","","null","","","","","","","",""
