"trial_type","trial_index","time_elapsed","internal_node_id","rt","stimulus","button_pressed","success","response","cat","value","key_press","correct","image_click","first_click_rt","first_click_val","symbol","all_click_rt","all_click_val","view_history"
"pavlovia","0","44","0.0-0.0","","","","","","","","","","","","","","","",""
"html-button-response","1","15579","0.0-1.0","15529","<div style='width: 700px; font-size: 150%'><font size='40'>  Welcome to our study!</font><br><br><br> <small> Our experiment is about <i>decision making</i>. You will choose and rate different food items, such as these: <br><br> <div><img src='food_combo2.png', height = '400px'></img></div>","0","","","","","","","","","","","","",""
"html-button-response","2","20488","0.0-2.0","4908","<div style='width: 700px; font-size: 150%'><br><br><br><small> <u><i>This is a multi-part study.</i></u><br><br> In the first part you will rate 24 food items twice.<br><br><div><img src=""rat1.png"" style=""width: 25%""></img></div><br>In the second part (longest) you will make repeated choices and judgements concerning the food items.<br><br><div><img src=""mainx.png"" style=""width: 50%""></img></div><br>In the third and final part, you will rate the items again and answer few short questionnaires.<br><br><div><img src=""rat2.png"" style=""width: 50%""></img></div><br><br>","0","","","","","","","","","","","","",""
"fullscreen","3","24032","0.0-3.0","","","","true","","","","","","","","","","","",""
"html-button-response","4","50379","0.0-4.0","26346","<div style='width: 900px; font-size: 150%;' <font size='20%'> In the first part of the task you will use the mouse to rate food items on <i>2 scales</i> </font></div><br><br><div style='width: 900px'><div style='float: left; width: 50%; margin-right:2.5em'><img src='heartS.png'></img><p class='small' style='text-align: justify'>When you see the heart cue you will rate food items in terms of how much like them/would like to eat them <i>right now</i>. You will rate them on a continuous scale from left (strong dislike) to right (strong liking). Before submitting your rating, try imagining how the item tastes and how much you desire it.<br><br></p></div><div ><img src='sizeS.png'></img><p class='small' style='text-align: justify'>When you see the size cue, you will rate the same food items in terms of their size. The scale goes from left (tiny) to right (very large). You should assess picture size <i><u>relative</i></u> to the white background. <b>Remember:</b> rate the size of the picture, <u>not</u> the size of the item in real life. </p></div><div style='width: 900px'><br><br><b><i>Notice:</b> by starting the rating you agree that your sumbission might be rejected at an early stage and the experiment might end, if your size ratings are not at least modestly related to objective sizes, or if you repeat the same value ratings too many times. If you don't agree, please exit by closing the browser window. </i><br><br><br>","0","","","","","","","","","","","","",""
"html-button-response","5","58380","0.0-5.0","7999","<div><img src='heartS.png'></img></div><br><div style='text-align: justify; width: 700px'>Using the mouse, rate the <b><i>likeness</b></i> of the food items (how much you like them/would like to eat them <i>right now</i>). Far right-end of the scale indicates an item you <i>like a lot</i>. Far left-end indicates an item you <i>dislike a lot</i>. Think about each answer.   <ul><li>Try <b><i>not</b></i> to give identical rating to different items.</li><li>Use the whole scale, and <b><i>not</b></i> just the extremes</ul></div><br>","0","","","","","","","","","","","","",""
"image-slider-response","6","67873","0.0-6.0-0.0-0.0","9490","pics2/FR5.jpg","","","75","FR","","","","","","","","","",""
"image-slider-response","7","79861","0.0-6.0-0.0-0.1","11780","pics2/SA2.jpg","","","86","SA","","","","","","","","","",""
"image-slider-response","8","82538","0.0-6.0-0.0-0.2","2467","pics2/SA4.jpg","","","100","SA","","","","","","","","","",""
"image-slider-response","9","91307","0.0-6.0-0.0-0.3","8567","pics2/SA6.jpg","","","89","SA","","","","","","","","","",""
"image-slider-response","10","96796","0.0-6.0-0.0-0.4","5282","pics2/FR2.jpg","","","100","FR","","","","","","","","","",""
"image-slider-response","11","103818","0.0-6.0-0.0-0.5","6819","pics2/VE2.jpg","","","41","VE","","","","","","","","","",""
"image-slider-response","12","106158","0.0-6.0-0.0-0.6","2137","pics2/VE6.jpg","","","0","VE","","","","","","","","","",""
"image-slider-response","13","110559","0.0-6.0-0.0-0.7","4194","pics2/SW5.jpg","","","64","SW","","","","","","","","","",""
"image-slider-response","14","115407","0.0-6.0-0.0-0.8","4646","pics2/VE3.jpg","","","39","VE","","","","","","","","","",""
"image-slider-response","15","118547","0.0-6.0-0.0-0.9","2933","pics2/VE4.jpg","","","17","VE","","","","","","","","","",""
"image-slider-response","16","123113","0.0-6.0-0.0-0.10","4356","pics2/SA5.jpg","","","3","SA","","","","","","","","","",""
"image-slider-response","17","127485","0.0-6.0-0.0-0.11","4166","pics2/FR1.jpg","","","97","FR","","","","","","","","","",""
"image-slider-response","18","130212","0.0-6.0-0.0-0.12","2524","pics2/SW1.jpg","","","100","SW","","","","","","","","","",""
"image-slider-response","19","138168","0.0-6.0-0.0-0.13","7748","pics2/SA1.jpg","","","73","SA","","","","","","","","","",""
"image-slider-response","20","141390","0.0-6.0-0.0-0.14","3018","pics2/VE5.jpg","","","27","VE","","","","","","","","","",""
"image-slider-response","21","144676","0.0-6.0-0.0-0.15","3084","pics2/FR6.jpg","","","77","FR","","","","","","","","","",""
"image-slider-response","22","150413","0.0-6.0-0.0-0.16","5534","pics2/FR4.jpg","","","76","FR","","","","","","","","","",""
"image-slider-response","23","153612","0.0-6.0-0.0-0.17","2990","pics2/SW2.jpg","","","68","SW","","","","","","","","","",""
"image-slider-response","24","156502","0.0-6.0-0.0-0.18","2686","pics2/VE1.jpg","","","26","VE","","","","","","","","","",""
"image-slider-response","25","161253","0.0-6.0-0.0-0.19","4544","pics2/SA3.jpg","","","100","SA","","","","","","","","","",""
"image-slider-response","26","163687","0.0-6.0-0.0-0.20","2229","pics2/SW6.jpg","","","100","SW","","","","","","","","","",""
"image-slider-response","27","166155","0.0-6.0-0.0-0.21","2262","pics2/SW4.jpg","","","100","SW","","","","","","","","","",""
"image-slider-response","28","169087","0.0-6.0-0.0-0.22","2719","pics2/SW3.jpg","","","100","SW","","","","","","","","","",""
"image-slider-response","29","171403","0.0-6.0-0.0-0.23","2108","pics2/FR3.jpg","","","100","FR","","","","","","","","","",""
"html-button-response","30","172882","0.0-7.0","1273","<div style='width: 900px;'> <font size = 6><b> End of the first rating</b><br><br>","0","","","","","","","","","","","","",""
"html-button-response","31","185688","0.0-9.0","12803","<div ><img src='sizeS.png'></img></div><br><div style='text-align: justify; width: 700px'> Using the mouse, rate the <b><i>size</b></i> of the food items <b><i> relative to the white background.</b></i> Right-end of the scale indicates a <i>very large item</i>, which covers a large portion of the white rectangle. Left-end indicates a <i>very tiny</i> item which covers a tiny portion of the white rectangle.<br><br><i><u>Remember</i></u>: everything that is not the white background also contributes to item size (e.g. packing, plates, ect.)<br><br> Please keep in mind that if the accuracy of ratings do not allign well with actual sizes, the experiment will end.  As a result it will be consider incomplete and therefore no payment would be made. Good luck!<br><br></div><br>","0","","","","","","","","","","","","",""
"html-button-response","32","189801","0.0-10.0","4110","<div ><img src='sizeS.png'></img></div><br><b><font size=6>Examples of items that you might encounter</b><br><div style='width: 750px;'><div style='width: 33.33%; float:left'><br><br><br><i>Large Item</i><br><br><img src='large.jpg', width=200px></img></div><div style='float:right'><br><br><br><i>Small Item</i><br><br><img src='small.jpg', width=200px></img></div><div ><br><br><br><i>Medium Item</i><br><br><img src='med.jpg', width=200px></img></div></div><br><br>","0","","","","","","","","","","","","",""
"image-slider-response","33","196997","0.0-11.0-0.0-0.0","7192","pics2/SA2.jpg","","","50","null","","","","","","","","","",""
"image-slider-response","34","200733","0.0-11.0-0.0-0.1","3531","pics2/SA4.jpg","","","39","null","","","","","","","","","",""
"image-slider-response","35","204690","0.0-11.0-0.0-0.2","3755","pics2/SA1.jpg","","","94","null","","","","","","","","","",""
"image-slider-response","36","208612","0.0-11.0-0.0-0.3","3719","pics2/SW1.jpg","","","92","null","","","","","","","","","",""
"image-slider-response","37","212961","0.0-11.0-0.0-0.4","4144","pics2/SA3.jpg","","","82","null","","","","","","","","","",""
"image-slider-response","38","217624","0.0-11.0-0.0-0.5","4461","pics2/SW3.jpg","","","79","null","","","","","","","","","",""
"image-slider-response","39","221700","0.0-11.0-0.0-0.6","3874","pics2/FR4.jpg","","","77","null","","","","","","","","","",""
"image-slider-response","40","225559","0.0-11.0-0.0-0.7","3654","pics2/FR5.jpg","","","73","null","","","","","","","","","",""
"image-slider-response","41","231087","0.0-11.0-0.0-0.8","5324","pics2/VE3.jpg","","","87","null","","","","","","","","","",""
"image-slider-response","42","235332","0.0-11.0-0.0-0.9","4040","pics2/VE5.jpg","","","61","null","","","","","","","","","",""
"image-slider-response","43","238757","0.0-11.0-0.0-0.10","3221","pics2/SW2.jpg","","","96","null","","","","","","","","","",""
"image-slider-response","44","245581","0.0-11.0-0.0-0.11","6620","pics2/FR3.jpg","","","55","null","","","","","","","","","",""
"image-slider-response","45","251335","0.0-11.0-0.0-0.12","5551","pics2/VE4.jpg","","","52","null","","","","","","","","","",""
"image-slider-response","46","254100","0.0-11.0-0.0-0.13","2558","pics2/SW6.jpg","","","42","null","","","","","","","","","",""
"image-slider-response","47","260706","0.0-11.0-0.0-0.14","6402","pics2/SW5.jpg","","","78","null","","","","","","","","","",""
"image-slider-response","48","264442","0.0-11.0-0.0-0.15","3533","pics2/VE2.jpg","","","87","null","","","","","","","","","",""
"image-slider-response","49","267368","0.0-11.0-0.0-0.16","2722","pics2/VE1.jpg","","","96","null","","","","","","","","","",""
"image-slider-response","50","271119","0.0-11.0-0.0-0.17","3545","pics2/SA5.jpg","","","15","null","","","","","","","","","",""
"image-slider-response","51","276116","0.0-11.0-0.0-0.18","4795","pics2/SW4.jpg","","","54","null","","","","","","","","","",""
"image-slider-response","52","282999","0.0-11.0-0.0-0.19","6677","pics2/FR1.jpg","","","93","null","","","","","","","","","",""
"image-slider-response","53","286634","0.0-11.0-0.0-0.20","3427","pics2/FR2.jpg","","","100","null","","","","","","","","","",""
"image-slider-response","54","291071","0.0-11.0-0.0-0.21","4234","pics2/FR6.jpg","","","22","null","","","","","","","","","",""
"image-slider-response","55","295946","0.0-11.0-0.0-0.22","4672","pics2/VE6.jpg","","","29","null","","","","","","","","","",""
"image-slider-response","56","299120","0.0-11.0-0.0-0.23","2972","pics2/SA6.jpg","","","32","null","","","","","","","","","",""
"html-button-response","57","300479","0.0-12.0","1155","<div style='width: 900px;'> <font size = 6><b> End of the second rating</b><br><br>","0","","","","","","","","","","","","",""
"html-button-response","58","303366","0.0-13.0","2885","<div style='width: 900px;'>Now please rate the items for the second time. <br><br>This is not a memory test - you don't need to be consistent with your previous ratings. Just as before, try to make accurate judgements.<br><br>","0","","","","","","","","","","","","",""
"html-button-response","59","308618","0.0-14.0","5250","<div><img src='heartS.png'></img></div><br><div style='text-align: justify; width: 700px'>Using the mouse, rate the <b><i>likeness</b></i> of the food items (how much you like them/would like to eat them <i>right now</i>). Far right-end of the scale indicates an item you <i>like a lot</i>. Far left-end indicates an item you <i>dislike a lot</i>. Think about each answer.   <ul><li>Try <b><i>not</b></i> to give identical rating to different items.</li><li>Use the whole scale, and <b><i>not</b></i> just the extremes</ul></div><br>","0","","","","","","","","","","","","",""
"image-slider-response","60","313022","0.0-15.0-0.0-0.0","4402","pics2/SA3.jpg","","","93","SA","","","","","","","","","",""
"image-slider-response","61","321098","0.0-15.0-0.0-0.1","7874","pics2/SA2.jpg","","","86","SA","","","","","","","","","",""
"image-slider-response","62","335293","0.0-15.0-0.0-0.2","13960","pics2/VE3.jpg","","","32","VE","","","","","","","","","",""
"image-slider-response","63","340131","0.0-15.0-0.0-0.3","4630","pics2/FR6.jpg","","","69","FR","","","","","","","","","",""
"image-slider-response","64","343371","0.0-15.0-0.0-0.4","3036","pics2/FR5.jpg","","","77","FR","","","","","","","","","",""
"image-slider-response","65","346071","0.0-15.0-0.0-0.5","2497","pics2/FR3.jpg","","","100","FR","","","","","","","","","",""
"image-slider-response","66","350911","0.0-15.0-0.0-0.6","4630","pics2/SW4.jpg","","","95","SW","","","","","","","","","",""
"image-slider-response","67","357219","0.0-15.0-0.0-0.7","6103","pics2/VE2.jpg","","","32","VE","","","","","","","","","",""
"image-slider-response","68","360306","0.0-15.0-0.0-0.8","2878","pics2/SW6.jpg","","","92","SW","","","","","","","","","",""
"image-slider-response","69","368326","0.0-15.0-0.0-0.9","7813","pics2/SA4.jpg","","","83","SA","","","","","","","","","",""
"image-slider-response","70","371437","0.0-15.0-0.0-0.10","2904","pics2/SA1.jpg","","","73","SA","","","","","","","","","",""
"image-slider-response","71","375326","0.0-15.0-0.0-0.11","3685","pics2/VE4.jpg","","","24","VE","","","","","","","","","",""
"image-slider-response","72","378572","0.0-15.0-0.0-0.12","3038","pics2/SA5.jpg","","","5","SA","","","","","","","","","",""
"image-slider-response","73","382864","0.0-15.0-0.0-0.13","4084","pics2/SW3.jpg","","","79","SW","","","","","","","","","",""
"image-slider-response","74","386410","0.0-15.0-0.0-0.14","3337","pics2/FR1.jpg","","","78","FR","","","","","","","","","",""
"image-slider-response","75","389544","0.0-15.0-0.0-0.15","2930","pics2/SW2.jpg","","","70","SW","","","","","","","","","",""
"image-slider-response","76","393433","0.0-15.0-0.0-0.16","3676","pics2/VE6.jpg","","","0","VE","","","","","","","","","",""
"image-slider-response","77","398594","0.0-15.0-0.0-0.17","4957","pics2/SW5.jpg","","","74","SW","","","","","","","","","",""
"image-slider-response","78","403215","0.0-15.0-0.0-0.18","4418","pics2/FR4.jpg","","","66","FR","","","","","","","","","",""
"image-slider-response","79","410742","0.0-15.0-0.0-0.19","7318","pics2/SA6.jpg","","","65","SA","","","","","","","","","",""
"image-slider-response","80","413329","0.0-15.0-0.0-0.20","2381","pics2/FR2.jpg","","","85","FR","","","","","","","","","",""
"image-slider-response","81","415724","0.0-15.0-0.0-0.21","2191","pics2/SW1.jpg","","","100","SW","","","","","","","","","",""
"image-slider-response","82","419385","0.0-15.0-0.0-0.22","3459","pics2/VE5.jpg","","","15","VE","","","","","","","","","",""
"image-slider-response","83","421941","0.0-15.0-0.0-0.23","2349","pics2/VE1.jpg","","","0","VE","","","","","","","","","",""
"call-function","84","422155","0.0-16.0","","","","","","","","","","","","","","","",""
"call-function","85","422158","0.0-17.0","","","","","","","","","","","","","","","",""
"html-button-response","86","423291","0.0-18.0","1132","<div style='width: 900px;'> <font size = 6><b> End of the first rating</b><br><br>","0","","","","","","","","","","","","",""
"html-button-response","87","428903","0.0-19.0","5610","<div ><img src='sizeS.png'></img></div><br><div style='text-align: justify; width: 700px'> Using the mouse, rate the <b><i>size</b></i> of the food items <b><i> relative to the white background.</b></i> Right-end of the scale indicates a <i>very large item</i>, which covers a large portion of the white rectangle. Left-end indicates a <i>very tiny</i> item which covers a tiny portion of the white rectangle.<br><br><i><u>Remember</i></u>: everything that is not the white background also contributes to item size (e.g. packing, plates, ect.)<br><br> Please keep in mind that if the accuracy of ratings do not allign well with actual sizes, the experiment will end.  As a result it will be consider incomplete and therefore no payment would be made. Good luck!<br><br></div><br>","0","","","","","","","","","","","","",""
"image-slider-response","88","432535","0.0-20.0-0.0-0.0","3628","pics2/SW6.jpg","","","42","null","","","","","","","","","",""
"image-slider-response","89","436176","0.0-20.0-0.0-0.1","3433","pics2/SA4.jpg","","","27","null","","","","","","","","","",""
"image-slider-response","90","441857","0.0-20.0-0.0-0.2","5475","pics2/VE4.jpg","","","80","null","","","","","","","","","",""
"image-slider-response","91","445035","0.0-20.0-0.0-0.3","2971","pics2/FR3.jpg","","","93","null","","","","","","","","","",""
"image-slider-response","92","449897","0.0-20.0-0.0-0.4","4655","pics2/VE3.jpg","","","92","null","","","","","","","","","",""
"image-slider-response","93","456687","0.0-20.0-0.0-0.5","6583","pics2/VE5.jpg","","","74","null","","","","","","","","","",""
"image-slider-response","94","461148","0.0-20.0-0.0-0.6","4251","pics2/SA5.jpg","","","47","null","","","","","","","","","",""
"image-slider-response","95","468195","0.0-20.0-0.0-0.7","6841","pics2/VE6.jpg","","","36","null","","","","","","","","","",""
"image-slider-response","96","471556","0.0-20.0-0.0-0.8","3152","pics2/FR2.jpg","","","87","null","","","","","","","","","",""
"image-slider-response","97","474457","0.0-20.0-0.0-0.9","2696","pics2/SA1.jpg","","","91","null","","","","","","","","","",""
"image-slider-response","98","478079","0.0-20.0-0.0-0.10","3416","pics2/SA3.jpg","","","65","null","","","","","","","","","",""
"image-slider-response","99","482260","0.0-20.0-0.0-0.11","3977","pics2/FR5.jpg","","","77","null","","","","","","","","","",""
"image-slider-response","100","485428","0.0-20.0-0.0-0.12","2962","pics2/SW2.jpg","","","97","null","","","","","","","","","",""
"image-slider-response","101","490024","0.0-20.0-0.0-0.13","4389","pics2/FR1.jpg","","","75","null","","","","","","","","","",""
"image-slider-response","102","493071","0.0-20.0-0.0-0.14","2843","pics2/SW5.jpg","","","68","null","","","","","","","","","",""
"image-slider-response","103","498318","0.0-20.0-0.0-0.15","5044","pics2/FR6.jpg","","","10","null","","","","","","","","","",""
"image-slider-response","104","504927","0.0-20.0-0.0-0.16","6407","pics2/VE1.jpg","","","95","null","","","","","","","","","",""
"image-slider-response","105","508151","0.0-20.0-0.0-0.17","3019","pics2/SW3.jpg","","","83","null","","","","","","","","","",""
"image-slider-response","106","511318","0.0-20.0-0.0-0.18","2964","pics2/SW4.jpg","","","64","null","","","","","","","","","",""
"image-slider-response","107","515112","0.0-20.0-0.0-0.19","3586","pics2/FR4.jpg","","","81","null","","","","","","","","","",""
"image-slider-response","108","518007","0.0-20.0-0.0-0.20","2688","pics2/VE2.jpg","","","74","null","","","","","","","","","",""
"image-slider-response","109","523335","0.0-20.0-0.0-0.21","5123","pics2/SW1.jpg","","","86","null","","","","","","","","","",""
"image-slider-response","110","527488","0.0-20.0-0.0-0.22","3945","pics2/SA6.jpg","","","38","null","","","","","","","","","",""
"image-slider-response","111","530837","0.0-20.0-0.0-0.23","3137","pics2/SA2.jpg","","","26","null","","","","","","","","","",""
"call-function","112","531050","0.0-21.0","","","","","","","","","","","","","","","",""
"html-button-response","113","532059","0.0-22.0","1007","<div style='width: 900px;'> <font size = 6><b> End of the second rating</b><br><br>","0","","","","","","","","","","","","",""
"pavlovia","114","532070","0.0-23.0","","","","","","","","","","","","","","","",""
"html-keyboard-response","115","537073","0.0-24.0","null","<div style='width: 700px;'> <font size=6><b>SHORT BREAK</font></b><br><br><i> Please wait 5 seconds to continue</i></div> ","","","","","","null","","","","","","","",""
"pavlovia","116","537076","0.0-25.0","","","","","","","","","","","","","","","",""
"html-button-response","117","555351","0.0-26.0","18273","<div style='width: 700px;'>In the main part of the study, you will be choosing between 2 items. When it's time to choose,  this symbol will appear: <br><br><img src='chooseS.png'></img><br><br>Below, a cue will signify the type of choice: </div><br><div style='width: 700px;'><div style='float: left; width: 50%'><img src='heartS.png'></img><p class='small'>Heart cue means you should choose the item you <b><i>prefer</b></i> more.</p></div><div class='float: right; width:50%'><img src='sizeS.png'></img><p class='small'>Size cue means you should choose the <b><i>larger</b></i> item. </p></div></div><br><div style='width: 700px;'>When you click, a green square will appear around the item you chose.<br></div><div><br>","0","","","","","","","","","","","","",""
"image-selector-fb-tut","118","560300","0.0-27.0","3942","0232.jpg,0123.jpg","","","","","","","false","0","","","","","",""
"image-selector-fb-tut","119","565725","0.0-28.0","4419","0232.jpg,0123.jpg","","","","","","","false","0","","","","","",""
"html-button-response","120","568997","0.0-29.0","3271","<div style='width: 900px;'>Your choices should be both <b><i>fast and accurate</b></i>. <br><br>You will have <i>4 seconds</i> to make each choice, which should be enough consider the options and click on one of the items.<br><br>","0","","","","","","","","","","","","",""
"html-button-response","121","572178","0.0-30.0","3179","<div style='width: 900px;'>Additionally, on some choice trials you will see the <b><i>no-choice cue</b></i>: <br><br><img src='noS.png'></img> <br><br>This cue means you can't make any choice. You can examine the items, but  can't click on any of them. Just wait patiently for the cue to dissapear.<br><br>","0","","","","","","","","","","","","",""
"image-selector-fb-tut","122","574191","0.0-31.0","null","0232.jpg,0123.jpg","","","","","","","false","null","","","","","",""
"html-button-response","123","584901","0.0-32.0","10708","<div style='width: 900px;'>After each choice the items will remain on the screen and you will see this symbol: <br><br><img src='judgeS.png'></img> <br><br>This means you should rate<b> the magnitude of the difference</b> between the items using a scale: </div><br><div style='width: 900px; '><div style='float: left; width: 50%; margin-right: 2.5em; align-self:left'><img src='heartS.png'></img><p class='small' style = 'text-align: justify;'>Heart cue means you should rate <b>how much you prefer</b> one of the items over the other. Moving the scale indicator to the left means you prefer the left one; moving it to the right - right one. The more you prefer one of them, the more towards that side you should move the scale indicator. </p></div><div class='float: right; width: 50%; margin-left: 2.5em;'><img src='sizeS.png'></img><p class='small' style='text-align: justify'>Size cue means you should rate <b>how much larger</b> is one of the items over the other. Moving the scale indicator to the left means you think the left is larger; moving it to the right - right one. The greater the difference in size, the more towards that side you should move the scale indicator.</div><br>","0","","","","","","","","","","","","",""
"image-slider-2AFC-tut","124","593583","0.0-33.0","8676","","","","8","","","","","","7084","8","","","",""
"image-slider-2AFC-tut","125","602318","0.0-34.0","8731","","","","7","","","","","","6119","7","","","",""
"html-button-response","126","613651","0.0-35.0","11331","<br><br><font size = 36><b> Examples </b></font><br><br><i> 1) I would like to eat some croissants a <b>lot more</b> than doritos right now:</i><br><img src='ex1.PNG', width='62%'></img><br><br><br><i> 2) I would like to eat some doritos a <b>bit more</b> than croissants right now, but just slightly:</i><br><img src='ex2.PNG' width='62%'></img>","0","","","","","","","","","","","","",""
"html-button-response","127","615820","0.0-36.0","2167","<div style='width: 900px;'><i>Now you know everything you need to do the task!</i> <br><br>Let's start by doing a <b>short training</b>, so you'll get used to how it works. </div><br>","0","","","","","","","","","","","","",""
"image-selector-fb","128","618838","0.0-37.0-0.0","null","pics2/FR4.jpg,pics2/VE3.jpg","","","","","","","false","null","","","noS.png","","",""
"image-slider-2AFC","129","623845","0.0-37.0-1.0","null","","","","null","","","","","","","","sizeS.png","","",""
"html-keyboard-response","130","624552","0.0-37.0-2.0","null","","","","","","","null","","","","","","","",""
"image-selector-fb","131","629067","0.0-37.1-0.1","null","pics2/VE1.jpg,pics2/VE2.jpg","","","","","","","false","null","","","sizeS.png","","",""
"image-slider-2AFC","132","629068","0.0-37.1-1.1","null","","","","null","","","","","","","","heartS.png","","",""
"html-keyboard-response","133","629826","0.0-37.1-2.1","null","","","","","","","null","","","","","","","",""
"image-selector-fb","134","632148","0.0-37.2-0.2","1815","pics2/FR6.jpg,pics2/VE4.jpg","","","","","","","false","0","","","heartS.png","","",""
"image-slider-2AFC","135","637153","0.0-37.2-1.2","null","","","","null","","","","","","","","heartS.png","4154","-100",""
"html-keyboard-response","136","637960","0.0-37.2-2.2","null","","","","","","","null","","","","","","","",""
"image-selector-fb","137","642467","0.0-37.3-0.3","null","pics2/VE2.jpg,pics2/SA1.jpg","","","","","","","false","null","","","sizeS.png","","",""
"image-slider-2AFC","138","642468","0.0-37.3-1.3","null","","","","null","","","","","","","","heartS.png","","",""
"html-keyboard-response","139","643329","0.0-37.3-2.3","null","","","","","","","null","","","","","","","",""
"image-selector-fb","140","647287","0.0-37.4-0.4","3452","pics2/SA1.jpg,pics2/VE3.jpg","","","","","","","false","0","","","heartS.png","","",""
"image-slider-2AFC","141","650259","0.0-37.4-1.4","2971","","","","-75","","","","","","","","sizeS.png","2483","-75",""
"html-keyboard-response","142","650968","0.0-37.4-2.4","null","","","","","","","null","","","","","","","",""
"image-selector-fb","143","653978","0.0-37.5-0.5","null","pics2/FR4.jpg,pics2/VE6.jpg","","","","","","","false","null","","","noS.png","","",""
"image-slider-2AFC","144","657983","0.0-37.5-1.5","4001","","","","-98","","","","","","","","heartS.png","3225","-98",""
"html-keyboard-response","145","658686","0.0-37.5-2.5","null","","","","","","","null","","","","","","","",""
"image-selector-fb","146","661027","0.0-37.6-0.6","1834","pics2/VE1.jpg,pics2/FR6.jpg","","","","","","","false","0","","","sizeS.png","","",""
"image-slider-2AFC","147","665859","0.0-37.6-1.6","4830","","","","76","","","","","","","","heartS.png","4021","76",""
"html-keyboard-response","148","666570","0.0-37.6-2.6","null","","","","","","","null","","","","","","","",""
"image-selector-fb","149","668828","0.0-37.7-0.7","1746","pics2/VE1.jpg,pics2/SA1.jpg","","","","","","","true","1","","","sizeS.png","","",""
"image-slider-2AFC","150","673219","0.0-37.7-1.7","4388","","","","33","","","","","","","","sizeS.png","3778","33",""
"html-keyboard-response","151","673981","0.0-37.7-2.7","null","","","","","","","null","","","","","","","",""
"image-selector-fb","152","676995","0.0-37.8-0.8","null","pics2/VE4.jpg,pics2/VE6.jpg","","","","","","","false","null","","","noS.png","","",""
"image-slider-2AFC","153","680139","0.0-37.8-1.8","3141","","","","27","","","","","","","","sizeS.png","2637","27",""
"html-keyboard-response","154","680998","0.0-37.8-2.8","null","","","","","","","null","","","","","","","",""
"image-selector-fb","155","683304","0.0-37.9-0.9","1795","pics2/SA1.jpg,pics2/VE4.jpg","","","","","","","false","0","","","heartS.png","","",""
"image-slider-2AFC","156","687508","0.0-37.9-1.9","4202","","","","-85","","","","","","","","sizeS.png","3571","-85",""
"html-keyboard-response","157","688317","0.0-37.9-2.9","null","","","","","","","null","","","","","","","",""
"image-selector-fb","158","691572","0.0-37.10-0.10","2749","pics2/VE1.jpg,pics2/FR4.jpg","","","","","","","false","0","","","sizeS.png","","",""
"image-slider-2AFC","159","695881","0.0-37.10-1.10","4307","","","","84","","","","","","","","heartS.png","3617","84",""
"html-keyboard-response","160","696587","0.0-37.10-2.10","null","","","","","","","null","","","","","","","",""
"image-selector-fb","161","698693","0.0-37.11-0.11","1597","pics2/VE5.jpg,pics2/SA1.jpg","","","","","","","true","1","","","sizeS.png","","",""
"image-slider-2AFC","162","702678","0.0-37.11-1.11","3982","","","","51","","","","","","","","sizeS.png","3420","51",""
"html-keyboard-response","163","703489","0.0-37.11-2.11","null","","","","","","","null","","","","","","","",""
"html-button-response","164","704671","0.0-38.0","1180","<i><font size=10>Good job!</font></i> <br><br>Before we begin, you have a chance to review the rules, in case something was not clear.<br><br>","0","","","","","","","","","","","","",""
"instructions","165","714683","0.0-39.0","10011","","","","","","","","","","","","","","","[{""page_index"":0,""viewing_time"":6356},{""page_index"":1,""viewing_time"":1974},{""page_index"":2,""viewing_time"":1680}]"
"html-button-response","166","719980","0.0-40.0","5296","<div style='width: 900px;'> <font size='40'>Great! Now you're ready to begin</font><br><br>The main part of the experiment will consist of <u>3 blocks</u>. Each block consists of 66 decisions and judgements. You will have time for a short break between blocks.<br><br><br><i><u>Do your best to respond within the time limit.</u></i><br><br><i> Press the button to start the experiment<br><br></i>","0","","","","","","","","","","","","",""
"image-selector-fb","167","722638","0.0-41.0-0.0","2149","pics2/FR3.jpg,pics2/FR2.jpg","","","","","","","true","1","","","sizeS.png","","",""
"image-slider-2AFC","168","725308","0.0-41.0-1.0","2667","","","","16","","","","","","","","sizeS.png","2098","16",""
"html-keyboard-response","169","726011","0.0-41.0-2.0","null","","","","","","","null","","","","","","","",""
"image-selector-fb","170","727760","0.0-41.1-0.1","1233","pics2/SA4.jpg,pics2/SW3.jpg","","","","","","","true","1","","","sizeS.png","","",""
"image-slider-2AFC","171","732767","0.0-41.1-1.1","null","","","","null","","","","","","","","heartS.png","","",""
"html-keyboard-response","172","733475","0.0-41.1-2.1","null","","","","","","","null","","","","","","","",""
"image-selector-fb","173","736484","0.0-41.2-0.2","null","pics2/FR1.jpg,pics2/SW3.jpg","","","","","","","false","null","","","noS.png","","",""
"image-slider-2AFC","174","739421","0.0-41.2-1.2","2933","","","","90","","","","","","","","heartS.png","2365","90",""
"html-keyboard-response","175","740132","0.0-41.2-2.2","null","","","","","","","null","","","","","","","",""
"image-selector-fb","176","742332","0.0-41.3-0.3","1689","pics2/SA4.jpg,pics2/SA2.jpg","","","","","","","false","0","","","heartS.png","","",""
"image-slider-2AFC","177","746718","0.0-41.3-1.3","4384","","","","-77","","","","","","","","heartS.png","2151","-77",""
"html-keyboard-response","178","747577","0.0-41.3-2.3","null","","","","","","","null","","","","","","","",""
"image-selector-fb","179","749430","0.0-41.4-0.4","1348","pics2/SW4.jpg,pics2/SA6.jpg","","","","","","","false","0","","","heartS.png","","",""
"image-slider-2AFC","180","752672","0.0-41.4-1.4","3241","","","","-34","","","","","","","","sizeS.png","2719","-34",""
"html-keyboard-response","181","753432","0.0-41.4-2.4","null","","","","","","","null","","","","","","","",""
"image-selector-fb","182","756440","0.0-41.5-0.5","null","pics2/FR5.jpg,pics2/SA4.jpg","","","","","","","false","null","","","noS.png","","",""
"image-slider-2AFC","183","760187","0.0-41.5-1.5","3744","","","","49","","","","","","","","heartS.png","3135","49",""
"html-keyboard-response","184","760997","0.0-41.5-2.5","null","","","","","","","null","","","","","","","",""
"image-selector-fb","185","764005","0.0-41.6-0.6","null","pics2/SA4.jpg,pics2/SA6.jpg","","","","","","","false","null","","","noS.png","","",""
"image-slider-2AFC","186","766686","0.0-41.6-1.6","2678","","","","15","","","","","","","","sizeS.png","2201","15",""
"html-keyboard-response","187","767448","0.0-41.6-2.6","null","","","","","","","null","","","","","","","",""
"image-selector-fb","188","770525","0.0-41.7-0.7","2572","pics2/FR5.jpg,pics2/SA3.jpg","","","","","","","true","1","","","sizeS.png","","",""
"image-slider-2AFC","189","774161","0.0-41.7-1.7","3633","","","","19","","","","","","","","heartS.png","2960","19",""
"html-keyboard-response","190","774919","0.0-41.7-2.7","null","","","","","","","null","","","","","","","",""
"image-selector-fb","191","777933","0.0-41.8-0.8","null","pics2/FR5.jpg,pics2/FR1.jpg","","","","","","","false","null","","","noS.png","","",""
"image-slider-2AFC","192","781822","0.0-41.8-1.8","3887","","","","25","","","","","","","","sizeS.png","3237","25",""
"html-keyboard-response","193","782634","0.0-41.8-2.8","null","","","","","","","null","","","","","","","",""
"image-selector-fb","194","784866","0.0-41.9-0.9","1724","pics2/SA2.jpg,pics2/FR5.jpg","","","","","","","true","1","","","sizeS.png","","",""
"image-slider-2AFC","195","788508","0.0-41.9-1.9","3639","","","","80","","","","","","","","heartS.png","2942","80",""
"html-keyboard-response","196","789315","0.0-41.9-2.9","null","","","","","","","null","","","","","","","",""
"image-selector-fb","197","792169","0.0-41.10-0.10","2347","pics2/SA3.jpg,pics2/SW6.jpg","","","","","","","true","1","","","heartS.png","","",""
"image-slider-2AFC","198","795475","0.0-41.10-1.10","3303","","","","-77","","","","","","","","sizeS.png","2651","-77",""
"html-keyboard-response","199","796185","0.0-41.10-2.10","null","","","","","","","null","","","","","","","",""
"image-selector-fb","200","798217","0.0-41.11-0.11","1522","pics2/FR2.jpg,pics2/FR5.jpg","","","","","","","false","0","","","sizeS.png","","",""
"image-slider-2AFC","201","800732","0.0-41.11-1.11","2512","","","","-59","","","","","","","","heartS.png","1988","-59",""
"html-keyboard-response","202","801539","0.0-41.11-2.11","null","","","","","","","null","","","","","","","",""
"image-selector-fb","203","804551","0.0-41.12-0.12","null","pics2/FR2.jpg,pics2/SW3.jpg","","","","","","","false","null","","","noS.png","","",""
"image-slider-2AFC","204","807912","0.0-41.12-1.12","3358","","","","68","","","","","","","","heartS.png","2740","68",""
"html-keyboard-response","205","808724","0.0-41.12-2.12","null","","","","","","","null","","","","","","","",""
"image-selector-fb","206","810483","0.0-41.13-0.13","1251","pics2/SW1.jpg,pics2/FR3.jpg","","","","","","","false","0","","","heartS.png","","",""
"image-slider-2AFC","207","813378","0.0-41.13-1.13","2893","","","","-47","","","","","","","","heartS.png","2307","-47",""
"html-keyboard-response","208","814189","0.0-41.13-2.13","null","","","","","","","null","","","","","","","",""
"image-selector-fb","209","817203","0.0-41.14-0.14","null","pics2/SW4.jpg,pics2/SA6.jpg","","","","","","","false","null","","","noS.png","","",""
"image-slider-2AFC","210","820371","0.0-41.14-1.14","3166","","","","-85","","","","","","","","heartS.png","2579","-85",""
"html-keyboard-response","211","821229","0.0-41.14-2.14","null","","","","","","","null","","","","","","","",""
"image-selector-fb","212","823001","0.0-41.15-0.15","1261","pics2/FR1.jpg,pics2/SW4.jpg","","","","","","","true","1","","","heartS.png","","",""
"image-slider-2AFC","213","827623","0.0-41.15-1.15","4619","","","","48","","","","","","","","heartS.png","4048","48",""
"html-keyboard-response","214","828481","0.0-41.15-2.15","null","","","","","","","null","","","","","","","",""
"image-selector-fb","215","830586","0.0-41.16-0.16","1598","pics2/SA6.jpg,pics2/FR3.jpg","","","","","","","true","1","","","heartS.png","","",""
"image-slider-2AFC","216","833721","0.0-41.16-1.16","3133","","","","95","","","","","","","","sizeS.png","2524","95",""
"html-keyboard-response","217","834428","0.0-41.16-2.16","null","","","","","","","null","","","","","","","",""
"image-selector-fb","218","837441","0.0-41.17-0.17","null","pics2/FR5.jpg,pics2/SA3.jpg","","","","","","","false","null","","","noS.png","","",""
"image-slider-2AFC","219","840353","0.0-41.17-1.17","2909","","","","49","","","","","","","","sizeS.png","2347","49",""
"html-keyboard-response","220","841162","0.0-41.17-2.17","null","","","","","","","null","","","","","","","",""
"image-selector-fb","221","843260","0.0-41.18-0.18","1591","pics2/SA2.jpg,pics2/FR2.jpg","","","","","","","true","1","","","sizeS.png","","",""
"image-slider-2AFC","222","845793","0.0-41.18-1.18","2529","","","","92","","","","","","","","heartS.png","1984","92",""
"html-keyboard-response","223","846554","0.0-41.18-2.18","null","","","","","","","null","","","","","","","",""
"image-selector-fb","224","848585","0.0-41.19-0.19","1523","pics2/SW1.jpg,pics2/SA6.jpg","","","","","","","false","0","","","sizeS.png","","",""
"image-slider-2AFC","225","851224","0.0-41.19-1.19","2636","","","","-100","","","","","","","","heartS.png","1941","-100",""
"html-keyboard-response","226","852033","0.0-41.19-2.19","null","","","","","","","null","","","","","","","",""
"image-selector-fb","227","854712","0.0-41.20-0.20","2168","pics2/SW3.jpg,pics2/SW1.jpg","","","","","","","true","1","","","heartS.png","","",""
"image-slider-2AFC","228","857978","0.0-41.20-1.20","3264","","","","-3","","","","","","","","sizeS.png","2929","-3",""
"html-keyboard-response","229","858785","0.0-41.20-2.20","null","","","","","","","null","","","","","","","",""
"image-selector-fb","230","861864","0.0-41.21-0.21","2569","pics2/SA3.jpg,pics2/FR3.jpg","","","","","","","true","1","","","heartS.png","","",""
"image-slider-2AFC","231","864299","0.0-41.21-1.21","2432","","","","95","","","","","","","","heartS.png","1782","95",""
"html-keyboard-response","232","865158","0.0-41.21-2.21","null","","","","","","","null","","","","","","","",""
"image-selector-fb","233","868171","0.0-41.22-0.22","null","pics2/SW4.jpg,pics2/FR3.jpg","","","","","","","false","null","","","noS.png","","",""
"image-slider-2AFC","234","871981","0.0-41.22-1.22","3808","","","","0","","","","","","","","sizeS.png","3383","0",""
"html-keyboard-response","235","872740","0.0-41.22-2.22","null","","","","","","","null","","","","","","","",""
"image-selector-fb","236","875755","0.0-41.23-0.23","null","pics2/SW4.jpg,pics2/FR5.jpg","","","","","","","false","null","","","noS.png","","",""
"image-slider-2AFC","237","879275","0.0-41.23-1.23","3519","","","","-67","","","","","","","","heartS.png","2884","-67",""
"html-keyboard-response","238","880082","0.0-41.23-2.23","null","","","","","","","null","","","","","","","",""
"image-selector-fb","239","881727","0.0-41.24-0.24","1135","pics2/SW3.jpg,pics2/FR5.jpg","","","","","","","false","0","","","heartS.png","","",""
"image-slider-2AFC","240","885938","0.0-41.24-1.24","4208","","","","-88","","","","","","","","heartS.png","3549","-88",""
"html-keyboard-response","241","886698","0.0-41.24-2.24","null","","","","","","","null","","","","","","","",""
"image-selector-fb","242","889712","0.0-41.25-0.25","null","pics2/SA2.jpg,pics2/FR3.jpg","","","","","","","false","null","","","noS.png","","",""
"image-slider-2AFC","243","892570","0.0-41.25-1.25","2854","","","","86","","","","","","","","sizeS.png","2285","86",""
"html-keyboard-response","244","893376","0.0-41.25-2.25","null","","","","","","","null","","","","","","","",""
"image-selector-fb","245","895400","0.0-41.26-0.26","1514","pics2/SW1.jpg,pics2/FR5.jpg","","","","","","","false","0","","","sizeS.png","","",""
"image-slider-2AFC","246","899707","0.0-41.26-1.26","4304","","","","-60","","","","","","","","sizeS.png","2955,3654","-74,-60",""
"html-keyboard-response","247","900417","0.0-41.26-2.26","null","","","","","","","null","","","","","","","",""
"image-selector-fb","248","903524","0.0-41.27-0.27","2598","pics2/FR3.jpg,pics2/SW1.jpg","","","","","","","true","1","","","sizeS.png","","",""
"image-slider-2AFC","249","908395","0.0-41.27-1.27","4868","","","","55","","","","","","","","heartS.png","4347","55",""
"html-keyboard-response","250","909099","0.0-41.27-2.27","null","","","","","","","null","","","","","","","",""
"image-selector-fb","251","911214","0.0-41.28-0.28","1608","pics2/FR3.jpg,pics2/SA6.jpg","","","","","","","false","0","","","sizeS.png","","",""
"image-slider-2AFC","252","914110","0.0-41.28-1.28","2893","","","","-83","","","","","","","","heartS.png","2355","-83",""
"html-keyboard-response","253","914872","0.0-41.28-2.28","null","","","","","","","null","","","","","","","",""
"image-selector-fb","254","916675","0.0-41.29-0.29","1292","pics2/FR2.jpg,pics2/SA2.jpg","","","","","","","false","0","","","heartS.png","","",""
"image-slider-2AFC","255","920106","0.0-41.29-1.29","3428","","","","-63","","","","","","","","sizeS.png","2994","-63",""
"html-keyboard-response","256","920914","0.0-41.29-2.29","null","","","","","","","null","","","","","","","",""
"image-selector-fb","257","923495","0.0-41.30-0.30","2075","pics2/FR1.jpg,pics2/SW6.jpg","","","","","","","true","1","","","heartS.png","","",""
"image-slider-2AFC","258","926012","0.0-41.30-1.30","2516","","","","12","","","","","","","","heartS.png","2126","12",""
"html-keyboard-response","259","926717","0.0-41.30-2.30","null","","","","","","","null","","","","","","","",""
"image-selector-fb","260","928503","0.0-41.31-0.31","1277","pics2/SA4.jpg,pics2/SW6.jpg","","","","","","","true","1","","","heartS.png","","",""
"image-slider-2AFC","261","931604","0.0-41.31-1.31","3098","","","","70","","","","","","","","sizeS.png","2421","70",""
"html-keyboard-response","262","932416","0.0-41.31-2.31","null","","","","","","","null","","","","","","","",""
"image-selector-fb","263","935430","0.0-41.32-0.32","null","pics2/SW1.jpg,pics2/SA6.jpg","","","","","","","false","null","","","noS.png","","",""
"image-slider-2AFC","264","939969","0.0-41.32-1.32","4536","","","","-52","","","","","","","","sizeS.png","4046","-52",""
"html-keyboard-response","265","940730","0.0-41.32-2.32","null","","","","","","","null","","","","","","","",""
"image-selector-fb","266","943743","0.0-41.33-0.33","null","pics2/SW4.jpg,pics2/SW1.jpg","","","","","","","false","null","","","noS.png","","",""
"image-slider-2AFC","267","947420","0.0-41.33-1.33","3675","","","","62","","","","","","","","sizeS.png","2802,3019","49,62",""
"html-keyboard-response","268","948132","0.0-41.33-2.33","null","","","","","","","null","","","","","","","",""
"image-selector-fb","269","951144","0.0-41.34-0.34","null","pics2/SA2.jpg,pics2/SW1.jpg","","","","","","","false","null","","","noS.png","","",""
"image-slider-2AFC","270","953745","0.0-41.34-1.34","2599","","","","88","","","","","","","","sizeS.png","2038","88",""
"html-keyboard-response","271","954457","0.0-41.34-2.34","null","","","","","","","null","","","","","","","",""
"image-selector-fb","272","955996","0.0-41.35-0.35","1030","pics2/SA4.jpg,pics2/FR2.jpg","","","","","","","true","1","","","heartS.png","","",""
"image-slider-2AFC","273","959870","0.0-41.35-1.35","3871","","","","76","","","","","","","","sizeS.png","3351","76",""
"html-keyboard-response","274","960673","0.0-41.35-2.35","null","","","","","","","null","","","","","","","",""
"image-selector-fb","275","962727","0.0-41.36-0.36","1547","pics2/SA3.jpg,pics2/SA2.jpg","","","","","","","false","0","","","heartS.png","","",""
"image-slider-2AFC","276","967271","0.0-41.36-1.36","4541","","","","-30","","","","","","","","heartS.png","4108","-30",""
"html-keyboard-response","277","968075","0.0-41.36-2.36","null","","","","","","","null","","","","","","","",""
"image-selector-fb","278","969642","0.0-41.37-0.37","1056","pics2/SW6.jpg,pics2/SA3.jpg","","","","","","","true","1","","","sizeS.png","","",""
"image-slider-2AFC","279","972897","0.0-41.37-1.37","3252","","","","-43","","","","","","","","heartS.png","2506","-43",""
"html-keyboard-response","280","973603","0.0-41.37-2.37","null","","","","","","","null","","","","","","","",""
"image-selector-fb","281","975300","0.0-41.38-0.38","1187","pics2/SA6.jpg,pics2/SW1.jpg","","","","","","","true","1","","","heartS.png","","",""
"image-slider-2AFC","282","977879","0.0-41.38-1.38","2576","","","","57","","","","","","","","sizeS.png","1999","57",""
"html-keyboard-response","283","978640","0.0-41.38-2.38","null","","","","","","","null","","","","","","","",""
"image-selector-fb","284","980164","0.0-41.39-0.39","1014","pics2/FR1.jpg,pics2/SA2.jpg","","","","","","","false","0","","","heartS.png","","",""
"image-slider-2AFC","285","983561","0.0-41.39-1.39","3394","","","","-80","","","","","","","","sizeS.png","2877","-80",""
"html-keyboard-response","286","984268","0.0-41.39-2.39","null","","","","","","","null","","","","","","","",""
"image-selector-fb","287","985940","0.0-41.40-0.40","1164","pics2/SA2.jpg,pics2/SW6.jpg","","","","","","","true","1","","","heartS.png","","",""
"image-slider-2AFC","288","990709","0.0-41.40-1.40","4767","","","","94","","","","","","","","heartS.png","3639","94",""
"html-keyboard-response","289","991417","0.0-41.40-2.40","null","","","","","","","null","","","","","","","",""
"image-selector-fb","290","994621","0.0-41.41-0.41","2694","pics2/SW4.jpg,pics2/SW3.jpg","","","","","","","false","0","","","sizeS.png","","",""
"image-slider-2AFC","291","999243","0.0-41.41-1.41","4619","","","","-14","","","","","","","","sizeS.png","4201","-14",""
"html-keyboard-response","292","1000005","0.0-41.41-2.41","null","","","","","","","null","","","","","","","",""
"image-selector-fb","293","1003021","0.0-41.42-0.42","null","pics2/FR2.jpg,pics2/SA6.jpg","","","","","","","false","null","","","noS.png","","",""
"image-slider-2AFC","294","1007604","0.0-41.42-1.42","4581","","","","-75","","","","","","","","heartS.png","3875","-75",""
"html-keyboard-response","295","1008314","0.0-41.42-2.42","null","","","","","","","null","","","","","","","",""
"image-selector-fb","296","1011334","0.0-41.43-0.43","null","pics2/SA2.jpg,pics2/SW6.jpg","","","","","","","false","null","","","noS.png","","",""
"image-slider-2AFC","297","1014971","0.0-41.43-1.43","3634","","","","13","","","","","","","","sizeS.png","2831","13",""
"html-keyboard-response","298","1015783","0.0-41.43-2.43","null","","","","","","","null","","","","","","","",""
"image-selector-fb","299","1017961","0.0-41.44-0.44","1668","pics2/SW3.jpg,pics2/SW6.jpg","","","","","","","false","0","","","heartS.png","","",""
"image-slider-2AFC","300","1021127","0.0-41.44-1.44","3164","","","","-21","","","","","","","","heartS.png","2532","-21",""
"html-keyboard-response","301","1021935","0.0-41.44-2.44","null","","","","","","","null","","","","","","","",""
"image-selector-fb","302","1024290","0.0-41.45-0.45","1850","pics2/SW6.jpg,pics2/SW3.jpg","","","","","","","true","1","","","sizeS.png","","",""
"image-slider-2AFC","303","1028087","0.0-41.45-1.45","3795","","","","28","","","","","","","","heartS.png","3104","28",""
"html-keyboard-response","304","1028796","0.0-41.45-2.45","null","","","","","","","null","","","","","","","",""
"image-selector-fb","305","1031162","0.0-41.46-0.46","1860","pics2/SW6.jpg,pics2/SW4.jpg","","","","","","","true","1","","","sizeS.png","","",""
"image-slider-2AFC","306","1034082","0.0-41.46-1.46","2917","","","","17","","","","","","","","sizeS.png","2250","17",""
"html-keyboard-response","307","1034790","0.0-41.46-2.46","null","","","","","","","null","","","","","","","",""
"image-selector-fb","308","1037806","0.0-41.47-0.47","null","pics2/SW4.jpg,pics2/SA4.jpg","","","","","","","false","null","","","noS.png","","",""
"image-slider-2AFC","309","1042068","0.0-41.47-1.47","4259","","","","-21","","","","","","","","sizeS.png","2537","-21",""
"html-keyboard-response","310","1042875","0.0-41.47-2.47","null","","","","","","","null","","","","","","","",""
"image-selector-fb","311","1044577","0.0-41.48-0.48","1197","pics2/SA6.jpg,pics2/SW6.jpg","","","","","","","true","1","","","heartS.png","","",""
"image-slider-2AFC","312","1049582","0.0-41.48-1.48","null","","","","null","","","","","","","","heartS.png","2014","34",""
"html-keyboard-response","313","1050390","0.0-41.48-2.48","null","","","","","","","null","","","","","","","",""
"image-selector-fb","314","1054499","0.0-41.49-0.49","3605","pics2/SA3.jpg,pics2/SA6.jpg","","","","","","","false","0","","","heartS.png","","",""
"image-slider-2AFC","315","1057161","0.0-41.49-1.49","2660","","","","-49","","","","","","","","heartS.png","1904","-49",""
"html-keyboard-response","316","1057973","0.0-41.49-2.49","null","","","","","","","null","","","","","","","",""
"image-selector-fb","317","1060128","0.0-41.50-0.50","1645","pics2/SW3.jpg,pics2/SA6.jpg","","","","","","","false","0","","","heartS.png","","",""
"image-slider-2AFC","318","1063076","0.0-41.50-1.50","2945","","","","-85","","","","","","","","sizeS.png","2262","-85",""
"html-keyboard-response","319","1063888","0.0-41.50-2.50","null","","","","","","","null","","","","","","","",""
"image-selector-fb","320","1065451","0.0-41.51-0.51","1058","pics2/SA4.jpg,pics2/SW1.jpg","","","","","","","true","1","","","heartS.png","","",""
"image-slider-2AFC","321","1067649","0.0-41.51-1.51","2196","","","","100","","","","","","","","heartS.png","1482","100",""
"html-keyboard-response","322","1068404","0.0-41.51-2.51","null","","","","","","","null","","","","","","","",""
"image-selector-fb","323","1071417","0.0-41.52-0.52","null","pics2/SA4.jpg,pics2/SW6.jpg","","","","","","","false","null","","","noS.png","","",""
"image-slider-2AFC","324","1074695","0.0-41.52-1.52","3274","","","","63","","","","","","","","heartS.png","2567","63",""
"html-keyboard-response","325","1075404","0.0-41.52-2.52","null","","","","","","","null","","","","","","","",""
"image-selector-fb","326","1077486","0.0-41.53-0.53","1572","pics2/FR3.jpg,pics2/FR5.jpg","","","","","","","false","0","","","sizeS.png","","",""
"image-slider-2AFC","327","1080323","0.0-41.53-1.53","2834","","","","-26","","","","","","","","sizeS.png","2369","-26",""
"html-keyboard-response","328","1081135","0.0-41.53-2.53","null","","","","","","","null","","","","","","","",""
"image-selector-fb","329","1084434","0.0-41.54-0.54","2792","pics2/SW6.jpg,pics2/SA2.jpg","","","","","","","false","0","","","sizeS.png","","",""
"image-slider-2AFC","330","1087765","0.0-41.54-1.54","3328","","","","-83","","","","","","","","heartS.png","1255,2502","-2,-83",""
"html-keyboard-response","331","1088476","0.0-41.54-2.54","null","","","","","","","null","","","","","","","",""
"image-selector-fb","332","1091490","0.0-41.55-0.55","null","pics2/SW1.jpg,pics2/SA3.jpg","","","","","","","false","null","","","noS.png","","",""
"image-slider-2AFC","333","1095650","0.0-41.55-1.55","4157","","","","-41","","","","","","","","sizeS.png","2783,3562","-2,-41",""
"html-keyboard-response","334","1096508","0.0-41.55-2.55","null","","","","","","","null","","","","","","","",""
"image-selector-fb","335","1098321","0.0-41.56-0.56","1308","pics2/SW4.jpg,pics2/FR5.jpg","","","","","","","false","0","","","heartS.png","","",""
"image-slider-2AFC","336","1101379","0.0-41.56-1.56","3056","","","","-47","","","","","","","","heartS.png","1642","-47",""
"html-keyboard-response","337","1102236","0.0-41.56-2.56","null","","","","","","","null","","","","","","","",""
"image-selector-fb","338","1105236","0.0-41.57-0.57","2493","pics2/SW4.jpg,pics2/SA4.jpg","","","","","","","false","0","","","sizeS.png","","",""
"image-slider-2AFC","339","1108026","0.0-41.57-1.57","2788","","","","-95","","","","","","","","heartS.png","2089","-95",""
"html-keyboard-response","340","1108833","0.0-41.57-2.57","null","","","","","","","null","","","","","","","",""
"image-selector-fb","341","1111295","0.0-41.58-0.58","1953","pics2/SW4.jpg,pics2/SA3.jpg","","","","","","","true","1","","","sizeS.png","","",""
"image-slider-2AFC","342","1114608","0.0-41.58-1.58","3311","","","","18","","","","","","","","sizeS.png","2548","18",""
"html-keyboard-response","343","1115467","0.0-41.58-2.58","null","","","","","","","null","","","","","","","",""
"image-selector-fb","344","1118482","0.0-41.59-0.59","null","pics2/SW6.jpg,pics2/SA6.jpg","","","","","","","false","null","","","noS.png","","",""
"image-slider-2AFC","345","1122776","0.0-41.59-1.59","4292","","","","-77","","","","","","","","heartS.png","3495","-77",""
"html-keyboard-response","346","1123483","0.0-41.59-2.59","null","","","","","","","null","","","","","","","",""
"image-selector-fb","347","1126491","0.0-41.60-0.60","null","pics2/FR1.jpg,pics2/SA3.jpg","","","","","","","false","null","","","noS.png","","",""
"image-slider-2AFC","348","1131076","0.0-41.60-1.60","4582","","","","-1","","","","","","","","heartS.png","3836","-1",""
"html-keyboard-response","349","1131884","0.0-41.60-2.60","null","","","","","","","null","","","","","","","",""
"image-selector-fb","350","1134895","0.0-41.61-0.61","null","pics2/FR2.jpg,pics2/SA3.jpg","","","","","","","false","null","","","noS.png","","",""
"image-slider-2AFC","351","1138645","0.0-41.61-1.61","3747","","","","-24","","","","","","","","heartS.png","3274","-24",""
"html-keyboard-response","352","1139356","0.0-41.61-2.61","null","","","","","","","null","","","","","","","",""
"image-selector-fb","353","1142670","0.0-41.62-0.62","2806","pics2/FR2.jpg,pics2/SA3.jpg","","","","","","","false","0","","","sizeS.png","","",""
"image-slider-2AFC","354","1145873","0.0-41.62-1.62","3200","","","","-13","","","","","","","","sizeS.png","2447","-13",""
"html-keyboard-response","355","1146734","0.0-41.62-2.62","null","","","","","","","null","","","","","","","",""
"image-selector-fb","356","1148715","0.0-41.63-0.63","1471","pics2/SA6.jpg,pics2/SA2.jpg","","","","","","","false","0","","","heartS.png","","",""
"image-slider-2AFC","357","1152546","0.0-41.63-1.63","3828","","","","0","","","","","","","","sizeS.png","3433","0",""
"html-keyboard-response","358","1153350","0.0-41.63-2.63","null","","","","","","","null","","","","","","","",""
"image-selector-fb","359","1155898","0.0-41.64-0.64","2041","pics2/FR1.jpg,pics2/FR2.jpg","","","","","","","true","1","","","heartS.png","","",""
"image-slider-2AFC","360","1158648","0.0-41.64-1.64","2746","","","","9","","","","","","","","heartS.png","1863","9",""
"html-keyboard-response","361","1159454","0.0-41.64-2.64","null","","","","","","","null","","","","","","","",""
"image-selector-fb","362","1161456","0.0-41.65-0.65","1496","pics2/FR3.jpg,pics2/FR1.jpg","","","","","","","true","1","","","sizeS.png","","",""
"image-slider-2AFC","363","1164230","0.0-41.65-1.65","2771","","","","12","","","","","","","","sizeS.png","2121","12",""
"html-keyboard-response","364","1164988","0.0-41.65-2.65","null","","","","","","","null","","","","","","","",""
"pavlovia","365","1165015","0.0-42.0","","","","","","","","","","","","","","","",""
"html-keyboard-response","366","1170015","0.0-43.0","null","<div style='width: 700px;'> <font size=6><b>SHORT BREAK</font></b><br><br><i> Please wait 5 seconds to continue</i></div> ","","","","","","null","","","","","","","",""
"pavlovia","367","1170017","0.0-44.0","","","","","","","","","","","","","","","",""
"html-button-response","368","1218012","0.0-45.0","47994","<div style='width: 700px;'> <font size=6><b>BLOCK 2</font></b><br><br>Press the button whenever you feel ready to start the second block (there are 3 in total)</div>","0","","","","","","","","","","","","",""
"image-selector-fb","369","1221020","0.0-46.0-0.0","null","pics2/SA4.jpg,pics2/SA3.jpg","","","","","","","false","null","","","noS.png","","",""
"image-slider-2AFC","370","1224278","0.0-46.0-1.0","3255","","","","70","","","","","","","","sizeS.png","2533","70",""
"html-keyboard-response","371","1225087","0.0-46.0-2.0","null","","","","","","","null","","","","","","","",""
"image-selector-fb","372","1227099","0.0-46.1-0.1","1503","pics2/SA3.jpg,pics2/SA4.jpg","","","","","","","false","0","","","sizeS.png","","",""
"image-slider-2AFC","373","1230074","0.0-46.1-1.1","2972","","","","-48","","","","","","","","sizeS.png","2369","-48",""
"html-keyboard-response","374","1230830","0.0-46.1-2.1","null","","","","","","","null","","","","","","","",""
"image-selector-fb","375","1232602","0.0-46.2-0.2","1267","pics2/SA2.jpg,pics2/SW3.jpg","","","","","","","true","1","","","sizeS.png","","",""
"image-slider-2AFC","376","1236552","0.0-46.2-1.2","3948","","","","61","","","","","","","","sizeS.png","3170","61",""
"html-keyboard-response","377","1237312","0.0-46.2-2.2","null","","","","","","","null","","","","","","","",""
"image-selector-fb","378","1240201","0.0-46.3-0.3","2382","pics2/FR3.jpg,pics2/SW3.jpg","","","","","","","false","0","","","sizeS.png","","",""
"image-slider-2AFC","379","1243273","0.0-46.3-1.3","3068","","","","0","","","","","","","","heartS.png","2297","0",""
"html-keyboard-response","380","1243984","0.0-46.3-2.3","null","","","","","","","null","","","","","","","",""
"image-selector-fb","381","1246590","0.0-46.4-0.4","2099","pics2/SA3.jpg,pics2/SW4.jpg","","","","","","","true","1","","","heartS.png","","",""
"image-slider-2AFC","382","1249750","0.0-46.4-1.4","3157","","","","-30","","","","","","","","sizeS.png","2492","-30",""
"html-keyboard-response","383","1250608","0.0-46.4-2.4","null","","","","","","","null","","","","","","","",""
"image-selector-fb","384","1252988","0.0-46.5-0.5","1873","pics2/FR1.jpg,pics2/SA3.jpg","","","","","","","false","0","","","heartS.png","","",""
"image-slider-2AFC","385","1257418","0.0-46.5-1.5","4427","","","","-29","","","","","","","","sizeS.png","3850","-29",""
"html-keyboard-response","386","1258123","0.0-46.5-2.5","null","","","","","","","null","","","","","","","",""
"image-selector-fb","387","1260151","0.0-46.6-0.6","1518","pics2/SW6.jpg,pics2/FR3.jpg","","","","","","","true","1","","","heartS.png","","",""
"image-slider-2AFC","388","1262433","0.0-46.6-1.6","2279","","","","9","","","","","","","","heartS.png","1790","9",""
"html-keyboard-response","389","1263192","0.0-46.6-2.6","null","","","","","","","null","","","","","","","",""
"image-selector-fb","390","1266675","0.0-46.7-0.7","2974","pics2/SA6.jpg,pics2/SA4.jpg","","","","","","","false","0","","","sizeS.png","","",""
"image-slider-2AFC","391","1271678","0.0-46.7-1.7","null","","","","null","","","","","","","","heartS.png","","",""
"html-keyboard-response","392","1272432","0.0-46.7-2.7","null","","","","","","","null","","","","","","","",""
"image-selector-fb","393","1275442","0.0-46.8-0.8","null","pics2/FR2.jpg,pics2/SW6.jpg","","","","","","","false","null","","","noS.png","","",""
"image-slider-2AFC","394","1279351","0.0-46.8-1.8","3906","","","","-86","","","","","","","","sizeS.png","3209","-86",""
"html-keyboard-response","395","1280160","0.0-46.8-2.8","null","","","","","","","null","","","","","","","",""
"image-selector-fb","396","1283167","0.0-46.9-0.9","null","pics2/FR1.jpg,pics2/FR3.jpg","","","","","","","false","null","","","noS.png","","",""
"image-slider-2AFC","397","1286028","0.0-46.9-1.9","2859","","","","16","","","","","","","","sizeS.png","2372","16",""
"html-keyboard-response","398","1286887","0.0-46.9-2.9","null","","","","","","","null","","","","","","","",""
"image-selector-fb","399","1288376","0.0-46.10-0.10","980","pics2/SW4.jpg,pics2/SW6.jpg","","","","","","","false","0","","","heartS.png","","",""
"image-slider-2AFC","400","1290119","0.0-46.10-1.10","1740","","","","-15","","","","","","","","heartS.png","1324","-15",""
"html-keyboard-response","401","1290824","0.0-46.10-2.10","null","","","","","","","null","","","","","","","",""
"image-selector-fb","402","1293832","0.0-46.11-0.11","null","pics2/SA2.jpg,pics2/FR1.jpg","","","","","","","false","null","","","noS.png","","",""
"image-slider-2AFC","403","1298230","0.0-46.11-1.11","4395","","","","98","","","","","","","","heartS.png","3664","98",""
"html-keyboard-response","404","1298936","0.0-46.11-2.11","null","","","","","","","null","","","","","","","",""
"image-selector-fb","405","1300905","0.0-46.12-0.12","1463","pics2/FR5.jpg,pics2/SA2.jpg","","","","","","","false","0","","","heartS.png","","",""
"image-slider-2AFC","406","1304411","0.0-46.12-1.12","3503","","","","-82","","","","","","","","heartS.png","2877","-82",""
"html-keyboard-response","407","1305173","0.0-46.12-2.12","null","","","","","","","null","","","","","","","",""
"image-selector-fb","408","1307945","0.0-46.13-0.13","2266","pics2/FR3.jpg,pics2/SW4.jpg","","","","","","","false","0","","","sizeS.png","","",""
"image-slider-2AFC","409","1310931","0.0-46.13-1.13","2978","","","","-37","","","","","","","","sizeS.png","2433","-37",""
"html-keyboard-response","410","1311741","0.0-46.13-2.13","null","","","","","","","null","","","","","","","",""
"image-selector-fb","411","1314754","0.0-46.14-0.14","null","pics2/SA3.jpg,pics2/FR3.jpg","","","","","","","false","null","","","noS.png","","",""
"image-slider-2AFC","412","1318131","0.0-46.14-1.14","3374","","","","0","","","","","","","","sizeS.png","2667","0",""
"html-keyboard-response","413","1318988","0.0-46.14-2.14","null","","","","","","","null","","","","","","","",""
"image-selector-fb","414","1322000","0.0-46.15-0.15","null","pics2/FR5.jpg,pics2/SW1.jpg","","","","","","","false","null","","","noS.png","","",""
"image-slider-2AFC","415","1325254","0.0-46.15-1.15","3251","","","","100","","","","","","","","heartS.png","2213","100",""
"html-keyboard-response","416","1326063","0.0-46.15-2.15","null","","","","","","","null","","","","","","","",""
"image-selector-fb","417","1327658","0.0-46.16-0.16","1084","pics2/SW4.jpg,pics2/SA2.jpg","","","","","","","false","0","","","heartS.png","","",""
"image-slider-2AFC","418","1330807","0.0-46.16-1.16","3147","","","","-74","","","","","","","","sizeS.png","2459","-74",""
"html-keyboard-response","419","1331520","0.0-46.16-2.16","null","","","","","","","null","","","","","","","",""
"image-selector-fb","420","1334535","0.0-46.17-0.17","null","pics2/SW3.jpg,pics2/SA6.jpg","","","","","","","false","null","","","noS.png","","",""
"image-slider-2AFC","421","1339540","0.0-46.17-1.17","null","","","","null","","","","","","","","sizeS.png","4132","-60",""
"html-keyboard-response","422","1340298","0.0-46.17-2.17","null","","","","","","","null","","","","","","","",""
"image-selector-fb","423","1342439","0.0-46.18-0.18","1631","pics2/SW1.jpg,pics2/FR1.jpg","","","","","","","false","0","","","sizeS.png","","",""
"image-slider-2AFC","424","1346216","0.0-46.18-1.18","3775","","","","-22","","","","","","","","sizeS.png","2288","-22",""
"html-keyboard-response","425","1346978","0.0-46.18-2.18","null","","","","","","","null","","","","","","","",""
"image-selector-fb","426","1349793","0.0-46.19-0.19","2306","pics2/SA2.jpg,pics2/SA6.jpg","","","","","","","true","1","","","sizeS.png","","",""
"image-slider-2AFC","427","1352511","0.0-46.19-1.19","2715","","","","30","","","","","","","","sizeS.png","2239","30",""
"html-keyboard-response","428","1353222","0.0-46.19-2.19","null","","","","","","","null","","","","","","","",""
"image-selector-fb","429","1355388","0.0-46.20-0.20","1656","pics2/FR2.jpg,pics2/FR3.jpg","","","","","","","true","1","","","heartS.png","","",""
"image-slider-2AFC","430","1358634","0.0-46.20-1.20","3243","","","","-21","","","","","","","","sizeS.png","2851","-21",""
"html-keyboard-response","431","1359340","0.0-46.20-2.20","null","","","","","","","null","","","","","","","",""
"image-selector-fb","432","1361737","0.0-46.21-0.21","1888","pics2/SA4.jpg,pics2/FR1.jpg","","","","","","","true","1","","","sizeS.png","","",""
"image-slider-2AFC","433","1364285","0.0-46.21-1.21","2545","","","","75","","","","","","","","sizeS.png","1904","75",""
"html-keyboard-response","434","1365093","0.0-46.21-2.21","null","","","","","","","null","","","","","","","",""
"image-selector-fb","435","1367604","0.0-46.22-0.22","2003","pics2/SA6.jpg,pics2/FR5.jpg","","","","","","","false","0","","","heartS.png","","",""
"image-slider-2AFC","436","1369630","0.0-46.22-1.22","2023","","","","-14","","","","","","","","heartS.png","1566","-14",""
"html-keyboard-response","437","1370433","0.0-46.22-2.22","null","","","","","","","null","","","","","","","",""
"image-selector-fb","438","1373444","0.0-46.23-0.23","null","pics2/FR5.jpg,pics2/FR2.jpg","","","","","","","false","null","","","noS.png","","",""
"image-slider-2AFC","439","1377848","0.0-46.23-1.23","4402","","","","78","","","","","","","","heartS.png","3665","78",""
"html-keyboard-response","440","1378552","0.0-46.23-2.23","null","","","","","","","null","","","","","","","",""
"image-selector-fb","441","1380335","0.0-46.24-0.24","1279","pics2/FR1.jpg,pics2/FR3.jpg","","","","","","","true","1","","","heartS.png","","",""
"image-slider-2AFC","442","1383747","0.0-46.24-1.24","3409","","","","1","","","","","","","","sizeS.png","3053","1",""
"html-keyboard-response","443","1384553","0.0-46.24-2.24","null","","","","","","","null","","","","","","","",""
"image-selector-fb","444","1387225","0.0-46.25-0.25","2161","pics2/SA4.jpg,pics2/SA3.jpg","","","","","","","false","0","","","heartS.png","","",""
"image-slider-2AFC","445","1389490","0.0-46.25-1.25","2262","","","","-19","","","","","","","","heartS.png","1780","-19",""
"html-keyboard-response","446","1390202","0.0-46.25-2.25","null","","","","","","","null","","","","","","","",""
"image-selector-fb","447","1392600","0.0-46.26-0.26","1890","pics2/FR2.jpg,pics2/SW3.jpg","","","","","","","false","0","","","sizeS.png","","",""
"image-slider-2AFC","448","1396114","0.0-46.26-1.26","3512","","","","-27","","","","","","","","sizeS.png","2845","-27",""
"html-keyboard-response","449","1396820","0.0-46.26-2.26","null","","","","","","","null","","","","","","","",""
"image-selector-fb","450","1399834","0.0-46.27-0.27","null","pics2/FR1.jpg,pics2/FR2.jpg","","","","","","","false","null","","","noS.png","","",""
"image-slider-2AFC","451","1403887","0.0-46.27-1.27","4050","","","","39","","","","","","","","sizeS.png","3431","39",""
"html-keyboard-response","452","1404745","0.0-46.27-2.27","null","","","","","","","null","","","","","","","",""
"image-selector-fb","453","1408462","0.0-46.28-0.28","3208","pics2/FR2.jpg,pics2/SW1.jpg","","","","","","","true","1","","","sizeS.png","","",""
"image-slider-2AFC","454","1411845","0.0-46.28-1.28","3380","","","","0","","","","","","","","sizeS.png","3004","0",""
"html-keyboard-response","455","1412556","0.0-46.28-2.28","null","","","","","","","null","","","","","","","",""
"image-selector-fb","456","1414265","0.0-46.29-0.29","1200","pics2/FR5.jpg,pics2/SW6.jpg","","","","","","","true","1","","","heartS.png","","",""
"image-slider-2AFC","457","1417030","0.0-46.29-1.29","2762","","","","-70","","","","","","","","sizeS.png","2176","-70",""
"html-keyboard-response","458","1417889","0.0-46.29-2.29","null","","","","","","","null","","","","","","","",""
"image-selector-fb","459","1420903","0.0-46.30-0.30","null","pics2/SW3.jpg,pics2/SA3.jpg","","","","","","","false","null","","","noS.png","","",""
"image-slider-2AFC","460","1424700","0.0-46.30-1.30","3795","","","","-22","","","","","","","","sizeS.png","3039","-22",""
"html-keyboard-response","461","1425506","0.0-46.30-2.30","null","","","","","","","null","","","","","","","",""
"image-selector-fb","462","1427326","0.0-46.31-0.31","1313","pics2/SA3.jpg,pics2/SW1.jpg","","","","","","","true","1","","","heartS.png","","",""
"image-slider-2AFC","463","1429545","0.0-46.31-1.31","2216","","","","100","","","","","","","","heartS.png","1492","100",""
"html-keyboard-response","464","1430253","0.0-46.31-2.31","null","","","","","","","null","","","","","","","",""
"image-selector-fb","465","1431852","0.0-46.32-0.32","1090","pics2/FR1.jpg,pics2/FR5.jpg","","","","","","","false","0","","","heartS.png","","",""
"image-slider-2AFC","466","1436856","0.0-46.32-1.32","null","","","","null","","","","","","","","heartS.png","4982","-83",""
"html-keyboard-response","467","1437667","0.0-46.32-2.32","null","","","","","","","null","","","","","","","",""
"image-selector-fb","468","1440562","0.0-46.33-0.33","2389","pics2/SA3.jpg,pics2/SW3.jpg","","","","","","","false","0","","","sizeS.png","","",""
"image-slider-2AFC","469","1444117","0.0-46.33-1.33","3551","","","","94","","","","","","","","heartS.png","2755","94",""
"html-keyboard-response","470","1444829","0.0-46.33-2.33","null","","","","","","","null","","","","","","","",""
"image-selector-fb","471","1447331","0.0-46.34-0.34","1993","pics2/SA2.jpg,pics2/SA4.jpg","","","","","","","true","1","","","sizeS.png","","",""
"image-slider-2AFC","472","1451002","0.0-46.34-1.34","3669","","","","40","","","","","","","","heartS.png","3076","40",""
"html-keyboard-response","473","1451708","0.0-46.34-2.34","null","","","","","","","null","","","","","","","",""
"image-selector-fb","474","1454719","0.0-46.35-0.35","null","pics2/SW3.jpg,pics2/SW6.jpg","","","","","","","false","null","","","noS.png","","",""
"image-slider-2AFC","475","1458829","0.0-46.35-1.35","4107","","","","-59","","","","","","","","heartS.png","3609","-59",""
"html-keyboard-response","476","1459589","0.0-46.35-2.35","null","","","","","","","null","","","","","","","",""
"image-selector-fb","477","1462603","0.0-46.36-0.36","null","pics2/SW4.jpg,pics2/SW3.jpg","","","","","","","false","null","","","noS.png","","",""
"image-slider-2AFC","478","1466893","0.0-46.36-1.36","4287","","","","0","","","","","","","","heartS.png","3907","0",""
"html-keyboard-response","479","1467701","0.0-46.36-2.36","null","","","","","","","null","","","","","","","",""
"image-selector-fb","480","1469518","0.0-46.37-0.37","1309","pics2/FR2.jpg,pics2/SA4.jpg","","","","","","","false","0","","","sizeS.png","","",""
"image-slider-2AFC","481","1473186","0.0-46.37-1.37","3665","","","","0","","","","","","","","heartS.png","3249","0",""
"html-keyboard-response","482","1473896","0.0-46.37-2.37","null","","","","","","","null","","","","","","","",""
"image-selector-fb","483","1476912","0.0-46.38-0.38","null","pics2/SW1.jpg,pics2/FR3.jpg","","","","","","","false","null","","","noS.png","","",""
"image-slider-2AFC","484","1481029","0.0-46.38-1.38","4114","","","","-100","","","","","","","","heartS.png","3359","-100",""
"html-keyboard-response","485","1481836","0.0-46.38-2.38","null","","","","","","","null","","","","","","","",""
"image-selector-fb","486","1484040","0.0-46.39-0.39","1696","pics2/SA6.jpg,pics2/SW3.jpg","","","","","","","true","1","","","sizeS.png","","",""
"image-slider-2AFC","487","1486211","0.0-46.39-1.39","2164","","","","31","","","","","","","","sizeS.png","1635","31",""
"html-keyboard-response","488","1486972","0.0-46.39-2.39","null","","","","","","","null","","","","","","","",""
"image-selector-fb","489","1489984","0.0-46.40-0.40","null","pics2/SA3.jpg,pics2/SA6.jpg","","","","","","","false","null","","","noS.png","","",""
"image-slider-2AFC","490","1494989","0.0-46.40-1.40","null","","","","null","","","","","","","","heartS.png","4722","-34",""
"html-keyboard-response","491","1495798","0.0-46.40-2.40","null","","","","","","","null","","","","","","","",""
"image-selector-fb","492","1498813","0.0-46.41-0.41","null","pics2/SA2.jpg,pics2/SA4.jpg","","","","","","","false","null","","","noS.png","","",""
"image-slider-2AFC","493","1501833","0.0-46.41-1.41","3016","","","","-11","","","","","","","","sizeS.png","2640","-11",""
"html-keyboard-response","494","1502537","0.0-46.41-2.41","null","","","","","","","null","","","","","","","",""
"image-selector-fb","495","1504143","0.0-46.42-0.42","1100","pics2/FR1.jpg,pics2/SA4.jpg","","","","","","","false","0","","","heartS.png","","",""
"image-slider-2AFC","496","1507063","0.0-46.42-1.42","2917","","","","-60","","","","","","","","heartS.png","2390","-60",""
"html-keyboard-response","497","1507824","0.0-46.42-2.42","null","","","","","","","null","","","","","","","",""
"image-selector-fb","498","1510835","0.0-46.43-0.43","null","pics2/FR1.jpg,pics2/SW1.jpg","","","","","","","false","null","","","noS.png","","",""
"image-slider-2AFC","499","1515696","0.0-46.43-1.43","4858","","","","15","","","","","","","","sizeS.png","3515,4401","-7,15",""
"html-keyboard-response","500","1516409","0.0-46.43-2.43","null","","","","","","","null","","","","","","","",""
"image-selector-fb","501","1518458","0.0-46.44-0.44","1542","pics2/FR3.jpg,pics2/SA2.jpg","","","","","","","false","0","","","sizeS.png","","",""
"image-slider-2AFC","502","1521700","0.0-46.44-1.44","3240","","","","-94","","","","","","","","heartS.png","2553","-94",""
"html-keyboard-response","503","1522412","0.0-46.44-2.44","null","","","","","","","null","","","","","","","",""
"image-selector-fb","504","1523926","0.0-46.45-0.45","1004","pics2/FR5.jpg,pics2/SW1.jpg","","","","","","","true","1","","","heartS.png","","",""
"image-slider-2AFC","505","1525879","0.0-46.45-1.45","1950","","","","100","","","","","","","","heartS.png","1173","100",""
"html-keyboard-response","506","1526640","0.0-46.45-2.45","null","","","","","","","null","","","","","","","",""
"image-selector-fb","507","1528240","0.0-46.46-0.46","1093","pics2/SA3.jpg,pics2/FR5.jpg","","","","","","","false","0","","","heartS.png","","",""
"image-slider-2AFC","508","1531939","0.0-46.46-1.46","3696","","","","-13","","","","","","","","sizeS.png","3321","-13",""
"html-keyboard-response","509","1532697","0.0-46.46-2.46","null","","","","","","","null","","","","","","","",""
"image-selector-fb","510","1534293","0.0-46.47-0.47","1086","pics2/SW6.jpg,pics2/SW1.jpg","","","","","","","true","1","","","sizeS.png","","",""
"image-slider-2AFC","511","1539301","0.0-46.47-1.47","null","","","","null","","","","","","","","heartS.png","3067,4451","23,100",""
"html-keyboard-response","512","1540112","0.0-46.47-2.47","null","","","","","","","null","","","","","","","",""
"image-selector-fb","513","1543127","0.0-46.48-0.48","null","pics2/SA2.jpg,pics2/FR5.jpg","","","","","","","false","null","","","noS.png","","",""
"image-slider-2AFC","514","1548133","0.0-46.48-1.48","null","","","","null","","","","","","","","heartS.png","2845,4476","60,100",""
"html-keyboard-response","515","1548936","0.0-46.48-2.48","null","","","","","","","null","","","","","","","",""
"image-selector-fb","516","1551952","0.0-46.49-0.49","null","pics2/SW4.jpg,pics2/SW6.jpg","","","","","","","false","null","","","noS.png","","",""
"image-slider-2AFC","517","1554838","0.0-46.49-1.49","2882","","","","-43","","","","","","","","sizeS.png","2394","-43",""
"html-keyboard-response","518","1555696","0.0-46.49-2.49","null","","","","","","","null","","","","","","","",""
"image-selector-fb","519","1558705","0.0-46.50-0.50","null","pics2/FR1.jpg,pics2/SA6.jpg","","","","","","","false","null","","","noS.png","","",""
"image-slider-2AFC","520","1561870","0.0-46.50-1.50","3161","","","","-98","","","","","","","","heartS.png","2580","-98",""
"html-keyboard-response","521","1562675","0.0-46.50-2.50","null","","","","","","","null","","","","","","","",""
"image-selector-fb","522","1565688","0.0-46.51-0.51","null","pics2/FR5.jpg,pics2/FR3.jpg","","","","","","","false","null","","","noS.png","","",""
"image-slider-2AFC","523","1568974","0.0-46.51-1.51","3284","","","","76","","","","","","","","heartS.png","2537","76",""
"html-keyboard-response","524","1569783","0.0-46.51-2.51","null","","","","","","","null","","","","","","","",""
"image-selector-fb","525","1572798","0.0-46.52-0.52","null","pics2/SA6.jpg,pics2/FR3.jpg","","","","","","","false","null","","","noS.png","","",""
"image-slider-2AFC","526","1576800","0.0-46.52-1.52","4000","","","","93","","","","","","","","heartS.png","2236","93",""
"html-keyboard-response","527","1577608","0.0-46.52-2.52","null","","","","","","","null","","","","","","","",""
"image-selector-fb","528","1579445","0.0-46.53-0.53","1328","pics2/FR5.jpg,pics2/SW4.jpg","","","","","","","false","0","","","sizeS.png","","",""
"image-slider-2AFC","529","1581559","0.0-46.53-1.53","2111","","","","-17","","","","","","","","sizeS.png","1644","-17",""
"html-keyboard-response","530","1582261","0.0-46.53-2.53","null","","","","","","","null","","","","","","","",""
"image-selector-fb","531","1585275","0.0-46.54-0.54","null","pics2/SA4.jpg,pics2/SW1.jpg","","","","","","","false","null","","","noS.png","","",""
"image-slider-2AFC","532","1587448","0.0-46.54-1.54","2170","","","","100","","","","","","","","heartS.png","1550","100",""
"html-keyboard-response","533","1588209","0.0-46.54-2.54","null","","","","","","","null","","","","","","","",""
"image-selector-fb","534","1590068","0.0-46.55-0.55","1350","pics2/FR5.jpg,pics2/FR2.jpg","","","","","","","true","1","","","heartS.png","","",""
"image-slider-2AFC","535","1592776","0.0-46.55-1.55","2705","","","","73","","","","","","","","sizeS.png","2016","73",""
"html-keyboard-response","536","1593633","0.0-46.55-2.55","null","","","","","","","null","","","","","","","",""
"image-selector-fb","537","1595265","0.0-46.56-0.56","1126","pics2/SA4.jpg,pics2/SW4.jpg","","","","","","","true","1","","","heartS.png","","",""
"image-slider-2AFC","538","1598177","0.0-46.56-1.56","2910","","","","85","","","","","","","","sizeS.png","2179","85",""
"html-keyboard-response","539","1598938","0.0-46.56-2.56","null","","","","","","","null","","","","","","","",""
"image-selector-fb","540","1601952","0.0-46.57-0.57","null","pics2/FR1.jpg,pics2/SW6.jpg","","","","","","","false","null","","","noS.png","","",""
"image-slider-2AFC","541","1605049","0.0-46.57-1.57","3094","","","","-63","","","","","","","","sizeS.png","2412","-63",""
"html-keyboard-response","542","1605909","0.0-46.57-2.57","null","","","","","","","null","","","","","","","",""
"image-selector-fb","543","1607667","0.0-46.58-0.58","1251","pics2/FR5.jpg,pics2/SW3.jpg","","","","","","","true","1","","","sizeS.png","","",""
"image-slider-2AFC","544","1612211","0.0-46.58-1.58","4536","","","","98","","","","","","","","heartS.png","2328,3879","80,98",""
"html-keyboard-response","545","1612917","0.0-46.58-2.58","null","","","","","","","null","","","","","","","",""
"image-selector-fb","546","1614789","0.0-46.59-0.59","1366","pics2/SW6.jpg,pics2/SA4.jpg","","","","","","","false","0","","","sizeS.png","","",""
"image-slider-2AFC","547","1617468","0.0-46.59-1.59","2676","","","","-24","","","","","","","","sizeS.png","1969","-24",""
"html-keyboard-response","548","1618276","0.0-46.59-2.59","null","","","","","","","null","","","","","","","",""
"image-selector-fb","549","1619831","0.0-46.60-0.60","1047","pics2/FR1.jpg,pics2/SA6.jpg","","","","","","","false","0","","","heartS.png","","",""
"image-slider-2AFC","550","1622467","0.0-46.60-1.60","2634","","","","-45","","","","","","","","sizeS.png","1975","-45",""
"html-keyboard-response","551","1623279","0.0-46.60-2.60","null","","","","","","","null","","","","","","","",""
"image-selector-fb","552","1624936","0.0-46.61-0.61","1147","pics2/SW4.jpg,pics2/FR3.jpg","","","","","","","true","1","","","heartS.png","","",""
"image-slider-2AFC","553","1629525","0.0-46.61-1.61","4586","","","","-1","","","","","","","","sizeS.png","3887","-1",""
"html-keyboard-response","554","1630328","0.0-46.61-2.61","null","","","","","","","null","","","","","","","",""
"image-selector-fb","555","1633336","0.0-46.62-0.62","null","pics2/SA3.jpg,pics2/SW6.jpg","","","","","","","false","null","","","noS.png","","",""
"image-slider-2AFC","556","1636837","0.0-46.62-1.62","3498","","","","-60","","","","","","","","sizeS.png","2810","-60",""
"html-keyboard-response","557","1637700","0.0-46.62-2.62","null","","","","","","","null","","","","","","","",""
"image-selector-fb","558","1640450","0.0-46.63-0.63","2244","pics2/SW6.jpg,pics2/SA6.jpg","","","","","","","false","0","","","sizeS.png","","",""
"image-slider-2AFC","559","1643259","0.0-46.63-1.63","2808","","","","-89","","","","","","","","heartS.png","2150","-89",""
"html-keyboard-response","560","1643968","0.0-46.63-2.63","null","","","","","","","null","","","","","","","",""
"image-selector-fb","561","1646979","0.0-46.64-0.64","null","pics2/SA4.jpg,pics2/FR2.jpg","","","","","","","false","null","","","noS.png","","",""
"image-slider-2AFC","562","1650097","0.0-46.64-1.64","3116","","","","74","","","","","","","","heartS.png","2370","74",""
"html-keyboard-response","563","1650960","0.0-46.64-2.64","null","","","","","","","null","","","","","","","",""
"image-selector-fb","564","1652475","0.0-46.65-0.65","1009","pics2/SW3.jpg,pics2/SA4.jpg","","","","","","","false","0","","","heartS.png","","",""
"image-slider-2AFC","565","1655853","0.0-46.65-1.65","3375","","","","-100","","","","","","","","heartS.png","2587","-100",""
"html-keyboard-response","566","1656662","0.0-46.65-2.65","null","","","","","","","null","","","","","","","",""
"pavlovia","567","1656691","0.0-47.0","","","","","","","","","","","","","","","",""
"html-keyboard-response","568","1661699","0.0-48.0","null","<div style='width: 700px;'> <font size=6><b>SHORT BREAK</font></b><br><br><i> Please wait 5 seconds to continue</i></div> ","","","","","","null","","","","","","","",""
"pavlovia","569","1661701","0.0-49.0","","","","","","","","","","","","","","","",""
"html-button-response","570","1764120","0.0-50.0","102417","<div style='width: 700px;'> <font size=6><b>BLOCK 3</font></b><br><br>Press the button whenever you feel ready to start the third and final block</div>","0","","","","","","","","","","","","",""
"image-selector-fb","571","1765905","0.0-51.0-0.0","1281","pics2/SA6.jpg,pics2/FR1.jpg","","","","","","","true","1","","","sizeS.png","","",""
"image-slider-2AFC","572","1768638","0.0-51.0-1.0","2728","","","","95","","","","","","","","heartS.png","2021","95",""
"html-keyboard-response","573","1769451","0.0-51.0-2.0","null","","","","","","","null","","","","","","","",""
"image-selector-fb","574","1771175","0.0-51.1-0.1","1218","pics2/FR2.jpg,pics2/SA6.jpg","","","","","","","false","0","","","sizeS.png","","",""
"image-slider-2AFC","575","1774410","0.0-51.1-1.1","3228","","","","-81","","","","","","","","sizeS.png","2597","-81",""
"html-keyboard-response","576","1775268","0.0-51.1-2.1","null","","","","","","","null","","","","","","","",""
"image-selector-fb","577","1777382","0.0-51.2-0.2","1607","pics2/FR2.jpg,pics2/SW4.jpg","","","","","","","false","0","","","sizeS.png","","",""
"image-slider-2AFC","578","1780380","0.0-51.2-1.2","2996","","","","43","","","","","","","","heartS.png","2314","43",""
"html-keyboard-response","579","1781184","0.0-51.2-2.2","null","","","","","","","null","","","","","","","",""
"image-selector-fb","580","1782694","0.0-51.3-0.3","1002","pics2/FR3.jpg,pics2/SA4.jpg","","","","","","","false","0","","","sizeS.png","","",""
"image-slider-2AFC","581","1784984","0.0-51.3-1.3","2288","","","","-80","","","","","","","","sizeS.png","1645","-80",""
"html-keyboard-response","582","1785842","0.0-51.3-2.3","null","","","","","","","null","","","","","","","",""
"image-selector-fb","583","1788856","0.0-51.4-0.4","null","pics2/FR2.jpg,pics2/FR3.jpg","","","","","","","false","null","","","noS.png","","",""
"image-slider-2AFC","584","1792099","0.0-51.4-1.4","3239","","","","-19","","","","","","","","sizeS.png","2781","-19",""
"html-keyboard-response","585","1792860","0.0-51.4-2.4","null","","","","","","","null","","","","","","","",""
"image-selector-fb","586","1795258","0.0-51.5-0.5","1889","pics2/SW3.jpg,pics2/SA3.jpg","","","","","","","false","0","","","heartS.png","","",""
"image-slider-2AFC","587","1798025","0.0-51.5-1.5","2764","","","","37","","","","","","","","sizeS.png","2232","37",""
"html-keyboard-response","588","1798836","0.0-51.5-2.5","null","","","","","","","null","","","","","","","",""
"image-selector-fb","589","1800365","0.0-51.6-0.6","1024","pics2/SA2.jpg,pics2/SA3.jpg","","","","","","","true","1","","","sizeS.png","","",""
"image-slider-2AFC","590","1803261","0.0-51.6-1.6","2894","","","","77","","","","","","","","sizeS.png","1988","77",""
"html-keyboard-response","591","1804116","0.0-51.6-2.6","null","","","","","","","null","","","","","","","",""
"image-selector-fb","592","1805630","0.0-51.7-0.7","1006","pics2/SW1.jpg,pics2/SA3.jpg","","","","","","","false","0","","","sizeS.png","","",""
"image-slider-2AFC","593","1810637","0.0-51.7-1.7","null","","","","null","","","","","","","","heartS.png","3431","-63",""
"html-keyboard-response","594","1811345","0.0-51.7-2.7","null","","","","","","","null","","","","","","","",""
"image-selector-fb","595","1813269","0.0-51.8-0.8","1414","pics2/SA6.jpg,pics2/SW4.jpg","","","","","","","true","1","","","sizeS.png","","",""
"image-slider-2AFC","596","1815720","0.0-51.8-1.8","2449","","","","93","","","","","","","","heartS.png","1831","93",""
"html-keyboard-response","597","1816481","0.0-51.8-2.8","null","","","","","","","null","","","","","","","",""
"image-selector-fb","598","1818522","0.0-51.9-0.9","1533","pics2/SW3.jpg,pics2/FR2.jpg","","","","","","","false","0","","","heartS.png","","",""
"image-slider-2AFC","599","1820198","0.0-51.9-1.9","1673","","","","-17","","","","","","","","heartS.png","1192","-17",""
"html-keyboard-response","600","1820907","0.0-51.9-2.9","null","","","","","","","null","","","","","","","",""
"image-selector-fb","601","1822497","0.0-51.10-0.10","1080","pics2/SW4.jpg,pics2/FR1.jpg","","","","","","","true","1","","","sizeS.png","","",""
"image-slider-2AFC","602","1826114","0.0-51.10-1.10","3615","","","","-61","","","","","","","","heartS.png","2925","-61",""
"html-keyboard-response","603","1826923","0.0-51.10-2.10","null","","","","","","","null","","","","","","","",""
"image-selector-fb","604","1828475","0.0-51.11-0.11","1044","pics2/SA6.jpg,pics2/FR2.jpg","","","","","","","true","1","","","heartS.png","","",""
"image-slider-2AFC","605","1832209","0.0-51.11-1.11","3732","","","","90","","","","","","","","heartS.png","1590,2811","-1,90",""
"html-keyboard-response","606","1832966","0.0-51.11-2.11","null","","","","","","","null","","","","","","","",""
"image-selector-fb","607","1835975","0.0-51.12-0.12","null","pics2/SW3.jpg,pics2/SW1.jpg","","","","","","","false","null","","","noS.png","","",""
"image-slider-2AFC","608","1840530","0.0-51.12-1.12","4553","","","","100","","","","","","","","heartS.png","3821","100",""
"html-keyboard-response","609","1841340","0.0-51.12-2.12","null","","","","","","","null","","","","","","","",""
"image-selector-fb","610","1844146","0.0-51.13-0.13","2297","pics2/SW3.jpg,pics2/FR1.jpg","","","","","","","true","1","","","sizeS.png","","",""
"image-slider-2AFC","611","1847762","0.0-51.13-1.13","3613","","","","-45","","","","","","","","heartS.png","2869","-45",""
"html-keyboard-response","612","1848467","0.0-51.13-2.13","null","","","","","","","null","","","","","","","",""
"image-selector-fb","613","1850130","0.0-51.14-0.14","1153","pics2/SA3.jpg,pics2/FR1.jpg","","","","","","","true","1","","","sizeS.png","","",""
"image-slider-2AFC","614","1852246","0.0-51.14-1.14","2114","","","","18","","","","","","","","sizeS.png","1505","18",""
"html-keyboard-response","615","1853008","0.0-51.14-2.14","null","","","","","","","null","","","","","","","",""
"image-selector-fb","616","1855145","0.0-51.15-0.15","1631","pics2/SA2.jpg,pics2/FR1.jpg","","","","","","","true","1","","","sizeS.png","","",""
"image-slider-2AFC","617","1858653","0.0-51.15-1.15","3506","","","","76","","","","","","","","heartS.png","1570,2616","100,76",""
"html-keyboard-response","618","1859464","0.0-51.15-2.15","null","","","","","","","null","","","","","","","",""
"image-selector-fb","619","1861031","0.0-51.16-0.16","1060","pics2/FR5.jpg,pics2/SA4.jpg","","","","","","","false","0","","","sizeS.png","","",""
"image-slider-2AFC","620","1863388","0.0-51.16-1.16","2355","","","","-64","","","","","","","","sizeS.png","1593","-64",""
"html-keyboard-response","621","1864097","0.0-51.16-2.16","null","","","","","","","null","","","","","","","",""
"image-selector-fb","622","1865576","0.0-51.17-0.17","967","pics2/SA6.jpg,pics2/SA3.jpg","","","","","","","true","1","","","sizeS.png","","",""
"image-slider-2AFC","623","1867906","0.0-51.17-1.17","2328","","","","41","","","","","","","","sizeS.png","1564","41",""
"html-keyboard-response","624","1868619","0.0-51.17-2.17","null","","","","","","","null","","","","","","","",""
"image-selector-fb","625","1870978","0.0-51.18-0.18","1849","pics2/FR2.jpg,pics2/FR1.jpg","","","","","","","false","0","","","sizeS.png","","",""
"image-slider-2AFC","626","1872746","0.0-51.18-1.18","1765","","","","-26","","","","","","","","heartS.png","1307","-26",""
"html-keyboard-response","627","1873456","0.0-51.18-2.18","null","","","","","","","null","","","","","","","",""
"image-selector-fb","628","1874923","0.0-51.19-0.19","958","pics2/SW1.jpg,pics2/SW6.jpg","","","","","","","false","0","","","heartS.png","","",""
"image-slider-2AFC","629","1877321","0.0-51.19-1.19","2394","","","","-60","","","","","","","","sizeS.png","1911","-60",""
"html-keyboard-response","630","1878083","0.0-51.19-2.19","null","","","","","","","null","","","","","","","",""
"image-selector-fb","631","1879733","0.0-51.20-0.20","1140","pics2/SW1.jpg,pics2/SA4.jpg","","","","","","","false","0","","","sizeS.png","","",""
"image-slider-2AFC","632","1882449","0.0-51.20-1.20","2713","","","","-82","","","","","","","","sizeS.png","2047","-82",""
"html-keyboard-response","633","1883260","0.0-51.20-2.20","null","","","","","","","null","","","","","","","",""
"image-selector-fb","634","1885515","0.0-51.21-0.21","1749","pics2/SA4.jpg,pics2/SA6.jpg","","","","","","","false","0","","","heartS.png","","",""
"image-slider-2AFC","635","1888913","0.0-51.21-1.21","3395","","","","-89","","","","","","","","heartS.png","2882","-89",""
"html-keyboard-response","636","1889616","0.0-51.21-2.21","null","","","","","","","null","","","","","","","",""
"image-selector-fb","637","1892622","0.0-51.22-0.22","null","pics2/SW6.jpg,pics2/FR3.jpg","","","","","","","false","null","","","noS.png","","",""
"image-slider-2AFC","638","1895203","0.0-51.22-1.22","2579","","","","38","","","","","","","","sizeS.png","1986","38",""
"html-keyboard-response","639","1895907","0.0-51.22-2.22","null","","","","","","","null","","","","","","","",""
"image-selector-fb","640","1898917","0.0-51.23-0.23","null","pics2/FR5.jpg,pics2/SA6.jpg","","","","","","","false","null","","","noS.png","","",""
"image-slider-2AFC","641","1902600","0.0-51.23-1.23","3681","","","","-53","","","","","","","","sizeS.png","3141","-53",""
"html-keyboard-response","642","1903362","0.0-51.23-2.23","null","","","","","","","null","","","","","","","",""
"image-selector-fb","643","1904810","0.0-51.24-0.24","938","pics2/SW4.jpg,pics2/SW1.jpg","","","","","","","true","1","","","heartS.png","","",""
"image-slider-2AFC","644","1907029","0.0-51.24-1.24","2215","","","","25","","","","","","","","sizeS.png","1767","25",""
"html-keyboard-response","645","1907838","0.0-51.24-2.24","null","","","","","","","null","","","","","","","",""
"image-selector-fb","646","1910845","0.0-51.25-0.25","null","pics2/SW3.jpg,pics2/FR3.jpg","","","","","","","false","null","","","noS.png","","",""
"image-slider-2AFC","647","1915118","0.0-51.25-1.25","4271","","","","-31","","","","","","","","heartS.png","2565","-31",""
"html-keyboard-response","648","1915979","0.0-51.25-2.25","null","","","","","","","null","","","","","","","",""
"image-selector-fb","649","1918993","0.0-51.26-0.26","null","pics2/FR5.jpg,pics2/SW3.jpg","","","","","","","false","null","","","noS.png","","",""
"image-slider-2AFC","650","1922328","0.0-51.26-1.26","3332","","","","2","","","","","","","","sizeS.png","2261","2",""
"html-keyboard-response","651","1923190","0.0-51.26-2.26","null","","","","","","","null","","","","","","","",""
"image-selector-fb","652","1926202","0.0-51.27-0.27","null","pics2/SW4.jpg,pics2/FR2.jpg","","","","","","","false","null","","","noS.png","","",""
"image-slider-2AFC","653","1931047","0.0-51.27-1.27","4843","","","","17","","","","","","","","sizeS.png","3704","17",""
"html-keyboard-response","654","1931753","0.0-51.27-2.27","null","","","","","","","null","","","","","","","",""
"image-selector-fb","655","1933610","0.0-51.28-0.28","1348","pics2/FR5.jpg,pics2/SA6.jpg","","","","","","","false","0","","","sizeS.png","","",""
"image-slider-2AFC","656","1936591","0.0-51.28-1.28","2977","","","","-91","","","","","","","","heartS.png","2360","-91",""
"html-keyboard-response","657","1937453","0.0-51.28-2.28","null","","","","","","","null","","","","","","","",""
"image-selector-fb","658","1938927","0.0-51.29-0.29","967","pics2/SA2.jpg,pics2/SW4.jpg","","","","","","","true","1","","","sizeS.png","","",""
"image-slider-2AFC","659","1941888","0.0-51.29-1.29","2958","","","","100","","","","","","","","heartS.png","2100","100",""
"html-keyboard-response","660","1942648","0.0-51.29-2.29","null","","","","","","","null","","","","","","","",""
"image-selector-fb","661","1945659","0.0-51.30-0.30","null","pics2/SA4.jpg,pics2/SW3.jpg","","","","","","","false","null","","","noS.png","","",""
"image-slider-2AFC","662","1948765","0.0-51.30-1.30","3103","","","","82","","","","","","","","sizeS.png","2277","82",""
"html-keyboard-response","663","1949473","0.0-51.30-2.30","null","","","","","","","null","","","","","","","",""
"image-selector-fb","664","1950947","0.0-51.31-0.31","969","pics2/SW1.jpg,pics2/SW3.jpg","","","","","","","false","0","","","sizeS.png","","",""
"image-slider-2AFC","665","1953154","0.0-51.31-1.31","2205","","","","-100","","","","","","","","heartS.png","1425","-100",""
"html-keyboard-response","666","1954010","0.0-51.31-2.31","null","","","","","","","null","","","","","","","",""
"image-selector-fb","667","1955578","0.0-51.32-0.32","1062","pics2/SW3.jpg,pics2/SA2.jpg","","","","","","","false","0","","","heartS.png","","",""
"image-slider-2AFC","668","1958499","0.0-51.32-1.32","2916","","","","-78","","","","","","","","sizeS.png","1928","-78",""
"html-keyboard-response","669","1959203","0.0-51.32-2.32","null","","","","","","","null","","","","","","","",""
"image-selector-fb","670","1961567","0.0-51.33-0.33","1857","pics2/FR1.jpg,pics2/SW1.jpg","","","","","","","true","1","","","heartS.png","","",""
"image-slider-2AFC","671","1963731","0.0-51.33-1.33","2162","","","","15","","","","","","","","sizeS.png","1657","15",""
"html-keyboard-response","672","1964441","0.0-51.33-2.33","null","","","","","","","null","","","","","","","",""
"image-selector-fb","673","1965842","0.0-51.34-0.34","895","pics2/SA2.jpg,pics2/SW1.jpg","","","","","","","true","1","","","sizeS.png","","",""
"image-slider-2AFC","674","1968192","0.0-51.34-1.34","2348","","","","70","","","","","","","","sizeS.png","1667","70",""
"html-keyboard-response","675","1969051","0.0-51.34-2.34","null","","","","","","","null","","","","","","","",""
"image-selector-fb","676","1972066","0.0-51.35-0.35","null","pics2/SW1.jpg,pics2/SW6.jpg","","","","","","","false","null","","","noS.png","","",""
"image-slider-2AFC","677","1976236","0.0-51.35-1.35","4167","","","","-100","","","","","","","","heartS.png","3436","-100",""
"html-keyboard-response","678","1976942","0.0-51.35-2.35","null","","","","","","","null","","","","","","","",""
"image-selector-fb","679","1978817","0.0-51.36-0.36","1365","pics2/SW6.jpg,pics2/FR2.jpg","","","","","","","true","1","","","sizeS.png","","",""
"image-slider-2AFC","680","1981525","0.0-51.36-1.36","2705","","","","45","","","","","","","","sizeS.png","2023","45",""
"html-keyboard-response","681","1982383","0.0-51.36-2.36","null","","","","","","","null","","","","","","","",""
"image-selector-fb","682","1985398","0.0-51.37-0.37","null","pics2/SA2.jpg,pics2/SW3.jpg","","","","","","","false","null","","","noS.png","","",""
"image-slider-2AFC","683","1990408","0.0-51.37-1.37","null","","","","null","","","","","","","","heartS.png","2706","72",""
"html-keyboard-response","684","1991117","0.0-51.37-2.37","null","","","","","","","null","","","","","","","",""
"image-selector-fb","685","1992648","0.0-51.38-0.38","1024","pics2/FR2.jpg,pics2/SW6.jpg","","","","","","","false","0","","","heartS.png","","",""
"image-slider-2AFC","686","1995599","0.0-51.38-1.38","2948","","","","24","","","","","","","","heartS.png","2302","24",""
"html-keyboard-response","687","1996311","0.0-51.38-2.38","null","","","","","","","null","","","","","","","",""
"image-selector-fb","688","1999326","0.0-51.39-0.39","null","pics2/SA2.jpg,pics2/SA6.jpg","","","","","","","false","null","","","noS.png","","",""
"image-slider-2AFC","689","2003708","0.0-51.39-1.39","4379","","","","84","","","","","","","","heartS.png","3655","84",""
"html-keyboard-response","690","2004516","0.0-51.39-2.39","null","","","","","","","null","","","","","","","",""
"image-selector-fb","691","2007540","0.0-51.40-0.40","null","pics2/SA2.jpg,pics2/FR2.jpg","","","","","","","false","null","","","noS.png","","",""
"image-slider-2AFC","692","2010391","0.0-51.40-1.40","2849","","","","65","","","","","","","","sizeS.png","2103","65",""
"html-keyboard-response","693","2011093","0.0-51.40-2.40","null","","","","","","","null","","","","","","","",""
"image-selector-fb","694","2012618","0.0-51.41-0.41","1016","pics2/SA2.jpg,pics2/FR3.jpg","","","","","","","true","1","","","heartS.png","","",""
"image-slider-2AFC","695","2015535","0.0-51.41-1.41","2915","","","","89","","","","","","","","sizeS.png","2080","89",""
"html-keyboard-response","696","2016297","0.0-51.41-2.41","null","","","","","","","null","","","","","","","",""
"image-selector-fb","697","2018228","0.0-51.42-0.42","1422","pics2/FR5.jpg,pics2/FR1.jpg","","","","","","","false","0","","","sizeS.png","","",""
"image-slider-2AFC","698","2019731","0.0-51.42-1.42","1500","","","","-10","","","","","","","","sizeS.png","1115","-10",""
"html-keyboard-response","699","2020442","0.0-51.42-2.42","null","","","","","","","null","","","","","","","",""
"image-selector-fb","700","2021821","0.0-51.43-0.43","869","pics2/FR3.jpg,pics2/SW6.jpg","","","","","","","false","0","","","sizeS.png","","",""
"image-slider-2AFC","701","2023621","0.0-51.43-1.43","1797","","","","-46","","","","","","","","sizeS.png","1225","-46",""
"html-keyboard-response","702","2024376","0.0-51.43-2.43","null","","","","","","","null","","","","","","","",""
"image-selector-fb","703","2027385","0.0-51.44-0.44","null","pics2/SA4.jpg,pics2/FR3.jpg","","","","","","","false","null","","","noS.png","","",""
"image-slider-2AFC","704","2030854","0.0-51.44-1.44","3465","","","","100","","","","","","","","heartS.png","2484","100",""
"html-keyboard-response","705","2031666","0.0-51.44-2.44","null","","","","","","","null","","","","","","","",""
"image-selector-fb","706","2033193","0.0-51.45-0.45","1017","pics2/SW4.jpg,pics2/FR2.jpg","","","","","","","false","0","","","heartS.png","","",""
"image-slider-2AFC","707","2037211","0.0-51.45-1.45","4015","","","","-68","","","","","","","","heartS.png","3203","-68",""
"html-keyboard-response","708","2038068","0.0-51.45-2.45","null","","","","","","","null","","","","","","","",""
"image-selector-fb","709","2039987","0.0-51.46-0.46","1409","pics2/SA3.jpg,pics2/FR2.jpg","","","","","","","true","1","","","heartS.png","","",""
