"trial_type","trial_index","time_elapsed","internal_node_id","rt","stimulus","button_pressed","success","response","cat","value","key_press","correct","image_click","first_click_rt","first_click_val","symbol","all_click_rt","all_click_val","view_history"
"pavlovia","0","3","0.0-0.0","","","","","","","","","","","","","","","",""
"html-button-response","1","3705","0.0-1.0","3698","<div style='width: 700px; font-size: 150%'><font size='40'>  Welcome to our study!</font><br><br><br> <small> Our experiment is about <i>decision making</i>. You will choose and rate different food items, such as these: <br><br> <div><img src='food_combo2.png', height = '400px'></img></div>","0","","","","","","","","","","","","",""
"html-button-response","2","11082","0.0-2.0","7375","<div style='width: 700px; font-size: 150%'><br><br><br><small> <u><i>This is a multi-part study.</i></u><br><br> In the first part you will rate 24 food items twice.<br><br><div><img src=""rat1.png"" style=""width: 25%""></img></div><br>In the second part (longest) you will make repeated choices and judgements concerning the food items.<br><br><div><img src=""mainx.png"" style=""width: 50%""></img></div><br>In the third and final part, you will rate the items again and answer few short questionnaires.<br><br><div><img src=""rat2.png"" style=""width: 50%""></img></div><br><br>","0","","","","","","","","","","","","",""
"fullscreen","3","14232","0.0-3.0","","","","true","","","","","","","","","","","",""
"html-button-response","4","16985","0.0-4.0","2750","<div style='width: 900px; font-size: 150%;' <font size='20%'> In the first part of the task you will use the mouse to rate food items on <i>2 scales</i> </font></div><br><br><div style='width: 900px'><div style='float: left; width: 50%; margin-right:2.5em'><img src='heartS.png'></img><p class='small' style='text-align: justify'>When you see the heart cue you will rate food items in terms of how much like them/would like to eat them <i>right now</i>. You will rate them on a continuous scale from left (strong dislike) to right (strong liking). Before submitting your rating, try imagining how the item tastes and how much you desire it.<br><br></p></div><div ><img src='sizeS.png'></img><p class='small' style='text-align: justify'>When you see the size cue, you will rate the same food items in terms of their size. The scale goes from left (tiny) to right (very large). You should assess picture size <i><u>relative</i></u> to the white background. <b>Remember:</b> rate the size of the picture, <u>not</u> the size of the item in real life. </p></div><div style='width: 900px'><br><br><b><i>Notice:</b> by starting the rating you agree that your sumbission might be rejected at an early stage and the experiment might end, if your size ratings are not at least modestly related to objective sizes, or if you repeat the same value ratings too many times. If you don't agree, please exit by closing the browser window. </i><br><br><br>","0","","","","","","","","","","","","",""
"html-button-response","5","18829","0.0-5.0","1842","<div><img src='heartS.png'></img></div><br><div style='text-align: justify; width: 700px'>Using the mouse, rate the <b><i>likeness</b></i> of the food items (how much you like them/would like to eat them <i>right now</i>). Far right-end of the scale indicates an item you <i>like a lot</i>. Far left-end indicates an item you <i>dislike a lot</i>. Think about each answer.   <ul><li>Try <b><i>not</b></i> to give identical rating to different items.</li><li>Use the whole scale, and <b><i>not</b></i> just the extremes</ul></div><br>","0","","","","","","","","","","","","",""
"image-slider-response","6","23512","0.0-6.0-0.0-0.0","4680","pics2/VE5.jpg","","","88","VE","","","","","","","","","",""
"image-slider-response","7","28343","0.0-6.0-0.0-0.1","4626","pics2/SA5.jpg","","","86","SA","","","","","","","","","",""
"image-slider-response","8","31528","0.0-6.0-0.0-0.2","2980","pics2/FR5.jpg","","","90","FR","","","","","","","","","",""
"image-slider-response","9","34866","0.0-6.0-0.0-0.3","3131","pics2/FR1.jpg","","","83","FR","","","","","","","","","",""
"image-slider-response","10","43108","0.0-6.0-0.0-0.4","8038","pics2/SA1.jpg","","","27","SA","","","","","","","","","",""
"image-slider-response","11","46062","0.0-6.0-0.0-0.5","2751","pics2/VE6.jpg","","","93","VE","","","","","","","","","",""
"image-slider-response","12","48787","0.0-6.0-0.0-0.6","2509","pics2/FR2.jpg","","","74","FR","","","","","","","","","",""
"image-slider-response","13","51936","0.0-6.0-0.0-0.7","2944","pics2/FR3.jpg","","","99","FR","","","","","","","","","",""
"image-slider-response","14","55258","0.0-6.0-0.0-0.8","3118","pics2/SW2.jpg","","","68","SW","","","","","","","","","",""
"image-slider-response","15","59131","0.0-6.0-0.0-0.9","3654","pics2/VE4.jpg","","","90","VE","","","","","","","","","",""
"image-slider-response","16","62547","0.0-6.0-0.0-0.10","3199","pics2/FR6.jpg","","","94","FR","","","","","","","","","",""
"image-slider-response","17","65332","0.0-6.0-0.0-0.11","2581","pics2/FR4.jpg","","","96","FR","","","","","","","","","",""
"image-slider-response","18","68349","0.0-6.0-0.0-0.12","2797","pics2/SW6.jpg","","","66","SW","","","","","","","","","",""
"image-slider-response","19","72157","0.0-6.0-0.0-0.13","3605","pics2/SW5.jpg","","","43","SW","","","","","","","","","",""
"image-slider-response","20","75128","0.0-6.0-0.0-0.14","2751","pics2/SW3.jpg","","","56","SW","","","","","","","","","",""
"image-slider-response","21","79277","0.0-6.0-0.0-0.15","3944","pics2/VE3.jpg","","","83","VE","","","","","","","","","",""
"image-slider-response","22","85466","0.0-6.0-0.0-0.16","5972","pics2/VE2.jpg","","","88","VE","","","","","","","","","",""
"image-slider-response","23","88959","0.0-6.0-0.0-0.17","3274","pics2/SA3.jpg","","","68","SA","","","","","","","","","",""
"image-slider-response","24","95907","0.0-6.0-0.0-0.18","6731","pics2/SA6.jpg","","","68","SA","","","","","","","","","",""
"image-slider-response","25","105344","0.0-6.0-0.0-0.19","9218","pics2/SW4.jpg","","","63","SW","","","","","","","","","",""
"image-slider-response","26","111073","0.0-6.0-0.0-0.20","5511","pics2/SA4.jpg","","","71","SA","","","","","","","","","",""
"image-slider-response","27","115657","0.0-6.0-0.0-0.21","4368","pics2/SA2.jpg","","","70","SA","","","","","","","","","",""
"image-slider-response","28","152053","0.0-6.0-0.0-0.22","36178","pics2/SW1.jpg","","","73","SW","","","","","","","","","",""
"image-slider-response","29","154908","0.0-6.0-0.0-0.23","2650","pics2/VE1.jpg","","","81","VE","","","","","","","","","",""
"html-button-response","30","156400","0.0-7.0","1275","<div style='width: 900px;'> <font size = 6><b> End of the first rating</b><br><br>","0","","","","","","","","","","","","",""
"html-button-response","31","158839","0.0-9.0","2438","<div ><img src='sizeS.png'></img></div><br><div style='text-align: justify; width: 700px'> Using the mouse, rate the <b><i>size</b></i> of the food items <b><i> relative to the white background.</b></i> Right-end of the scale indicates a <i>very large item</i>, which covers a large portion of the white rectangle. Left-end indicates a <i>very tiny</i> item which covers a tiny portion of the white rectangle.<br><br><i><u>Remember</i></u>: everything that is not the white background also contributes to item size (e.g. packing, plates, ect.)<br><br> Please keep in mind that if the accuracy of ratings do not allign well with actual sizes, the experiment will end.  As a result it will be consider incomplete and therefore no payment would be made. Good luck!<br><br></div><br>","0","","","","","","","","","","","","",""
"html-button-response","32","162687","0.0-10.0","3845","<div ><img src='sizeS.png'></img></div><br><b><font size=6>Examples of items that you might encounter</b><br><div style='width: 750px;'><div style='width: 33.33%; float:left'><br><br><br><i>Large Item</i><br><br><img src='large.jpg', width=200px></img></div><div style='float:right'><br><br><br><i>Small Item</i><br><br><img src='small.jpg', width=200px></img></div><div ><br><br><br><i>Medium Item</i><br><br><img src='med.jpg', width=200px></img></div></div><br><br>","0","","","","","","","","","","","","",""
"image-slider-response","33","165535","0.0-11.0-0.0-0.0","2846","pics2/SW6.jpg","","","90","null","","","","","","","","","",""
"image-slider-response","34","172078","0.0-11.0-0.0-0.1","6339","pics2/FR1.jpg","","","71","null","","","","","","","","","",""
"image-slider-response","35","176099","0.0-11.0-0.0-0.2","3817","pics2/SA5.jpg","","","66","null","","","","","","","","","",""
"image-slider-response","36","182591","0.0-11.0-0.0-0.3","6281","pics2/FR2.jpg","","","16","null","","","","","","","","","",""
"image-slider-response","37","186422","0.0-11.0-0.0-0.4","3611","pics2/SA2.jpg","","","98","null","","","","","","","","","",""
"image-slider-response","38","190574","0.0-11.0-0.0-0.5","3933","pics2/SA6.jpg","","","52","null","","","","","","","","","",""
"image-slider-response","39","196294","0.0-11.0-0.0-0.6","5501","pics2/SW5.jpg","","","54","null","","","","","","","","","",""
"image-slider-response","40","201985","0.0-11.0-0.0-0.7","5474","pics2/VE6.jpg","","","43","null","","","","","","","","","",""
"image-slider-response","41","206373","0.0-11.0-0.0-0.8","4168","pics2/FR4.jpg","","","5","null","","","","","","","","","",""
"image-slider-response","42","218661","0.0-11.0-0.0-0.9","12073","pics2/SW2.jpg","","","66","null","","","","","","","","","",""
"image-slider-response","43","225832","0.0-11.0-0.0-0.10","6953","pics2/SA3.jpg","","","45","null","","","","","","","","","",""
"image-slider-response","44","229808","0.0-11.0-0.0-0.11","3773","pics2/FR3.jpg","","","8","null","","","","","","","","","",""
"image-slider-response","45","233320","0.0-11.0-0.0-0.12","3301","pics2/SW3.jpg","","","99","null","","","","","","","","","",""
"image-slider-response","46","237426","0.0-11.0-0.0-0.13","3901","pics2/FR5.jpg","","","16","null","","","","","","","","","",""
"image-slider-response","47","241409","0.0-11.0-0.0-0.14","3774","pics2/VE4.jpg","","","74","null","","","","","","","","","",""
"image-slider-response","48","246174","0.0-11.0-0.0-0.15","4561","pics2/FR6.jpg","","","13","null","","","","","","","","","",""
"image-slider-response","49","251117","0.0-11.0-0.0-0.16","4733","pics2/VE1.jpg","","","11","null","","","","","","","","","",""
"image-slider-response","50","259130","0.0-11.0-0.0-0.17","7810","pics2/SW4.jpg","","","63","null","","","","","","","","","",""
"image-slider-response","51","266166","0.0-11.0-0.0-0.18","6831","pics2/VE3.jpg","","","13","null","","","","","","","","","",""
"image-slider-response","52","290831","0.0-11.0-0.0-0.19","24461","pics2/VE5.jpg","","","69","null","","","","","","","","","",""
"image-slider-response","53","300562","0.0-11.0-0.0-0.20","9517","pics2/SA4.jpg","","","86","null","","","","","","","","","",""
"image-slider-response","54","304809","0.0-11.0-0.0-0.21","4029","pics2/SW1.jpg","","","90","null","","","","","","","","","",""
"image-slider-response","55","317688","0.0-11.0-0.0-0.22","12673","pics2/VE2.jpg","","","20","null","","","","","","","","","",""
"image-slider-response","56","321628","0.0-11.0-0.0-0.23","3736","pics2/SA1.jpg","","","100","null","","","","","","","","","",""
"html-button-response","57","323185","0.0-12.0","1354","<div style='width: 900px;'> <font size = 6><b> End of the second rating</b><br><br>","0","","","","","","","","","","","","",""
"html-button-response","58","324897","0.0-13.0","1710","<div style='width: 900px;'>Now please rate the items for the second time. <br><br>This is not a memory test - you don't need to be consistent with your previous ratings. Just as before, try to make accurate judgements.<br><br>","0","","","","","","","","","","","","",""
"html-button-response","59","327323","0.0-14.0","2423","<div><img src='heartS.png'></img></div><br><div style='text-align: justify; width: 700px'>Using the mouse, rate the <b><i>likeness</b></i> of the food items (how much you like them/would like to eat them <i>right now</i>). Far right-end of the scale indicates an item you <i>like a lot</i>. Far left-end indicates an item you <i>dislike a lot</i>. Think about each answer.   <ul><li>Try <b><i>not</b></i> to give identical rating to different items.</li><li>Use the whole scale, and <b><i>not</b></i> just the extremes</ul></div><br>","0","","","","","","","","","","","","",""
"image-slider-response","60","332264","0.0-15.0-0.0-0.0","4937","pics2/FR5.jpg","","","89","FR","","","","","","","","","",""
"image-slider-response","61","332605","0.0-15.0-0.0-0.1","121","pics2/VE2.jpg","","","50","VE","","","","","","","","","",""
"image-slider-response","62","336341","0.0-15.0-0.0-0.2","3531","pics2/VE6.jpg","","","95","VE","","","","","","","","","",""
"image-slider-response","63","338984","0.0-15.0-0.0-0.3","2428","pics2/VE3.jpg","","","91","VE","","","","","","","","","",""
"image-slider-response","64","341428","0.0-15.0-0.0-0.4","2225","pics2/FR2.jpg","","","89","FR","","","","","","","","","",""
"image-slider-response","65","344346","0.0-15.0-0.0-0.5","2699","pics2/SW4.jpg","","","72","SW","","","","","","","","","",""
"image-slider-response","66","346803","0.0-15.0-0.0-0.6","2238","pics2/SW5.jpg","","","40","SW","","","","","","","","","",""
"image-slider-response","67","349522","0.0-15.0-0.0-0.7","2503","pics2/SA5.jpg","","","78","SA","","","","","","","","","",""
"image-slider-response","68","352051","0.0-15.0-0.0-0.8","2327","pics2/SA4.jpg","","","71","SA","","","","","","","","","",""
"image-slider-response","69","354463","0.0-15.0-0.0-0.9","2208","pics2/FR6.jpg","","","70","FR","","","","","","","","","",""
"image-slider-response","70","357200","0.0-15.0-0.0-0.10","2521","pics2/FR3.jpg","","","95","FR","","","","","","","","","",""
"image-slider-response","71","367207","0.0-15.0-0.0-0.11","9805","pics2/FR4.jpg","","","95","FR","","","","","","","","","",""
"image-slider-response","72","380097","0.0-15.0-0.0-0.12","12685","pics2/SA2.jpg","","","64","SA","","","","","","","","","",""
"image-slider-response","73","383012","0.0-15.0-0.0-0.13","2709","pics2/SA6.jpg","","","73","SA","","","","","","","","","",""
"image-slider-response","74","386279","0.0-15.0-0.0-0.14","3064","pics2/FR1.jpg","","","91","FR","","","","","","","","","",""
"image-slider-response","75","389702","0.0-15.0-0.0-0.15","3218","pics2/VE5.jpg","","","87","VE","","","","","","","","","",""
"image-slider-response","76","396513","0.0-15.0-0.0-0.16","6607","pics2/SW1.jpg","","","83","SW","","","","","","","","","",""
"image-slider-response","77","398898","0.0-15.0-0.0-0.17","2166","pics2/SW6.jpg","","","59","SW","","","","","","","","","",""
"image-slider-response","78","403061","0.0-15.0-0.0-0.18","3961","pics2/SW2.jpg","","","55","SW","","","","","","","","","",""
"image-slider-response","79","405740","0.0-15.0-0.0-0.19","2473","pics2/VE4.jpg","","","84","VE","","","","","","","","","",""
"image-slider-response","80","408571","0.0-15.0-0.0-0.20","2627","pics2/SA1.jpg","","","22","SA","","","","","","","","","",""
"image-slider-response","81","412325","0.0-15.0-0.0-0.21","3536","pics2/SW3.jpg","","","35","SW","","","","","","","","","",""
"image-slider-response","82","418484","0.0-15.0-0.0-0.22","5954","pics2/SA3.jpg","","","59","SA","","","","","","","","","",""
"image-slider-response","83","421547","0.0-15.0-0.0-0.23","2858","pics2/VE1.jpg","","","80","VE","","","","","","","","","",""
"call-function","84","421755","0.0-16.0","","","","","","","","","","","","","","","",""
"call-function","85","421757","0.0-17.0","","","","","","","","","","","","","","","",""
"html-button-response","86","423337","0.0-18.0","1579","<div style='width: 900px;'> <font size = 6><b> End of the first rating</b><br><br>","0","","","","","","","","","","","","",""
"html-button-response","87","424953","0.0-19.0","1614","<div ><img src='sizeS.png'></img></div><br><div style='text-align: justify; width: 700px'> Using the mouse, rate the <b><i>size</b></i> of the food items <b><i> relative to the white background.</b></i> Right-end of the scale indicates a <i>very large item</i>, which covers a large portion of the white rectangle. Left-end indicates a <i>very tiny</i> item which covers a tiny portion of the white rectangle.<br><br><i><u>Remember</i></u>: everything that is not the white background also contributes to item size (e.g. packing, plates, ect.)<br><br> Please keep in mind that if the accuracy of ratings do not allign well with actual sizes, the experiment will end.  As a result it will be consider incomplete and therefore no payment would be made. Good luck!<br><br></div><br>","0","","","","","","","","","","","","",""
"image-slider-response","88","428049","0.0-20.0-0.0-0.0","3093","pics2/SW6.jpg","","","87","null","","","","","","","","","",""
"image-slider-response","89","431176","0.0-20.0-0.0-0.1","2915","pics2/SW5.jpg","","","64","null","","","","","","","","","",""
"image-slider-response","90","434579","0.0-20.0-0.0-0.2","3181","pics2/SA5.jpg","","","74","null","","","","","","","","","",""
"image-slider-response","91","438872","0.0-20.0-0.0-0.3","4075","pics2/SW4.jpg","","","81","null","","","","","","","","","",""
"image-slider-response","92","441588","0.0-20.0-0.0-0.4","2510","pics2/SA2.jpg","","","92","null","","","","","","","","","",""
"image-slider-response","93","446215","0.0-20.0-0.0-0.5","4409","pics2/VE3.jpg","","","20","null","","","","","","","","","",""
"image-slider-response","94","449364","0.0-20.0-0.0-0.6","2931","pics2/VE2.jpg","","","17","null","","","","","","","","","",""
"image-slider-response","95","452285","0.0-20.0-0.0-0.7","2718","pics2/FR1.jpg","","","29","null","","","","","","","","","",""
"image-slider-response","96","456483","0.0-20.0-0.0-0.8","3980","pics2/SA1.jpg","","","97","null","","","","","","","","","",""
"image-slider-response","97","459632","0.0-20.0-0.0-0.9","2940","pics2/FR3.jpg","","","12","null","","","","","","","","","",""
"image-slider-response","98","462870","0.0-20.0-0.0-0.10","3022","pics2/SA3.jpg","","","41","null","","","","","","","","","",""
"image-slider-response","99","472323","0.0-20.0-0.0-0.11","9248","pics2/FR4.jpg","","","7","null","","","","","","","","","",""
"image-slider-response","100","474656","0.0-20.0-0.0-0.12","2114","pics2/FR6.jpg","","","15","null","","","","","","","","","",""
"image-slider-response","101","477417","0.0-20.0-0.0-0.13","2557","pics2/VE1.jpg","","","6","null","","","","","","","","","",""
"image-slider-response","102","480869","0.0-20.0-0.0-0.14","3249","pics2/SA4.jpg","","","80","null","","","","","","","","","",""
"image-slider-response","103","484736","0.0-20.0-0.0-0.15","3650","pics2/SW1.jpg","","","94","null","","","","","","","","","",""
"image-slider-response","104","490632","0.0-20.0-0.0-0.16","5693","pics2/VE5.jpg","","","49","null","","","","","","","","","",""
"image-slider-response","105","493993","0.0-20.0-0.0-0.17","3141","pics2/SA6.jpg","","","76","null","","","","","","","","","",""
"image-slider-response","106","497301","0.0-20.0-0.0-0.18","3089","pics2/FR2.jpg","","","15","null","","","","","","","","","",""
"image-slider-response","107","500540","0.0-20.0-0.0-0.19","3035","pics2/SW2.jpg","","","77","null","","","","","","","","","",""
"image-slider-response","108","503165","0.0-20.0-0.0-0.20","2413","pics2/SW3.jpg","","","85","null","","","","","","","","","",""
"image-slider-response","109","505966","0.0-20.0-0.0-0.21","2583","pics2/VE4.jpg","","","77","null","","","","","","","","","",""
"image-slider-response","110","508745","0.0-20.0-0.0-0.22","2573","pics2/FR5.jpg","","","23","null","","","","","","","","","",""
"image-slider-response","111","517777","0.0-20.0-0.0-0.23","8813","pics2/VE6.jpg","","","20","null","","","","","","","","","",""
"call-function","112","517981","0.0-21.0","","","","","","","","","","","","","","","",""
"html-button-response","113","520011","0.0-22.0","2030","<div style='width: 900px;'> <font size = 6><b> End of the second rating</b><br><br>","0","","","","","","","","","","","","",""
"pavlovia","114","520017","0.0-23.0","","","","","","","","","","","","","","","",""
"html-keyboard-response","115","525028","0.0-24.0","null","<div style='width: 700px;'> <font size=6><b>SHORT BREAK</font></b><br><br><i> Please wait 5 seconds to continue</i></div> ","","","","","","null","","","","","","","",""
"pavlovia","116","525029","0.0-25.0","","","","","","","","","","","","","","","",""
"html-button-response","117","532155","0.0-26.0","7123","<div style='width: 700px;'>In the main part of the study, you will be choosing between 2 items. When it's time to choose,  this symbol will appear: <br><br><img src='chooseS.png'></img><br><br>Below, a cue will signify the type of choice: </div><br><div style='width: 700px;'><div style='float: left; width: 50%'><img src='heartS.png'></img><p class='small'>Heart cue means you should choose the item you <b><i>prefer</b></i> more.</p></div><div class='float: right; width:50%'><img src='sizeS.png'></img><p class='small'>Size cue means you should choose the <b><i>larger</b></i> item. </p></div></div><br><div style='width: 700px;'>When you click, a green square will appear around the item you chose.<br></div><div><br>","0","","","","","","","","","","","","",""
"image-selector-fb-tut","118","536461","0.0-27.0","3298","0232.jpg,0123.jpg","","","","","","","false","0","","","","","",""
"image-selector-fb-tut","119","539654","0.0-28.0","2188","0232.jpg,0123.jpg","","","","","","","false","0","","","","","",""
"html-button-response","120","541547","0.0-29.0","1891","<div style='width: 900px;'>Your choices should be both <b><i>fast and accurate</b></i>. <br><br>You will have <i>4 seconds</i> to make each choice, which should be enough consider the options and click on one of the items.<br><br>","0","","","","","","","","","","","","",""
"html-button-response","121","543232","0.0-30.0","1683","<div style='width: 900px;'>Additionally, on some choice trials you will see the <b><i>no-choice cue</b></i>: <br><br><img src='noS.png'></img> <br><br>This cue means you can't make any choice. You can examine the items, but  can't click on any of them. Just wait patiently for the cue to dissapear.<br><br>","0","","","","","","","","","","","","",""
"image-selector-fb-tut","122","545242","0.0-31.0","null","0232.jpg,0123.jpg","","","","","","","false","null","","","","","",""
"html-button-response","123","546658","0.0-32.0","1414","<div style='width: 900px;'>After each choice the items will remain on the screen and you will see this symbol: <br><br><img src='judgeS.png'></img> <br><br>This means you should rate<b> the magnitude of the difference</b> between the items using a scale: </div><br><div style='width: 900px; '><div style='float: left; width: 50%; margin-right: 2.5em; align-self:left'><img src='heartS.png'></img><p class='small' style = 'text-align: justify;'>Heart cue means you should rate <b>how much you prefer</b> one of the items over the other. Moving the scale indicator to the left means you prefer the left one; moving it to the right - right one. The more you prefer one of them, the more towards that side you should move the scale indicator. </p></div><div class='float: right; width: 50%; margin-left: 2.5em;'><img src='sizeS.png'></img><p class='small' style='text-align: justify'>Size cue means you should rate <b>how much larger</b> is one of the items over the other. Moving the scale indicator to the left means you think the left is larger; moving it to the right - right one. The greater the difference in size, the more towards that side you should move the scale indicator.</div><br>","0","","","","","","","","","","","","",""
"image-slider-2AFC-tut","124","552045","0.0-33.0","5384","","","","23","","","","","","4257","23","","","",""
"image-slider-2AFC-tut","125","556981","0.0-34.0","4934","","","","69","","","","","","3898","69","","","",""
"html-button-response","126","566181","0.0-35.0","9198","<br><br><font size = 36><b> Examples </b></font><br><br><i> 1) I would like to eat some croissants a <b>lot more</b> than doritos right now:</i><br><img src='ex1.PNG', width='62%'></img><br><br><br><i> 2) I would like to eat some doritos a <b>bit more</b> than croissants right now, but just slightly:</i><br><img src='ex2.PNG' width='62%'></img>","0","","","","","","","","","","","","",""
"html-button-response","127","568105","0.0-36.0","1923","<div style='width: 900px;'><i>Now you know everything you need to do the task!</i> <br><br>Let's start by doing a <b>short training</b>, so you'll get used to how it works. </div><br>","0","","","","","","","","","","","","",""
"image-selector-fb","128","571388","0.0-37.0-0.0","2763","pics2/SW4.jpg,pics2/VE2.jpg","","","","","","","true","1","","","heartS.png","","",""
"image-slider-2AFC","129","574328","0.0-37.0-1.0","2939","","","","26","","","","","","","","heartS.png","2100","26",""
"html-keyboard-response","130","575096","0.0-37.0-2.0","null","","","","","","","null","","","","","","","",""
"image-selector-fb","131","578110","0.0-37.1-0.1","null","pics2/SA2.jpg,pics2/SW3.jpg","","","","","","","false","null","","","noS.png","","",""
"image-slider-2AFC","132","583114","0.0-37.1-1.1","null","","","","null","","","","","","","","sizeS.png","","",""
"html-keyboard-response","133","583934","0.0-37.1-2.1","null","","","","","","","null","","","","","","","",""
"image-selector-fb","134","587211","0.0-37.2-0.2","2767","pics2/SW2.jpg,pics2/SW4.jpg","","","","","","","true","1","","","heartS.png","","",""
"image-slider-2AFC","135","590289","0.0-37.2-1.2","3075","","","","48","","","","","","","","sizeS.png","1601","48",""
"html-keyboard-response","136","591001","0.0-37.2-2.2","null","","","","","","","null","","","","","","","",""
"image-selector-fb","137","594021","0.0-37.3-0.3","null","pics2/SA4.jpg,pics2/VE2.jpg","","","","","","","false","null","","","noS.png","","",""
"image-slider-2AFC","138","598435","0.0-37.3-1.3","4410","","","","-18","","","","","","","","heartS.png","3686","-18",""
"html-keyboard-response","139","599161","0.0-37.3-2.3","null","","","","","","","null","","","","","","","",""
"image-selector-fb","140","601540","0.0-37.4-0.4","1872","pics2/SW5.jpg,pics2/SW2.jpg","","","","","","","true","1","","","sizeS.png","","",""
"image-slider-2AFC","141","604189","0.0-37.4-1.4","2645","","","","49","","","","","","","","sizeS.png","1966","49",""
"html-keyboard-response","142","604962","0.0-37.4-2.4","null","","","","","","","null","","","","","","","",""
"image-selector-fb","143","607995","0.0-37.5-0.5","null","pics2/SW6.jpg,pics2/SA3.jpg","","","","","","","false","null","","","noS.png","","",""
"image-slider-2AFC","144","612508","0.0-37.5-1.5","4511","","","","-30","","","","","","","","sizeS.png","2994,3543","-44,-30",""
"html-keyboard-response","145","613240","0.0-37.5-2.5","null","","","","","","","null","","","","","","","",""
"image-selector-fb","146","616261","0.0-37.6-0.6","null","pics2/SA3.jpg,pics2/SW3.jpg","","","","","","","false","null","","","noS.png","","",""
"image-slider-2AFC","147","620329","0.0-37.6-1.6","4065","","","","56","","","","","","","","sizeS.png","3263","56",""
"html-keyboard-response","148","621039","0.0-37.6-2.6","null","","","","","","","null","","","","","","","",""
"image-selector-fb","149","624061","0.0-37.7-0.7","null","pics2/SA2.jpg,pics2/SA6.jpg","","","","","","","false","null","","","noS.png","","",""
"image-slider-2AFC","150","628345","0.0-37.7-1.7","4280","","","","51","","","","","","","","heartS.png","3601","51",""
"html-keyboard-response","151","629202","0.0-37.7-2.7","null","","","","","","","null","","","","","","","",""
"image-selector-fb","152","632226","0.0-37.8-0.8","null","pics2/SA2.jpg,pics2/VE2.jpg","","","","","","","false","null","","","noS.png","","",""
"image-slider-2AFC","153","636223","0.0-37.8-1.8","3994","","","","34","","","","","","","","heartS.png","3127","34",""
"html-keyboard-response","154","636940","0.0-37.8-2.8","null","","","","","","","null","","","","","","","",""
"image-selector-fb","155","639961","0.0-37.9-0.9","null","pics2/SW4.jpg,pics2/SW3.jpg","","","","","","","false","null","","","noS.png","","",""
"image-slider-2AFC","156","644022","0.0-37.9-1.9","4057","","","","36","","","","","","","","sizeS.png","3161","36",""
"html-keyboard-response","157","644883","0.0-37.9-2.9","null","","","","","","","null","","","","","","","",""
"image-selector-fb","158","647521","0.0-37.10-0.10","2128","pics2/SW4.jpg,pics2/SA4.jpg","","","","","","","true","1","","","heartS.png","","",""
"image-slider-2AFC","159","651148","0.0-37.10-1.10","3624","","","","31","","","","","","","","sizeS.png","3039","31",""
"html-keyboard-response","160","651926","0.0-37.10-2.10","null","","","","","","","null","","","","","","","",""
"image-selector-fb","161","654549","0.0-37.11-0.11","2103","pics2/SW5.jpg,pics2/SA6.jpg","","","","","","","false","0","","","sizeS.png","","",""
"image-slider-2AFC","162","658029","0.0-37.11-1.11","3477","","","","34","","","","","","","","heartS.png","1620,2791","-30,34",""
"html-keyboard-response","163","658900","0.0-37.11-2.11","null","","","","","","","null","","","","","","","",""
"html-button-response","164","663172","0.0-38.0","4270","<i><font size=10>Good job!</font></i> <br><br>Before we begin, you have a chance to review the rules, in case something was not clear.<br><br>","0","","","","","","","","","","","","",""
"instructions","165","668231","0.0-39.0","5058","","","","","","","","","","","","","","","[{""page_index"":0,""viewing_time"":1328},{""page_index"":1,""viewing_time"":1840},{""page_index"":2,""viewing_time"":1890}]"
"html-button-response","166","669592","0.0-40.0","1359","<div style='width: 900px;'> <font size='40'>Great! Now you're ready to begin</font><br><br>The main part of the experiment will consist of <u>3 blocks</u>. Each block consists of 66 decisions and judgements. You will have time for a short break between blocks.<br><br><br><i><u>Do your best to respond within the time limit.</u></i><br><br><i> Press the button to start the experiment<br><br></i>","0","","","","","","","","","","","","",""
"image-selector-fb","167","672625","0.0-41.0-0.0","null","pics2/FR6.jpg,pics2/FR4.jpg","","","","","","","false","null","","","noS.png","","",""
"image-slider-2AFC","168","675348","0.0-41.0-1.0","2719","","","","-22","","","","","","","","sizeS.png","2162","-22",""
"html-keyboard-response","169","676160","0.0-41.0-2.0","null","","","","","","","null","","","","","","","",""
"image-selector-fb","170","678265","0.0-41.1-0.1","1599","pics2/VE1.jpg,pics2/VE4.jpg","","","","","","","true","1","","","heartS.png","","",""
"image-slider-2AFC","171","680024","0.0-41.1-1.1","1757","","","","13","","","","","","","","heartS.png","940","13",""
"html-keyboard-response","172","680734","0.0-41.1-2.1","null","","","","","","","null","","","","","","","",""
"image-selector-fb","173","683763","0.0-41.2-0.2","null","pics2/FR2.jpg,pics2/VE3.jpg","","","","","","","false","null","","","noS.png","","",""
"image-slider-2AFC","174","687664","0.0-41.2-1.2","3900","","","","-32","","","","","","","","heartS.png","3206","-32",""
"html-keyboard-response","175","688370","0.0-41.2-2.2","null","","","","","","","null","","","","","","","",""
"image-selector-fb","176","691389","0.0-41.3-0.3","null","pics2/FR2.jpg,pics2/VE1.jpg","","","","","","","false","null","","","noS.png","","",""
"image-slider-2AFC","177","695022","0.0-41.3-1.3","3631","","","","-28","","","","","","","","sizeS.png","2880","-28",""
"html-keyboard-response","178","695725","0.0-41.3-2.3","null","","","","","","","null","","","","","","","",""
"image-selector-fb","179","698242","0.0-41.4-0.4","2012","pics2/VE5.jpg,pics2/FR6.jpg","","","","","","","false","0","","","heartS.png","","",""
"image-slider-2AFC","180","701180","0.0-41.4-1.4","2935","","","","-34","","","","","","","","sizeS.png","2184","-34",""
"html-keyboard-response","181","702036","0.0-41.4-2.4","null","","","","","","","null","","","","","","","",""
"image-selector-fb","182","705654","0.0-41.5-0.5","3097","pics2/SA5.jpg,pics2/VE5.jpg","","","","","","","false","0","","","heartS.png","","",""
"image-slider-2AFC","183","707894","0.0-41.5-1.5","2237","","","","-9","","","","","","","","heartS.png","1486","-9",""
"html-keyboard-response","184","708647","0.0-41.5-2.5","null","","","","","","","null","","","","","","","",""
"image-selector-fb","185","710771","0.0-41.6-0.6","1619","pics2/VE4.jpg,pics2/SA5.jpg","","","","","","","false","0","","","heartS.png","","",""
"image-slider-2AFC","186","713509","0.0-41.6-1.6","2734","","","","-50","","","","","","","","sizeS.png","1896","-50",""
"html-keyboard-response","187","714367","0.0-41.6-2.6","null","","","","","","","null","","","","","","","",""
"image-selector-fb","188","716314","0.0-41.7-0.7","1441","pics2/SA5.jpg,pics2/FR2.jpg","","","","","","","true","1","","","sizeS.png","","",""
"image-slider-2AFC","189","718908","0.0-41.7-1.7","2591","","","","-28","","","","","","","","sizeS.png","1609","-28",""
"html-keyboard-response","190","719761","0.0-41.7-2.7","null","","","","","","","null","","","","","","","",""
"image-selector-fb","191","722789","0.0-41.8-0.8","null","pics2/VE4.jpg,pics2/VE5.jpg","","","","","","","false","null","","","noS.png","","",""
"image-slider-2AFC","192","725821","0.0-41.8-1.8","3029","","","","-51","","","","","","","","sizeS.png","2091","-51",""
"html-keyboard-response","193","726626","0.0-41.8-2.8","null","","","","","","","null","","","","","","","",""
"image-selector-fb","194","729647","0.0-41.9-0.9","null","pics2/FR2.jpg,pics2/FR3.jpg","","","","","","","false","null","","","noS.png","","",""
"image-slider-2AFC","195","733963","0.0-41.9-1.9","4314","","","","-24","","","","","","","","heartS.png","3744","-24",""
"html-keyboard-response","196","734829","0.0-41.9-2.9","null","","","","","","","null","","","","","","","",""
"image-selector-fb","197","737853","0.0-41.10-0.10","null","pics2/FR2.jpg,pics2/FR6.jpg","","","","","","","false","null","","","noS.png","","",""
"image-slider-2AFC","198","740742","0.0-41.10-1.10","2886","","","","-25","","","","","","","","sizeS.png","2041","-25",""
"html-keyboard-response","199","741453","0.0-41.10-2.10","null","","","","","","","null","","","","","","","",""
"image-selector-fb","200","744473","0.0-41.11-0.11","null","pics2/SA5.jpg,pics2/FR2.jpg","","","","","","","false","null","","","noS.png","","",""
"image-slider-2AFC","201","747399","0.0-41.11-1.11","2923","","","","-55","","","","","","","","sizeS.png","2063","-55",""
"html-keyboard-response","202","748129","0.0-41.11-2.11","null","","","","","","","null","","","","","","","",""
"image-selector-fb","203","751162","0.0-41.12-0.12","null","pics2/VE4.jpg,pics2/FR3.jpg","","","","","","","false","null","","","noS.png","","",""
"image-slider-2AFC","204","754568","0.0-41.12-1.12","3403","","","","-6","","","","","","","","heartS.png","2651","-6",""
"html-keyboard-response","205","755324","0.0-41.12-2.12","null","","","","","","","null","","","","","","","",""
"image-selector-fb","206","758352","0.0-41.13-0.13","null","pics2/VE4.jpg,pics2/FR4.jpg","","","","","","","false","null","","","noS.png","","",""
"image-slider-2AFC","207","761014","0.0-41.13-1.13","2660","","","","31","","","","","","","","heartS.png","2074","31",""
"html-keyboard-response","208","761725","0.0-41.13-2.13","null","","","","","","","null","","","","","","","",""
"image-selector-fb","209","766230","0.0-41.14-0.14","null","pics2/VE5.jpg,pics2/FR1.jpg","","","","","","","false","null","","","heartS.png","","",""
"image-slider-2AFC","210","766230","0.0-41.14-1.14","null","","","","null","","","","","","","","sizeS.png","","",""
"html-keyboard-response","211","766932","0.0-41.14-2.14","null","","","","","","","null","","","","","","","",""
"image-selector-fb","212","768910","0.0-41.15-0.15","1459","pics2/FR4.jpg,pics2/FR6.jpg","","","","","","","false","0","","","heartS.png","","",""
"image-slider-2AFC","213","771024","0.0-41.15-1.15","2111","","","","-10","","","","","","","","heartS.png","1439","-10",""
"html-keyboard-response","214","771880","0.0-41.15-2.15","null","","","","","","","null","","","","","","","",""
"image-selector-fb","215","774654","0.0-41.16-0.16","2256","pics2/FR6.jpg,pics2/VE6.jpg","","","","","","","true","1","","","sizeS.png","","",""
"image-slider-2AFC","216","777081","0.0-41.16-1.16","2423","","","","7","","","","","","","","heartS.png","1743","7",""
"html-keyboard-response","217","777897","0.0-41.16-2.16","null","","","","","","","null","","","","","","","",""
"image-selector-fb","218","780626","0.0-41.17-0.17","2223","pics2/FR1.jpg,pics2/VE5.jpg","","","","","","","true","1","","","sizeS.png","","",""
"image-slider-2AFC","219","783137","0.0-41.17-1.17","2507","","","","19","","","","","","","","heartS.png","1965","19",""
"html-keyboard-response","220","783901","0.0-41.17-2.17","null","","","","","","","null","","","","","","","",""
"image-selector-fb","221","786017","0.0-41.18-0.18","1610","pics2/FR4.jpg,pics2/FR3.jpg","","","","","","","false","0","","","heartS.png","","",""
"image-slider-2AFC","222","789416","0.0-41.18-1.18","3396","","","","-5","","","","","","","","sizeS.png","2810","-5",""
"html-keyboard-response","223","790280","0.0-41.18-2.18","null","","","","","","","null","","","","","","","",""
"image-selector-fb","224","792438","0.0-41.19-0.19","1639","pics2/SA5.jpg,pics2/FR3.jpg","","","","","","","true","1","","","heartS.png","","",""
"image-slider-2AFC","225","794742","0.0-41.19-1.19","2300","","","","28","","","","","","","","heartS.png","1708","28",""
"html-keyboard-response","226","795524","0.0-41.19-2.19","null","","","","","","","null","","","","","","","",""
"image-selector-fb","227","797794","0.0-41.20-0.20","1764","pics2/FR1.jpg,pics2/VE1.jpg","","","","","","","false","0","","","sizeS.png","","",""
"image-slider-2AFC","228","800159","0.0-41.20-1.20","2362","","","","-9","","","","","","","","heartS.png","1750","-9",""
"html-keyboard-response","229","800869","0.0-41.20-2.20","null","","","","","","","null","","","","","","","",""
"image-selector-fb","230","803890","0.0-41.21-0.21","null","pics2/SA5.jpg,pics2/FR6.jpg","","","","","","","false","null","","","noS.png","","",""
"image-slider-2AFC","231","806016","0.0-41.21-1.21","2122","","","","-5","","","","","","","","heartS.png","1631","-5",""
"html-keyboard-response","232","806728","0.0-41.21-2.21","null","","","","","","","null","","","","","","","",""
"image-selector-fb","233","809114","0.0-41.22-0.22","1878","pics2/FR3.jpg,pics2/VE6.jpg","","","","","","","true","1","","","sizeS.png","","",""
"image-slider-2AFC","234","812678","0.0-41.22-1.22","3561","","","","6","","","","","","","","heartS.png","2369","6",""
"html-keyboard-response","235","813542","0.0-41.22-2.22","null","","","","","","","null","","","","","","","",""
"image-selector-fb","236","815778","0.0-41.23-0.23","1730","pics2/FR3.jpg,pics2/FR4.jpg","","","","","","","false","0","","","sizeS.png","","",""
"image-slider-2AFC","237","820792","0.0-41.23-1.23","null","","","","null","","","","","","","","sizeS.png","2883","-6",""
"html-keyboard-response","238","821646","0.0-41.23-2.23","null","","","","","","","null","","","","","","","",""
"image-selector-fb","239","824202","0.0-41.24-0.24","2036","pics2/FR2.jpg,pics2/SA5.jpg","","","","","","","false","0","","","heartS.png","","",""
"image-slider-2AFC","240","827511","0.0-41.24-1.24","3307","","","","4","","","","","","","","sizeS.png","2471","4",""
"html-keyboard-response","241","828228","0.0-41.24-2.24","null","","","","","","","null","","","","","","","",""
"image-selector-fb","242","831293","0.0-41.25-0.25","2559","pics2/FR4.jpg,pics2/SA5.jpg","","","","","","","false","0","","","heartS.png","","",""
"image-slider-2AFC","243","835424","0.0-41.25-1.25","4128","","","","-5","","","","","","","","heartS.png","3122","-5",""
"html-keyboard-response","244","836177","0.0-41.25-2.25","null","","","","","","","null","","","","","","","",""
"image-selector-fb","245","838716","0.0-41.26-0.26","2035","pics2/FR6.jpg,pics2/FR4.jpg","","","","","","","false","0","","","sizeS.png","","",""
"image-slider-2AFC","246","841058","0.0-41.26-1.26","2339","","","","-18","","","","","","","","sizeS.png","1563","-18",""
"html-keyboard-response","247","841775","0.0-41.26-2.26","null","","","","","","","null","","","","","","","",""
"image-selector-fb","248","843767","0.0-41.27-0.27","1475","pics2/FR1.jpg,pics2/FR6.jpg","","","","","","","false","0","","","heartS.png","","",""
"image-slider-2AFC","249","846331","0.0-41.27-1.27","2561","","","","-13","","","","","","","","sizeS.png","1793","-13",""
"html-keyboard-response","250","847190","0.0-41.27-2.27","null","","","","","","","null","","","","","","","",""
"image-selector-fb","251","849209","0.0-41.28-0.28","1502","pics2/VE5.jpg,pics2/FR5.jpg","","","","","","","false","0","","","sizeS.png","","",""
"image-slider-2AFC","252","852984","0.0-41.28-1.28","3774","","","","-58","","","","","","","","sizeS.png","1596,2611","-33,-58",""
"html-keyboard-response","253","853808","0.0-41.28-2.28","null","","","","","","","null","","","","","","","",""
"image-selector-fb","254","855633","0.0-41.29-0.29","1307","pics2/VE3.jpg,pics2/VE6.jpg","","","","","","","false","0","","","sizeS.png","","",""
"image-slider-2AFC","255","858490","0.0-41.29-1.29","2853","","","","42","","","","","","","","heartS.png","1685","42",""
"html-keyboard-response","256","859269","0.0-41.29-2.29","null","","","","","","","null","","","","","","","",""
"image-selector-fb","257","861635","0.0-41.30-0.30","1857","pics2/VE1.jpg,pics2/FR5.jpg","","","","","","","true","1","","","heartS.png","","",""
"image-slider-2AFC","258","864512","0.0-41.30-1.30","2875","","","","17","","","","","","","","sizeS.png","1924","17",""
"html-keyboard-response","259","865291","0.0-41.30-2.30","null","","","","","","","null","","","","","","","",""
"image-selector-fb","260","868324","0.0-41.31-0.31","null","pics2/FR2.jpg,pics2/VE5.jpg","","","","","","","false","null","","","noS.png","","",""
"image-slider-2AFC","261","872656","0.0-41.31-1.31","4329","","","","18","","","","","","","","sizeS.png","1930","18",""
"html-keyboard-response","262","873526","0.0-41.31-2.31","null","","","","","","","null","","","","","","","",""
"image-selector-fb","263","875380","0.0-41.32-0.32","1337","pics2/FR6.jpg,pics2/SA5.jpg","","","","","","","true","1","","","sizeS.png","","",""
"image-slider-2AFC","264","877849","0.0-41.32-1.32","2467","","","","7","","","","","","","","heartS.png","1652","7",""
"html-keyboard-response","265","878557","0.0-41.32-2.32","null","","","","","","","null","","","","","","","",""
"image-selector-fb","266","881573","0.0-41.33-0.33","null","pics2/SA5.jpg,pics2/FR3.jpg","","","","","","","false","null","","","noS.png","","",""
"image-slider-2AFC","267","884637","0.0-41.33-1.33","3061","","","","-27","","","","","","","","sizeS.png","2145","-27",""
"html-keyboard-response","268","885503","0.0-41.33-2.33","null","","","","","","","null","","","","","","","",""
"image-selector-fb","269","888534","0.0-41.34-0.34","null","pics2/VE4.jpg,pics2/VE6.jpg","","","","","","","false","null","","","noS.png","","",""
"image-slider-2AFC","270","891387","0.0-41.34-1.34","2849","","","","-48","","","","","","","","sizeS.png","1474","-48",""
"html-keyboard-response","271","892205","0.0-41.34-2.34","null","","","","","","","null","","","","","","","",""
"image-selector-fb","272","894457","0.0-41.35-0.35","1748","pics2/FR5.jpg,pics2/FR4.jpg","","","","","","","false","0","","","sizeS.png","","",""
"image-slider-2AFC","273","897627","0.0-41.35-1.35","3168","","","","-33","","","","","","","","sizeS.png","2140","-33",""
"html-keyboard-response","274","898455","0.0-41.35-2.35","null","","","","","","","null","","","","","","","",""
"image-selector-fb","275","901164","0.0-41.36-0.36","2191","pics2/FR1.jpg,pics2/SA5.jpg","","","","","","","true","1","","","sizeS.png","","",""
"image-slider-2AFC","276","903839","0.0-41.36-1.36","2671","","","","45","","","","","","","","sizeS.png","1721","45",""
"html-keyboard-response","277","904643","0.0-41.36-2.36","null","","","","","","","null","","","","","","","",""
"image-selector-fb","278","906484","0.0-41.37-0.37","1335","pics2/FR1.jpg,pics2/FR5.jpg","","","","","","","false","0","","","sizeS.png","","",""
"image-slider-2AFC","279","909511","0.0-41.37-1.37","3025","","","","-33","","","","","","","","sizeS.png","1838","-33",""
"html-keyboard-response","280","910224","0.0-41.37-2.37","null","","","","","","","null","","","","","","","",""
"image-selector-fb","281","913247","0.0-41.38-0.38","null","pics2/FR1.jpg,pics2/FR6.jpg","","","","","","","false","null","","","noS.png","","",""
"image-slider-2AFC","282","915875","0.0-41.38-1.38","2627","","","","-44","","","","","","","","sizeS.png","1537","-44",""
"html-keyboard-response","283","916733","0.0-41.38-2.38","null","","","","","","","null","","","","","","","",""
"image-selector-fb","284","919751","0.0-41.39-0.39","null","pics2/FR1.jpg,pics2/VE1.jpg","","","","","","","false","null","","","noS.png","","",""
"image-slider-2AFC","285","922473","0.0-41.39-1.39","2721","","","","-47","","","","","","","","sizeS.png","1678","-47",""
"html-keyboard-response","286","923328","0.0-41.39-2.39","null","","","","","","","null","","","","","","","",""
"image-selector-fb","287","925614","0.0-41.40-0.40","1770","pics2/FR2.jpg,pics2/VE6.jpg","","","","","","","false","0","","","heartS.png","","",""
"image-slider-2AFC","288","927903","0.0-41.40-1.40","2287","","","","-18","","","","","","","","sizeS.png","1457","-18",""
"html-keyboard-response","289","928765","0.0-41.40-2.40","null","","","","","","","null","","","","","","","",""
"image-selector-fb","290","931770","0.0-41.41-0.41","null","pics2/VE6.jpg,pics2/FR5.jpg","","","","","","","false","null","","","noS.png","","",""
"image-slider-2AFC","291","934283","0.0-41.41-1.41","2511","","","","-15","","","","","","","","heartS.png","1825","-15",""
"html-keyboard-response","292","935095","0.0-41.41-2.41","null","","","","","","","null","","","","","","","",""
"image-selector-fb","293","937696","0.0-41.42-0.42","2097","pics2/VE3.jpg,pics2/FR6.jpg","","","","","","","true","1","","","heartS.png","","",""
"image-slider-2AFC","294","939109","0.0-41.42-1.42","1412","","","","11","","","","","","","","heartS.png","957","11",""
"html-keyboard-response","295","939962","0.0-41.42-2.42","null","","","","","","","null","","","","","","","",""
"image-selector-fb","296","942566","0.0-41.43-0.43","2101","pics2/VE3.jpg,pics2/VE1.jpg","","","","","","","false","0","","","sizeS.png","","",""
"image-slider-2AFC","297","944643","0.0-41.43-1.43","2076","","","","-16","","","","","","","","sizeS.png","1292","-16",""
"html-keyboard-response","298","945509","0.0-41.43-2.43","null","","","","","","","null","","","","","","","",""
"image-selector-fb","299","948535","0.0-41.44-0.44","null","pics2/VE4.jpg,pics2/FR1.jpg","","","","","","","false","null","","","noS.png","","",""
"image-slider-2AFC","300","952475","0.0-41.44-1.44","3939","","","","-59","","","","","","","","sizeS.png","3209","-59",""
"html-keyboard-response","301","953184","0.0-41.44-2.44","null","","","","","","","null","","","","","","","",""
"image-selector-fb","302","956199","0.0-41.45-0.45","null","pics2/VE6.jpg,pics2/VE1.jpg","","","","","","","false","null","","","noS.png","","",""
"image-slider-2AFC","303","959085","0.0-41.45-1.45","2885","","","","14","","","","","","","","sizeS.png","2394","14",""
"html-keyboard-response","304","959898","0.0-41.45-2.45","null","","","","","","","null","","","","","","","",""
"image-selector-fb","305","961980","0.0-41.46-0.46","1566","pics2/FR1.jpg,pics2/VE4.jpg","","","","","","","true","1","","","sizeS.png","","",""
"image-slider-2AFC","306","964731","0.0-41.46-1.46","2749","","","","19","","","","","","","","heartS.png","1893","19",""
"html-keyboard-response","307","965584","0.0-41.46-2.46","null","","","","","","","null","","","","","","","",""
"image-selector-fb","308","967939","0.0-41.47-0.47","1851","pics2/FR5.jpg,pics2/VE1.jpg","","","","","","","true","1","","","sizeS.png","","",""
"image-slider-2AFC","309","970228","0.0-41.47-1.47","2289","","","","10","","","","","","","","sizeS.png","1532","10",""
"html-keyboard-response","310","970994","0.0-41.47-2.47","null","","","","","","","null","","","","","","","",""
"image-selector-fb","311","972808","0.0-41.48-0.48","1301","pics2/VE6.jpg,pics2/FR3.jpg","","","","","","","false","0","","","heartS.png","","",""
"image-slider-2AFC","312","975078","0.0-41.48-1.48","2269","","","","-4","","","","","","","","sizeS.png","1549","-4",""
"html-keyboard-response","313","975796","0.0-41.48-2.48","null","","","","","","","null","","","","","","","",""
"image-selector-fb","314","977650","0.0-41.49-0.49","1351","pics2/VE5.jpg,pics2/VE6.jpg","","","","","","","false","0","","","sizeS.png","","",""
"image-slider-2AFC","315","979664","0.0-41.49-1.49","2012","","","","-29","","","","","","","","sizeS.png","1109","-29",""
"html-keyboard-response","316","980379","0.0-41.49-2.49","null","","","","","","","null","","","","","","","",""
"image-selector-fb","317","982703","0.0-41.50-0.50","1812","pics2/VE1.jpg,pics2/FR3.jpg","","","","","","","true","1","","","heartS.png","","",""
"image-slider-2AFC","318","985672","0.0-41.50-1.50","2967","","","","59","","","","","","","","heartS.png","1939","59",""
"html-keyboard-response","319","986378","0.0-41.50-2.50","null","","","","","","","null","","","","","","","",""
"image-selector-fb","320","988444","0.0-41.51-0.51","1547","pics2/VE1.jpg,pics2/SA5.jpg","","","","","","","true","1","","","heartS.png","","",""
"image-slider-2AFC","321","991761","0.0-41.51-1.51","3315","","","","58","","","","","","","","sizeS.png","2399","58",""
"html-keyboard-response","322","992487","0.0-41.51-2.51","null","","","","","","","null","","","","","","","",""
"image-selector-fb","323","994997","0.0-41.52-0.52","2007","pics2/FR5.jpg,pics2/FR6.jpg","","","","","","","true","1","","","heartS.png","","",""
"image-slider-2AFC","324","998088","0.0-41.52-1.52","3089","","","","33","","","","","","","","heartS.png","2093","33",""
"html-keyboard-response","325","998841","0.0-41.52-2.52","null","","","","","","","null","","","","","","","",""
"image-selector-fb","326","1001863","0.0-41.53-0.53","null","pics2/FR3.jpg,pics2/FR4.jpg","","","","","","","false","null","","","noS.png","","",""
"image-slider-2AFC","327","1006738","0.0-41.53-1.53","4874","","","","3","","","","","","","","sizeS.png","4383","3",""
"html-keyboard-response","328","1007503","0.0-41.53-2.53","null","","","","","","","null","","","","","","","",""
"image-selector-fb","329","1009002","0.0-41.54-0.54","996","pics2/VE5.jpg,pics2/FR3.jpg","","","","","","","false","0","","","sizeS.png","","",""
"image-slider-2AFC","330","1012250","0.0-41.54-1.54","3245","","","","34","","","","","","","","heartS.png","1382,2631","13,34",""
"html-keyboard-response","331","1012954","0.0-41.54-2.54","null","","","","","","","null","","","","","","","",""
"image-selector-fb","332","1015976","0.0-41.55-0.55","null","pics2/FR5.jpg,pics2/FR4.jpg","","","","","","","false","null","","","noS.png","","",""
"image-slider-2AFC","333","1019308","0.0-41.55-1.55","3331","","","","-2","","","","","","","","sizeS.png","2796","-2",""
"html-keyboard-response","334","1020175","0.0-41.55-2.55","null","","","","","","","null","","","","","","","",""
"image-selector-fb","335","1022452","0.0-41.56-0.56","1761","pics2/FR2.jpg,pics2/VE4.jpg","","","","","","","true","1","","","heartS.png","","",""
"image-slider-2AFC","336","1024703","0.0-41.56-1.56","2250","","","","4","","","","","","","","heartS.png","1658","4",""
"html-keyboard-response","337","1025506","0.0-41.56-2.56","null","","","","","","","null","","","","","","","",""
"image-selector-fb","338","1027199","0.0-41.57-0.57","1190","pics2/VE4.jpg,pics2/VE5.jpg","","","","","","","false","0","","","heartS.png","","",""
"image-slider-2AFC","339","1029774","0.0-41.57-1.57","2573","","","","-13","","","","","","","","heartS.png","1974","-13",""
"html-keyboard-response","340","1030630","0.0-41.57-2.57","null","","","","","","","null","","","","","","","",""
"image-selector-fb","341","1032241","0.0-41.58-0.58","1107","pics2/FR3.jpg,pics2/FR6.jpg","","","","","","","false","0","","","heartS.png","","",""
"image-slider-2AFC","342","1033681","0.0-41.58-1.58","1440","","","","-18","","","","","","","","heartS.png","812","-18",""
"html-keyboard-response","343","1034435","0.0-41.58-2.58","null","","","","","","","null","","","","","","","",""
"image-selector-fb","344","1036318","0.0-41.59-0.59","1381","pics2/SA5.jpg,pics2/FR4.jpg","","","","","","","false","0","","","sizeS.png","","",""
"image-slider-2AFC","345","1038868","0.0-41.59-1.59","2548","","","","-7","","","","","","","","heartS.png","1061","-7",""
"html-keyboard-response","346","1039674","0.0-41.59-2.59","null","","","","","","","null","","","","","","","",""
"image-selector-fb","347","1042691","0.0-41.60-0.60","null","pics2/FR1.jpg,pics2/FR3.jpg","","","","","","","false","null","","","noS.png","","",""
"image-slider-2AFC","348","1044770","0.0-41.60-1.60","2078","","","","8","","","","","","","","heartS.png","1572","8",""
"html-keyboard-response","349","1045624","0.0-41.60-2.60","null","","","","","","","null","","","","","","","",""
"image-selector-fb","350","1048565","0.0-41.61-0.61","2440","pics2/VE5.jpg,pics2/FR2.jpg","","","","","","","false","0","","","sizeS.png","","",""
"image-slider-2AFC","351","1052803","0.0-41.61-1.61","4236","","","","-43","","","","","","","","sizeS.png","3615","-43",""
"html-keyboard-response","352","1053616","0.0-41.61-2.61","null","","","","","","","null","","","","","","","",""
"image-selector-fb","353","1056501","0.0-41.62-0.62","2378","pics2/FR2.jpg,pics2/FR1.jpg","","","","","","","false","0","","","heartS.png","","",""
"image-slider-2AFC","354","1059058","0.0-41.62-1.62","2556","","","","20","","","","","","","","sizeS.png","1978","20",""
"html-keyboard-response","355","1059871","0.0-41.62-2.62","null","","","","","","","null","","","","","","","",""
"image-selector-fb","356","1062895","0.0-41.63-0.63","null","pics2/VE4.jpg,pics2/SA5.jpg","","","","","","","false","null","","","noS.png","","",""
"image-slider-2AFC","357","1066908","0.0-41.63-1.63","4011","","","","-74","","","","","","","","sizeS.png","2642","-74",""
"html-keyboard-response","358","1067612","0.0-41.63-2.63","null","","","","","","","null","","","","","","","",""
"image-selector-fb","359","1069885","0.0-41.64-0.64","1760","pics2/VE4.jpg,pics2/VE1.jpg","","","","","","","false","0","","","sizeS.png","","",""
"image-slider-2AFC","360","1073166","0.0-41.64-1.64","3280","","","","-24","","","","","","","","heartS.png","1503,2666","-3,-24",""
"html-keyboard-response","361","1074019","0.0-41.64-2.64","null","","","","","","","null","","","","","","","",""
"image-selector-fb","362","1077042","0.0-41.65-0.65","null","pics2/FR3.jpg,pics2/VE3.jpg","","","","","","","false","null","","","noS.png","","",""
"image-slider-2AFC","363","1079545","0.0-41.65-1.65","2502","","","","26","","","","","","","","sizeS.png","1765","26",""
"html-keyboard-response","364","1080352","0.0-41.65-2.65","null","","","","","","","null","","","","","","","",""
"pavlovia","365","1080361","0.0-42.0","","","","","","","","","","","","","","","",""
"html-keyboard-response","366","1085363","0.0-43.0","null","<div style='width: 700px;'> <font size=6><b>SHORT BREAK</font></b><br><br><i> Please wait 5 seconds to continue</i></div> ","","","","","","null","","","","","","","",""
"pavlovia","367","1085364","0.0-44.0","","","","","","","","","","","","","","","",""
"html-button-response","368","1090103","0.0-45.0","4739","<div style='width: 700px;'> <font size=6><b>BLOCK 2</font></b><br><br>Press the button whenever you feel ready to start the second block (there are 3 in total)</div>","0","","","","","","","","","","","","",""
"image-selector-fb","369","1093137","0.0-46.0-0.0","null","pics2/FR2.jpg,pics2/FR4.jpg","","","","","","","false","null","","","noS.png","","",""
"image-slider-2AFC","370","1095223","0.0-46.0-1.0","2085","","","","13","","","","","","","","heartS.png","1442","13",""
"html-keyboard-response","371","1096025","0.0-46.0-2.0","null","","","","","","","null","","","","","","","",""
"image-selector-fb","372","1098131","0.0-46.1-0.1","1602","pics2/VE5.jpg,pics2/VE1.jpg","","","","","","","false","0","","","sizeS.png","","",""
"image-slider-2AFC","373","1100123","0.0-46.1-1.1","1990","","","","-21","","","","","","","","heartS.png","1107","-21",""
"html-keyboard-response","374","1100879","0.0-46.1-2.1","null","","","","","","","null","","","","","","","",""
"image-selector-fb","375","1103050","0.0-46.2-0.2","1668","pics2/FR2.jpg,pics2/FR5.jpg","","","","","","","false","0","","","heartS.png","","",""
"image-slider-2AFC","376","1106290","0.0-46.2-1.2","3239","","","","-13","","","","","","","","sizeS.png","2553","-13",""
"html-keyboard-response","377","1107041","0.0-46.2-2.2","null","","","","","","","null","","","","","","","",""
"image-selector-fb","378","1108878","0.0-46.3-0.3","1336","pics2/FR3.jpg,pics2/VE1.jpg","","","","","","","true","1","","","sizeS.png","","",""
"image-slider-2AFC","379","1110255","0.0-46.3-1.3","1376","","","","11","","","","","","","","sizeS.png","979","11",""
"html-keyboard-response","380","1111060","0.0-46.3-2.3","null","","","","","","","null","","","","","","","",""
"image-selector-fb","381","1112345","0.0-46.4-0.4","783","pics2/VE6.jpg,pics2/VE4.jpg","","","","","","","true","1","","","heartS.png","","",""
"image-slider-2AFC","382","1114784","0.0-46.4-1.4","2438","","","","21","","","","","","","","sizeS.png","791","21",""
"html-keyboard-response","383","1115591","0.0-46.4-2.4","null","","","","","","","null","","","","","","","",""
"image-selector-fb","384","1117026","0.0-46.5-0.5","932","pics2/VE5.jpg,pics2/VE4.jpg","","","","","","","true","1","","","sizeS.png","","",""
"image-slider-2AFC","385","1119009","0.0-46.5-1.5","1982","","","","10","","","","","","","","heartS.png","1527","10",""
"html-keyboard-response","386","1119769","0.0-46.5-2.5","null","","","","","","","null","","","","","","","",""
"image-selector-fb","387","1122776","0.0-46.6-0.6","null","pics2/VE6.jpg,pics2/VE3.jpg","","","","","","","false","null","","","noS.png","","",""
"image-slider-2AFC","388","1126197","0.0-46.6-1.6","3420","","","","19","","","","","","","","heartS.png","2719","19",""
"html-keyboard-response","389","1126905","0.0-46.6-2.6","null","","","","","","","null","","","","","","","",""
"image-selector-fb","390","1128429","0.0-46.7-0.7","1010","pics2/FR4.jpg,pics2/VE4.jpg","","","","","","","true","1","","","heartS.png","","",""
"image-slider-2AFC","391","1132286","0.0-46.7-1.7","3855","","","","68","","","","","","","","sizeS.png","2866","68",""
"html-keyboard-response","392","1132989","0.0-46.7-2.7","null","","","","","","","null","","","","","","","",""
"image-selector-fb","393","1135979","0.0-46.8-0.8","2482","pics2/FR5.jpg,pics2/FR1.jpg","","","","","","","true","1","","","heartS.png","","",""
"image-slider-2AFC","394","1138491","0.0-46.8-1.8","2511","","","","45","","","","","","","","heartS.png","1889","45",""
"html-keyboard-response","395","1139293","0.0-46.8-2.8","null","","","","","","","null","","","","","","","",""
"image-selector-fb","396","1141651","0.0-46.9-0.9","1854","pics2/FR6.jpg,pics2/FR3.jpg","","","","","","","false","0","","","sizeS.png","","",""
"image-slider-2AFC","397","1143727","0.0-46.9-1.9","2075","","","","-7","","","","","","","","sizeS.png","1591","-7",""
"html-keyboard-response","398","1144539","0.0-46.9-2.9","null","","","","","","","null","","","","","","","",""
"image-selector-fb","399","1146140","0.0-46.10-0.10","1094","pics2/VE5.jpg,pics2/SA5.jpg","","","","","","","true","1","","","sizeS.png","","",""
"image-slider-2AFC","400","1147974","0.0-46.10-1.10","1832","","","","24","","","","","","","","sizeS.png","1312","24",""
"html-keyboard-response","401","1148779","0.0-46.10-2.10","null","","","","","","","null","","","","","","","",""
"image-selector-fb","402","1151847","0.0-46.11-0.11","2553","pics2/FR5.jpg,pics2/VE3.jpg","","","","","","","false","0","","","heartS.png","","",""
"image-slider-2AFC","403","1154987","0.0-46.11-1.11","3139","","","","19","","","","","","","","sizeS.png","2300","19",""
"html-keyboard-response","404","1155695","0.0-46.11-2.11","null","","","","","","","null","","","","","","","",""
"image-selector-fb","405","1157643","0.0-46.12-0.12","1430","pics2/FR5.jpg,pics2/VE6.jpg","","","","","","","true","1","","","sizeS.png","","",""
"image-slider-2AFC","406","1159387","0.0-46.12-1.12","1743","","","","11","","","","","","","","heartS.png","1273","11",""
"html-keyboard-response","407","1160192","0.0-46.12-2.12","null","","","","","","","null","","","","","","","",""
"image-selector-fb","408","1163212","0.0-46.13-0.13","null","pics2/FR3.jpg,pics2/VE5.jpg","","","","","","","false","null","","","noS.png","","",""
"image-slider-2AFC","409","1166567","0.0-46.13-1.13","3354","","","","-48","","","","","","","","heartS.png","2530","-48",""
"html-keyboard-response","410","1167338","0.0-46.13-2.13","null","","","","","","","null","","","","","","","",""
"image-selector-fb","411","1169381","0.0-46.14-0.14","1541","pics2/VE4.jpg,pics2/FR2.jpg","","","","","","","false","0","","","sizeS.png","","",""
"image-slider-2AFC","412","1171850","0.0-46.14-1.14","2467","","","","-76","","","","","","","","sizeS.png","1281","-76",""
"html-keyboard-response","413","1172712","0.0-46.14-2.14","null","","","","","","","null","","","","","","","",""
"image-selector-fb","414","1175740","0.0-46.15-0.15","null","pics2/FR5.jpg,pics2/VE3.jpg","","","","","","","false","null","","","noS.png","","",""
"image-slider-2AFC","415","1177786","0.0-46.15-1.15","2044","","","","45","","","","","","","","sizeS.png","1438","45",""
"html-keyboard-response","416","1178497","0.0-46.15-2.15","null","","","","","","","null","","","","","","","",""
"image-selector-fb","417","1181501","0.0-46.16-0.16","null","pics2/VE6.jpg,pics2/FR3.jpg","","","","","","","false","null","","","noS.png","","",""
"image-slider-2AFC","418","1185579","0.0-46.16-1.16","4077","","","","32","","","","","","","","heartS.png","3304","32",""
"html-keyboard-response","419","1186453","0.0-46.16-2.16","null","","","","","","","null","","","","","","","",""
"image-selector-fb","420","1189457","0.0-46.17-0.17","null","pics2/VE6.jpg,pics2/FR4.jpg","","","","","","","false","null","","","noS.png","","",""
"image-slider-2AFC","421","1192896","0.0-46.17-1.17","3435","","","","16","","","","","","","","heartS.png","2691","16",""
"html-keyboard-response","422","1193626","0.0-46.17-2.17","null","","","","","","","null","","","","","","","",""
"image-selector-fb","423","1195548","0.0-46.18-0.18","1420","pics2/FR6.jpg,pics2/VE5.jpg","","","","","","","true","1","","","sizeS.png","","",""
"image-slider-2AFC","424","1197800","0.0-46.18-1.18","2251","","","","33","","","","","","","","sizeS.png","1493","33",""
"html-keyboard-response","425","1198664","0.0-46.18-2.18","null","","","","","","","null","","","","","","","",""
"image-selector-fb","426","1201166","0.0-46.19-0.19","1986","pics2/FR4.jpg,pics2/VE3.jpg","","","","","","","false","0","","","heartS.png","","",""
"image-slider-2AFC","427","1203188","0.0-46.19-1.19","2021","","","","15","","","","","","","","sizeS.png","1472","15",""
"html-keyboard-response","428","1203992","0.0-46.19-2.19","null","","","","","","","null","","","","","","","",""
"image-selector-fb","429","1205596","0.0-46.20-0.20","1102","pics2/FR5.jpg,pics2/VE4.jpg","","","","","","","true","1","","","sizeS.png","","",""
"image-slider-2AFC","430","1207865","0.0-46.20-1.20","2267","","","","70","","","","","","","","sizeS.png","1260","70",""
"html-keyboard-response","431","1208689","0.0-46.20-2.20","null","","","","","","","null","","","","","","","",""
"image-selector-fb","432","1211708","0.0-46.21-0.21","null","pics2/FR5.jpg,pics2/SA5.jpg","","","","","","","false","null","","","noS.png","","",""
"image-slider-2AFC","433","1216349","0.0-46.21-1.21","4639","","","","-32","","","","","","","","heartS.png","3296,4076","-14,-32",""
"html-keyboard-response","434","1217069","0.0-46.21-2.21","null","","","","","","","null","","","","","","","",""
"image-selector-fb","435","1220096","0.0-46.22-0.22","null","pics2/SA5.jpg,pics2/FR1.jpg","","","","","","","false","null","","","noS.png","","",""
"image-slider-2AFC","436","1223738","0.0-46.22-1.22","3641","","","","13","","","","","","","","heartS.png","3142","13",""
"html-keyboard-response","437","1224510","0.0-46.22-2.22","null","","","","","","","null","","","","","","","",""
"image-selector-fb","438","1227564","0.0-46.23-0.23","2544","pics2/VE1.jpg,pics2/FR1.jpg","","","","","","","true","1","","","heartS.png","","",""
"image-slider-2AFC","439","1229379","0.0-46.23-1.23","1813","","","","17","","","","","","","","sizeS.png","1279","17",""
"html-keyboard-response","440","1230231","0.0-46.23-2.23","null","","","","","","","null","","","","","","","",""
"image-selector-fb","441","1233259","0.0-46.24-0.24","null","pics2/VE6.jpg,pics2/FR1.jpg","","","","","","","false","null","","","noS.png","","",""
"image-slider-2AFC","442","1237768","0.0-46.24-1.24","4507","","","","51","","","","","","","","sizeS.png","2075,3260","34,51",""
"html-keyboard-response","443","1238625","0.0-46.24-2.24","null","","","","","","","null","","","","","","","",""
"image-selector-fb","444","1241598","0.0-46.25-0.25","2459","pics2/VE1.jpg,pics2/VE5.jpg","","","","","","","true","1","","","heartS.png","","",""
"image-slider-2AFC","445","1243507","0.0-46.25-1.25","1907","","","","30","","","","","","","","heartS.png","1272","30",""
"html-keyboard-response","446","1244214","0.0-46.25-2.25","null","","","","","","","null","","","","","","","",""
"image-selector-fb","447","1247367","0.0-46.26-0.26","2642","pics2/SA5.jpg,pics2/VE3.jpg","","","","","","","false","0","","","heartS.png","","",""
"image-slider-2AFC","448","1249264","0.0-46.26-1.26","1895","","","","-16","","","","","","","","heartS.png","1166","-16",""
"html-keyboard-response","449","1250133","0.0-46.26-2.26","null","","","","","","","null","","","","","","","",""
"image-selector-fb","450","1253150","0.0-46.27-0.27","null","pics2/VE4.jpg,pics2/FR6.jpg","","","","","","","false","null","","","noS.png","","",""
"image-slider-2AFC","451","1256382","0.0-46.27-1.27","3231","","","","-92","","","","","","","","sizeS.png","2145","-92",""
"html-keyboard-response","452","1257161","0.0-46.27-2.27","null","","","","","","","null","","","","","","","",""
"image-selector-fb","453","1259814","0.0-46.28-0.28","2140","pics2/FR4.jpg,pics2/FR1.jpg","","","","","","","true","1","","","heartS.png","","",""
"image-slider-2AFC","454","1264821","0.0-46.28-1.28","null","","","","null","","","","","","","","heartS.png","3222,4474","41,22",""
"html-keyboard-response","455","1265591","0.0-46.28-2.28","null","","","","","","","null","","","","","","","",""
"image-selector-fb","456","1267983","0.0-46.29-0.29","1874","pics2/FR3.jpg,pics2/VE5.jpg","","","","","","","false","0","","","heartS.png","","",""
"image-slider-2AFC","457","1270549","0.0-46.29-1.29","2564","","","","39","","","","","","","","sizeS.png","1632","39",""
"html-keyboard-response","458","1271375","0.0-46.29-2.29","null","","","","","","","null","","","","","","","",""
"image-selector-fb","459","1273705","0.0-46.30-0.30","1827","pics2/VE4.jpg,pics2/FR5.jpg","","","","","","","true","1","","","heartS.png","","",""
"image-slider-2AFC","460","1277461","0.0-46.30-1.30","3755","","","","-87","","","","","","","","sizeS.png","2666","-87",""
"html-keyboard-response","461","1278171","0.0-46.30-2.30","null","","","","","","","null","","","","","","","",""
"image-selector-fb","462","1281192","0.0-46.31-0.31","null","pics2/FR5.jpg,pics2/FR2.jpg","","","","","","","false","null","","","noS.png","","",""
"image-slider-2AFC","463","1284638","0.0-46.31-1.31","3444","","","","28","","","","","","","","sizeS.png","2648","28",""
"html-keyboard-response","464","1285449","0.0-46.31-2.31","null","","","","","","","null","","","","","","","",""
"image-selector-fb","465","1287541","0.0-46.32-0.32","1589","pics2/FR3.jpg,pics2/VE3.jpg","","","","","","","false","0","","","heartS.png","","",""
"image-slider-2AFC","466","1289944","0.0-46.32-1.32","2402","","","","15","","","","","","","","sizeS.png","1576","15",""
"html-keyboard-response","467","1290657","0.0-46.32-2.32","null","","","","","","","null","","","","","","","",""
"image-selector-fb","468","1292401","0.0-46.33-0.33","1232","pics2/FR3.jpg,pics2/FR5.jpg","","","","","","","false","0","","","heartS.png","","",""
"image-slider-2AFC","469","1297110","0.0-46.33-1.33","4708","","","","-34","","","","","","","","heartS.png","1822,3193","18,-34",""
"html-keyboard-response","470","1297827","0.0-46.33-2.33","null","","","","","","","null","","","","","","","",""
"image-selector-fb","471","1300855","0.0-46.34-0.34","null","pics2/VE6.jpg,pics2/FR2.jpg","","","","","","","false","null","","","noS.png","","",""
"image-slider-2AFC","472","1303479","0.0-46.34-1.34","2623","","","","9","","","","","","","","heartS.png","1950","9",""
"html-keyboard-response","473","1304190","0.0-46.34-2.34","null","","","","","","","null","","","","","","","",""
"image-selector-fb","474","1306635","0.0-46.35-0.35","1942","pics2/FR1.jpg,pics2/FR2.jpg","","","","","","","false","0","","","sizeS.png","","",""
"image-slider-2AFC","475","1308718","0.0-46.35-1.35","2082","","","","-8","","","","","","","","sizeS.png","1349","-8",""
"html-keyboard-response","476","1309572","0.0-46.35-2.35","null","","","","","","","null","","","","","","","",""
"image-selector-fb","477","1312586","0.0-46.36-0.36","null","pics2/FR5.jpg,pics2/VE5.jpg","","","","","","","false","null","","","noS.png","","",""
"image-slider-2AFC","478","1315621","0.0-46.36-1.36","3034","","","","-4","","","","","","","","heartS.png","2492","-4",""
"html-keyboard-response","479","1316476","0.0-46.36-2.36","null","","","","","","","null","","","","","","","",""
"image-selector-fb","480","1318270","0.0-46.37-0.37","1279","pics2/VE3.jpg,pics2/VE4.jpg","","","","","","","true","1","","","sizeS.png","","",""
"image-slider-2AFC","481","1320448","0.0-46.37-1.37","2176","","","","72","","","","","","","","sizeS.png","1103","72",""
"html-keyboard-response","482","1321163","0.0-46.37-2.37","null","","","","","","","null","","","","","","","",""
"image-selector-fb","483","1324167","0.0-46.38-0.38","null","pics2/FR1.jpg,pics2/VE5.jpg","","","","","","","false","null","","","noS.png","","",""
"image-slider-2AFC","484","1326426","0.0-46.38-1.38","2257","","","","2","","","","","","","","sizeS.png","1810","2",""
"html-keyboard-response","485","1327238","0.0-46.38-2.38","null","","","","","","","null","","","","","","","",""
"image-selector-fb","486","1329166","0.0-46.39-0.39","1418","pics2/FR4.jpg,pics2/VE6.jpg","","","","","","","false","0","","","heartS.png","","",""
"image-slider-2AFC","487","1331272","0.0-46.39-1.39","2105","","","","-4","","","","","","","","heartS.png","1440","-4",""
"html-keyboard-response","488","1332090","0.0-46.39-2.39","null","","","","","","","null","","","","","","","",""
"image-selector-fb","489","1335254","0.0-46.40-0.40","2661","pics2/VE6.jpg,pics2/VE3.jpg","","","","","","","true","1","","","heartS.png","","",""
"image-slider-2AFC","490","1337490","0.0-46.40-1.40","2234","","","","6","","","","","","","","sizeS.png","1679","6",""
"html-keyboard-response","491","1338361","0.0-46.40-2.40","null","","","","","","","null","","","","","","","",""
"image-selector-fb","492","1341373","0.0-46.41-0.41","null","pics2/FR6.jpg,pics2/VE1.jpg","","","","","","","false","null","","","noS.png","","",""
"image-slider-2AFC","493","1344120","0.0-46.41-1.41","2746","","","","-3","","","","","","","","heartS.png","2233","-3",""
"html-keyboard-response","494","1344985","0.0-46.41-2.41","null","","","","","","","null","","","","","","","",""
"image-selector-fb","495","1348717","0.0-46.42-0.42","3217","pics2/FR4.jpg,pics2/VE1.jpg","","","","","","","false","0","","","sizeS.png","","",""
"image-slider-2AFC","496","1352216","0.0-46.42-1.42","3497","","","","-6","","","","","","","","sizeS.png","2761","-6",""
"html-keyboard-response","497","1353080","0.0-46.42-2.42","null","","","","","","","null","","","","","","","",""
"image-selector-fb","498","1356084","0.0-46.43-0.43","null","pics2/FR1.jpg,pics2/FR4.jpg","","","","","","","false","null","","","noS.png","","",""
"image-slider-2AFC","499","1358829","0.0-46.43-1.43","2743","","","","12","","","","","","","","heartS.png","1894","12",""
"html-keyboard-response","500","1359651","0.0-46.43-2.43","null","","","","","","","null","","","","","","","",""
"image-selector-fb","501","1363115","0.0-46.44-0.44","2950","pics2/VE1.jpg,pics2/VE6.jpg","","","","","","","true","1","","","heartS.png","","",""
"image-slider-2AFC","502","1365669","0.0-46.44-1.44","2553","","","","-2","","","","","","","","sizeS.png","1788","-2",""
"html-keyboard-response","503","1366430","0.0-46.44-2.44","null","","","","","","","null","","","","","","","",""
"image-selector-fb","504","1369445","0.0-46.45-0.45","null","pics2/FR5.jpg,pics2/VE1.jpg","","","","","","","false","null","","","noS.png","","",""
"image-slider-2AFC","505","1373003","0.0-46.45-1.45","3556","","","","-7","","","","","","","","heartS.png","2000","-7",""
"html-keyboard-response","506","1373870","0.0-46.45-2.45","null","","","","","","","null","","","","","","","",""
"image-selector-fb","507","1376693","0.0-46.46-0.46","2306","pics2/VE3.jpg,pics2/VE5.jpg","","","","","","","true","1","","","sizeS.png","","",""
"image-slider-2AFC","508","1378835","0.0-46.46-1.46","2141","","","","19","","","","","","","","sizeS.png","1563","19",""
"html-keyboard-response","509","1379538","0.0-46.46-2.46","null","","","","","","","null","","","","","","","",""
"image-selector-fb","510","1382024","0.0-46.47-0.47","1972","pics2/FR2.jpg,pics2/FR4.jpg","","","","","","","false","0","","","heartS.png","","",""
"image-slider-2AFC","511","1384085","0.0-46.47-1.47","2060","","","","-4","","","","","","","","heartS.png","1244","-4",""
"html-keyboard-response","512","1384850","0.0-46.47-2.47","null","","","","","","","null","","","","","","","",""
"image-selector-fb","513","1386594","0.0-46.48-0.48","1225","pics2/VE6.jpg,pics2/VE1.jpg","","","","","","","true","1","","","sizeS.png","","",""
"image-slider-2AFC","514","1388648","0.0-46.48-1.48","2053","","","","4","","","","","","","","sizeS.png","1642","4",""
"html-keyboard-response","515","1389465","0.0-46.48-2.48","null","","","","","","","null","","","","","","","",""
"image-selector-fb","516","1391968","0.0-46.49-0.49","1988","pics2/VE6.jpg,pics2/FR5.jpg","","","","","","","true","1","","","heartS.png","","",""
"image-slider-2AFC","517","1393768","0.0-46.49-1.49","1799","","","","2","","","","","","","","heartS.png","1070","2",""
"html-keyboard-response","518","1394620","0.0-46.49-2.49","null","","","","","","","null","","","","","","","",""
"image-selector-fb","519","1396784","0.0-46.50-0.50","1648","pics2/VE3.jpg,pics2/FR1.jpg","","","","","","","true","1","","","sizeS.png","","",""
"image-slider-2AFC","520","1399560","0.0-46.50-1.50","2776","","","","4","","","","","","","","heartS.png","1505","4",""
"html-keyboard-response","521","1400268","0.0-46.50-2.50","null","","","","","","","null","","","","","","","",""
"image-selector-fb","522","1403277","0.0-46.51-0.51","null","pics2/FR4.jpg,pics2/VE5.jpg","","","","","","","false","null","","","noS.png","","",""
"image-slider-2AFC","523","1407496","0.0-46.51-1.51","4218","","","","18","","","","","","","","sizeS.png","2925,3719","3,18",""
"html-keyboard-response","524","1408259","0.0-46.51-2.51","null","","","","","","","null","","","","","","","",""
"image-selector-fb","525","1410149","0.0-46.52-0.52","1374","pics2/FR6.jpg,pics2/VE3.jpg","","","","","","","true","1","","","sizeS.png","","",""
"image-slider-2AFC","526","1412438","0.0-46.52-1.52","2286","","","","26","","","","","","","","sizeS.png","1606","26",""
"html-keyboard-response","527","1413140","0.0-46.52-2.52","null","","","","","","","null","","","","","","","",""
"image-selector-fb","528","1416164","0.0-46.53-0.53","null","pics2/FR4.jpg,pics2/VE3.jpg","","","","","","","false","null","","","noS.png","","",""
"image-slider-2AFC","529","1418952","0.0-46.53-1.53","2784","","","","-6","","","","","","","","heartS.png","2141","-6",""
"html-keyboard-response","530","1419661","0.0-46.53-2.53","null","","","","","","","null","","","","","","","",""
"image-selector-fb","531","1421902","0.0-46.54-0.54","1738","pics2/FR4.jpg,pics2/FR2.jpg","","","","","","","true","1","","","sizeS.png","","",""
"image-slider-2AFC","532","1423710","0.0-46.54-1.54","1804","","","","8","","","","","","","","heartS.png","1335","8",""
"html-keyboard-response","533","1424527","0.0-46.54-2.54","null","","","","","","","null","","","","","","","",""
"image-selector-fb","534","1427544","0.0-46.55-0.55","null","pics2/FR2.jpg,pics2/FR1.jpg","","","","","","","false","null","","","noS.png","","",""
"image-slider-2AFC","535","1429394","0.0-46.55-1.55","1847","","","","5","","","","","","","","sizeS.png","1363","5",""
"html-keyboard-response","536","1430124","0.0-46.55-2.55","null","","","","","","","null","","","","","","","",""
"image-selector-fb","537","1432954","0.0-46.56-0.56","2324","pics2/VE3.jpg,pics2/FR3.jpg","","","","","","","false","0","","","sizeS.png","","",""
"image-slider-2AFC","538","1434485","0.0-46.56-1.56","1527","","","","-12","","","","","","","","sizeS.png","977","-12",""
"html-keyboard-response","539","1435352","0.0-46.56-2.56","null","","","","","","","null","","","","","","","",""
"image-selector-fb","540","1437115","0.0-46.57-0.57","1244","pics2/VE4.jpg,pics2/VE6.jpg","","","","","","","false","0","","","sizeS.png","","",""
"image-slider-2AFC","541","1439866","0.0-46.57-1.57","2748","","","","-80","","","","","","","","sizeS.png","1084","-80",""
"html-keyboard-response","542","1440633","0.0-46.57-2.57","null","","","","","","","null","","","","","","","",""
"image-selector-fb","543","1443120","0.0-46.58-0.58","1981","pics2/FR5.jpg,pics2/VE5.jpg","","","","","","","false","0","","","heartS.png","","",""
"image-slider-2AFC","544","1445124","0.0-46.58-1.58","2000","","","","-10","","","","","","","","sizeS.png","1268","-10",""
"html-keyboard-response","545","1445929","0.0-46.58-2.58","null","","","","","","","null","","","","","","","",""
"image-selector-fb","546","1447711","0.0-46.59-0.59","1264","pics2/FR3.jpg,pics2/VE4.jpg","","","","","","","true","1","","","sizeS.png","","",""
"image-slider-2AFC","547","1449950","0.0-46.59-1.59","2235","","","","82","","","","","","","","sizeS.png","1258","82",""
"html-keyboard-response","548","1450764","0.0-46.59-2.59","null","","","","","","","null","","","","","","","",""
"image-selector-fb","549","1453537","0.0-46.60-0.60","2252","pics2/FR2.jpg,pics2/FR6.jpg","","","","","","","false","0","","","heartS.png","","",""
"image-slider-2AFC","550","1457375","0.0-46.60-1.60","3835","","","","-11","","","","","","","","sizeS.png","3069","-11",""
"html-keyboard-response","551","1458093","0.0-46.60-2.60","null","","","","","","","null","","","","","","","",""
"image-selector-fb","552","1461125","0.0-46.61-0.61","null","pics2/SA5.jpg,pics2/VE1.jpg","","","","","","","false","null","","","noS.png","","",""
"image-slider-2AFC","553","1464336","0.0-46.61-1.61","3207","","","","-10","","","","","","","","heartS.png","2436","-10",""
"html-keyboard-response","554","1465090","0.0-46.61-2.61","null","","","","","","","null","","","","","","","",""
"image-selector-fb","555","1467859","0.0-46.62-0.62","2262","pics2/VE4.jpg,pics2/FR1.jpg","","","","","","","false","0","","","heartS.png","","",""
"image-slider-2AFC","556","1472863","0.0-46.62-1.62","null","","","","null","","","","","","","","sizeS.png","","",""
"html-keyboard-response","557","1473616","0.0-46.62-2.62","null","","","","","","","null","","","","","","","",""
"image-selector-fb","558","1477068","0.0-46.63-0.63","2941","pics2/FR3.jpg,pics2/FR1.jpg","","","","","","","false","0","","","heartS.png","","",""
"image-slider-2AFC","559","1479708","0.0-46.63-1.63","2638","","","","-61","","","","","","","","heartS.png","1815","-61",""
"html-keyboard-response","560","1480510","0.0-46.63-2.63","null","","","","","","","null","","","","","","","",""
"image-selector-fb","561","1482619","0.0-46.64-0.64","1593","pics2/VE4.jpg,pics2/FR3.jpg","","","","","","","true","1","","","heartS.png","","",""
"image-slider-2AFC","562","1484083","0.0-46.64-1.64","1462","","","","65","","","","","","","","heartS.png","841","65",""
"html-keyboard-response","563","1484800","0.0-46.64-2.64","null","","","","","","","null","","","","","","","",""
"image-selector-fb","564","1487817","0.0-46.65-0.65","null","pics2/FR6.jpg,pics2/VE3.jpg","","","","","","","false","null","","","noS.png","","",""
"image-slider-2AFC","565","1490039","0.0-46.65-1.65","2220","","","","39","","","","","","","","sizeS.png","1491","39",""
"html-keyboard-response","566","1490911","0.0-46.65-2.65","null","","","","","","","null","","","","","","","",""
"pavlovia","567","1490924","0.0-47.0","","","","","","","","","","","","","","","",""
"html-keyboard-response","568","1495932","0.0-48.0","null","<div style='width: 700px;'> <font size=6><b>SHORT BREAK</font></b><br><br><i> Please wait 5 seconds to continue</i></div> ","","","","","","null","","","","","","","",""
"pavlovia","569","1495934","0.0-49.0","","","","","","","","","","","","","","","",""
"html-button-response","570","1499005","0.0-50.0","3070","<div style='width: 700px;'> <font size=6><b>BLOCK 3</font></b><br><br>Press the button whenever you feel ready to start the third and final block</div>","0","","","","","","","","","","","","",""
"image-selector-fb","571","1501359","0.0-51.0-0.0","1848","pics2/VE6.jpg,pics2/FR4.jpg","","","","","","","true","1","","","sizeS.png","","",""
"image-slider-2AFC","572","1503000","0.0-51.0-1.0","1640","","","","8","","","","","","","","sizeS.png","1077","8",""
"html-keyboard-response","573","1503768","0.0-51.0-2.0","null","","","","","","","null","","","","","","","",""
"image-selector-fb","574","1506791","0.0-51.1-0.1","null","pics2/VE6.jpg,pics2/FR6.jpg","","","","","","","false","null","","","noS.png","","",""
"image-slider-2AFC","575","1509202","0.0-51.1-1.1","2408","","","","-14","","","","","","","","sizeS.png","1853","-14",""
"html-keyboard-response","576","1510068","0.0-51.1-2.1","null","","","","","","","null","","","","","","","",""
"image-selector-fb","577","1513099","0.0-51.2-0.2","null","pics2/VE4.jpg,pics2/VE3.jpg","","","","","","","false","null","","","noS.png","","",""
"image-slider-2AFC","578","1514999","0.0-51.2-1.2","1898","","","","-19","","","","","","","","heartS.png","1284","-19",""
"html-keyboard-response","579","1515756","0.0-51.2-2.2","null","","","","","","","null","","","","","","","",""
"image-selector-fb","580","1518775","0.0-51.3-0.3","null","pics2/VE1.jpg,pics2/VE5.jpg","","","","","","","false","null","","","noS.png","","",""
"image-slider-2AFC","581","1521281","0.0-51.3-1.3","2502","","","","19","","","","","","","","sizeS.png","1975","19",""
"html-keyboard-response","582","1522086","0.0-51.3-2.3","null","","","","","","","null","","","","","","","",""
"image-selector-fb","583","1524275","0.0-51.4-0.4","1683","pics2/SA5.jpg,pics2/VE4.jpg","","","","","","","true","1","","","sizeS.png","","",""
"image-slider-2AFC","584","1527207","0.0-51.4-1.4","2929","","","","11","","","","","","","","heartS.png","2103","11",""
"html-keyboard-response","585","1527924","0.0-51.4-2.4","null","","","","","","","null","","","","","","","",""
"image-selector-fb","586","1530397","0.0-51.5-0.5","1968","pics2/SA5.jpg,pics2/FR6.jpg","","","","","","","true","1","","","heartS.png","","",""
"image-slider-2AFC","587","1532801","0.0-51.5-1.5","2401","","","","15","","","","","","","","sizeS.png","1391","15",""
"html-keyboard-response","588","1533518","0.0-51.5-2.5","null","","","","","","","null","","","","","","","",""
"image-selector-fb","589","1535300","0.0-51.6-0.6","1277","pics2/FR2.jpg,pics2/FR3.jpg","","","","","","","true","1","","","heartS.png","","",""
"image-slider-2AFC","590","1538505","0.0-51.6-1.6","3201","","","","32","","","","","","","","heartS.png","2178","32",""
"html-keyboard-response","591","1539369","0.0-51.6-2.6","null","","","","","","","null","","","","","","","",""
"image-selector-fb","592","1541874","0.0-51.7-0.7","1990","pics2/SA5.jpg,pics2/VE6.jpg","","","","","","","false","0","","","sizeS.png","","",""
"image-slider-2AFC","593","1544216","0.0-51.7-1.7","2338","","","","-27","","","","","","","","sizeS.png","1471","-27",""
"html-keyboard-response","594","1544928","0.0-51.7-2.7","null","","","","","","","null","","","","","","","",""
"image-selector-fb","595","1546539","0.0-51.8-0.8","1105","pics2/FR6.jpg,pics2/VE4.jpg","","","","","","","true","1","","","sizeS.png","","",""
"image-slider-2AFC","596","1549169","0.0-51.8-1.8","2626","","","","49","","","","","","","","sizeS.png","1547","49",""
"html-keyboard-response","597","1550028","0.0-51.8-2.8","null","","","","","","","null","","","","","","","",""
"image-selector-fb","598","1553050","0.0-51.9-0.9","null","pics2/FR5.jpg,pics2/FR3.jpg","","","","","","","false","null","","","noS.png","","",""
"image-slider-2AFC","599","1556331","0.0-51.9-1.9","3278","","","","-10","","","","","","","","sizeS.png","2623","-10",""
"html-keyboard-response","600","1557060","0.0-51.9-2.9","null","","","","","","","null","","","","","","","",""
"image-selector-fb","601","1559211","0.0-51.10-0.10","1644","pics2/FR3.jpg,pics2/SA5.jpg","","","","","","","true","1","","","sizeS.png","","",""
"image-slider-2AFC","602","1561847","0.0-51.10-1.10","2632","","","","-17","","","","","","","","heartS.png","1855","-17",""
"html-keyboard-response","603","1562614","0.0-51.10-2.10","null","","","","","","","null","","","","","","","",""
"image-selector-fb","604","1565694","0.0-51.11-0.11","2559","pics2/VE4.jpg,pics2/FR6.jpg","","","","","","","false","0","","","heartS.png","","",""
"image-slider-2AFC","605","1569029","0.0-51.11-1.11","3332","","","","-76","","","","","","","","sizeS.png","2279","-76",""
"html-keyboard-response","606","1569731","0.0-51.11-2.11","null","","","","","","","null","","","","","","","",""
"image-selector-fb","607","1571591","0.0-51.12-0.12","1356","pics2/FR4.jpg,pics2/VE5.jpg","","","","","","","false","0","","","heartS.png","","",""
"image-slider-2AFC","608","1573984","0.0-51.12-1.12","2389","","","","12","","","","","","","","sizeS.png","1438","12",""
"html-keyboard-response","609","1574801","0.0-51.12-2.12","null","","","","","","","null","","","","","","","",""
"image-selector-fb","610","1577358","0.0-51.13-0.13","2050","pics2/VE3.jpg,pics2/FR4.jpg","","","","","","","false","0","","","sizeS.png","","",""
"image-slider-2AFC","611","1580118","0.0-51.13-1.13","2757","","","","-27","","","","","","","","sizeS.png","1885","-27",""
"html-keyboard-response","612","1580885","0.0-51.13-2.13","null","","","","","","","null","","","","","","","",""
"image-selector-fb","613","1584316","0.0-51.14-0.14","2926","pics2/FR6.jpg,pics2/FR2.jpg","","","","","","","true","1","","","sizeS.png","","",""
"image-slider-2AFC","614","1589273","0.0-51.14-1.14","4956","","","","14","","","","","","","","heartS.png","3655","14",""
"html-keyboard-response","615","1590096","0.0-51.14-2.14","null","","","","","","","null","","","","","","","",""
"image-selector-fb","616","1592706","0.0-51.15-0.15","2090","pics2/FR5.jpg,pics2/FR3.jpg","","","","","","","false","0","","","sizeS.png","","",""
"image-slider-2AFC","617","1595229","0.0-51.15-1.15","2521","","","","-12","","","","","","","","sizeS.png","1728","-12",""
"html-keyboard-response","618","1596096","0.0-51.15-2.15","null","","","","","","","null","","","","","","","",""
"image-selector-fb","619","1598027","0.0-51.16-0.16","1414","pics2/VE3.jpg,pics2/FR5.jpg","","","","","","","false","0","","","sizeS.png","","",""
"image-slider-2AFC","620","1600541","0.0-51.16-1.16","2510","","","","5","","","","","","","","heartS.png","1719","5",""
"html-keyboard-response","621","1601408","0.0-51.16-2.16","null","","","","","","","null","","","","","","","",""
"image-selector-fb","622","1604039","0.0-51.17-0.17","2113","pics2/VE6.jpg,pics2/FR1.jpg","","","","","","","true","1","","","heartS.png","","",""
"image-slider-2AFC","623","1606120","0.0-51.17-1.17","2078","","","","5","","","","","","","","heartS.png","1330","5",""
"html-keyboard-response","624","1606976","0.0-51.17-2.17","null","","","","","","","null","","","","","","","",""
"image-selector-fb","625","1609985","0.0-51.18-0.18","null","pics2/FR3.jpg,pics2/FR6.jpg","","","","","","","false","null","","","noS.png","","",""
"image-slider-2AFC","626","1613523","0.0-51.18-1.18","3535","","","","-4","","","","","","","","heartS.png","2835","-4",""
"html-keyboard-response","627","1614238","0.0-51.18-2.18","null","","","","","","","null","","","","","","","",""
"image-selector-fb","628","1616262","0.0-51.19-0.19","1506","pics2/FR6.jpg,pics2/VE1.jpg","","","","","","","false","0","","","sizeS.png","","",""
"image-slider-2AFC","629","1618883","0.0-51.19-1.19","2618","","","","-3","","","","","","","","sizeS.png","1875","-3",""
"html-keyboard-response","630","1619735","0.0-51.19-2.19","null","","","","","","","null","","","","","","","",""
"image-selector-fb","631","1621694","0.0-51.20-0.20","1443","pics2/SA5.jpg,pics2/FR1.jpg","","","","","","","false","0","","","heartS.png","","",""
"image-slider-2AFC","632","1624304","0.0-51.20-1.20","2608","","","","-38","","","","","","","","sizeS.png","1736","-38",""
"html-keyboard-response","633","1625082","0.0-51.20-2.20","null","","","","","","","null","","","","","","","",""
"image-selector-fb","634","1627774","0.0-51.21-0.21","2172","pics2/VE1.jpg,pics2/FR2.jpg","","","","","","","true","1","","","heartS.png","","",""
"image-slider-2AFC","635","1630711","0.0-51.21-1.21","2933","","","","5","","","","","","","","sizeS.png","2124","5",""
"html-keyboard-response","636","1631578","0.0-51.21-2.21","null","","","","","","","null","","","","","","","",""
"image-selector-fb","637","1634585","0.0-51.22-0.22","null","pics2/FR5.jpg,pics2/FR1.jpg","","","","","","","false","null","","","noS.png","","",""
"image-slider-2AFC","638","1638766","0.0-51.22-1.22","4177","","","","7","","","","","","","","heartS.png","3701","7",""
"html-keyboard-response","639","1639628","0.0-51.22-2.22","null","","","","","","","null","","","","","","","",""
"image-selector-fb","640","1642658","0.0-51.23-0.23","null","pics2/VE6.jpg,pics2/SA5.jpg","","","","","","","false","null","","","noS.png","","",""
"image-slider-2AFC","641","1645560","0.0-51.23-1.23","2896","","","","4","","","","","","","","sizeS.png","2224","4",""
"html-keyboard-response","642","1646433","0.0-51.23-2.23","null","","","","","","","null","","","","","","","",""
"image-selector-fb","643","1649451","0.0-51.24-0.24","2513","pics2/FR5.jpg,pics2/FR2.jpg","","","","","","","true","1","","","sizeS.png","","",""
"image-slider-2AFC","644","1651588","0.0-51.24-1.24","2133","","","","3","","","","","","","","heartS.png","1433","3",""
"html-keyboard-response","645","1652356","0.0-51.24-2.24","null","","","","","","","null","","","","","","","",""
"image-selector-fb","646","1655366","0.0-51.25-0.25","null","pics2/VE4.jpg,pics2/FR2.jpg","","","","","","","false","null","","","noS.png","","",""
"image-slider-2AFC","647","1657464","0.0-51.25-1.25","2094","","","","-6","","","","","","","","heartS.png","1459","-6",""
"html-keyboard-response","648","1658180","0.0-51.25-2.25","null","","","","","","","null","","","","","","","",""
"image-selector-fb","649","1660607","0.0-51.26-0.26","1920","pics2/VE3.jpg,pics2/SA5.jpg","","","","","","","true","1","","","sizeS.png","","",""
"image-slider-2AFC","650","1662179","0.0-51.26-1.26","1570","","","","8","","","","","","","","heartS.png","920","8",""
"html-keyboard-response","651","1663042","0.0-51.26-2.26","null","","","","","","","null","","","","","","","",""
"image-selector-fb","652","1666069","0.0-51.27-0.27","null","pics2/FR1.jpg,pics2/VE3.jpg","","","","","","","false","null","","","noS.png","","",""
"image-slider-2AFC","653","1668460","0.0-51.27-1.27","2387","","","","-4","","","","","","","","heartS.png","1838","-4",""
"html-keyboard-response","654","1669316","0.0-51.27-2.27","null","","","","","","","null","","","","","","","",""
"image-selector-fb","655","1672330","0.0-51.28-0.28","null","pics2/SA5.jpg,pics2/VE5.jpg","","","","","","","false","null","","","noS.png","","",""
"image-slider-2AFC","656","1675180","0.0-51.28-1.28","2846","","","","-3","","","","","","","","heartS.png","2312","-3",""
"html-keyboard-response","657","1675951","0.0-51.28-2.28","null","","","","","","","null","","","","","","","",""
"image-selector-fb","658","1678443","0.0-51.29-0.29","1987","pics2/FR2.jpg,pics2/VE3.jpg","","","","","","","false","0","","","heartS.png","","",""
"image-slider-2AFC","659","1680334","0.0-51.29-1.29","1888","","","","-3","","","","","","","","heartS.png","1376","-3",""
"html-keyboard-response","660","1681197","0.0-51.29-2.29","null","","","","","","","null","","","","","","","",""
"image-selector-fb","661","1683639","0.0-51.30-0.30","1936","pics2/SA5.jpg,pics2/VE1.jpg","","","","","","","false","0","","","sizeS.png","","",""
"image-slider-2AFC","662","1685488","0.0-51.30-1.30","1846","","","","-3","","","","","","","","heartS.png","1326","-3",""
"html-keyboard-response","663","1686198","0.0-51.30-2.30","null","","","","","","","null","","","","","","","",""
"image-selector-fb","664","1689219","0.0-51.31-0.31","null","pics2/SA5.jpg,pics2/VE3.jpg","","","","","","","false","null","","","noS.png","","",""
"image-slider-2AFC","665","1691689","0.0-51.31-1.31","2467","","","","-32","","","","","","","","sizeS.png","1839","-32",""
"html-keyboard-response","666","1692406","0.0-51.31-2.31","null","","","","","","","null","","","","","","","",""
"image-selector-fb","667","1695420","0.0-51.32-0.32","null","pics2/VE3.jpg,pics2/VE5.jpg","","","","","","","false","null","","","noS.png","","",""
"image-slider-2AFC","668","1698291","0.0-51.32-1.32","2870","","","","12","","","","","","","","heartS.png","2106","12",""
"html-keyboard-response","669","1698996","0.0-51.32-2.32","null","","","","","","","null","","","","","","","",""
"image-selector-fb","670","1702028","0.0-51.33-0.33","null","pics2/FR6.jpg,pics2/VE5.jpg","","","","","","","false","null","","","noS.png","","",""
"image-slider-2AFC","671","1704453","0.0-51.33-1.33","2422","","","","-4","","","","","","","","heartS.png","1626","-4",""
"html-keyboard-response","672","1705170","0.0-51.33-2.33","null","","","","","","","null","","","","","","","",""
"image-selector-fb","673","1707627","0.0-51.34-0.34","1945","pics2/VE1.jpg,pics2/FR4.jpg","","","","","","","true","1","","","heartS.png","","",""
"image-slider-2AFC","674","1710162","0.0-51.34-1.34","2533","","","","7","","","","","","","","heartS.png","1950","7",""
"html-keyboard-response","675","1710930","0.0-51.34-2.34","null","","","","","","","null","","","","","","","",""
"image-selector-fb","676","1712738","0.0-51.35-0.35","1301","pics2/FR6.jpg,pics2/FR5.jpg","","","","","","","true","1","","","sizeS.png","","",""
"image-slider-2AFC","677","1714892","0.0-51.35-1.35","2152","","","","-6","","","","","","","","heartS.png","1632","-6",""
"html-keyboard-response","678","1715664","0.0-51.35-2.35","null","","","","","","","null","","","","","","","",""
"image-selector-fb","679","1718504","0.0-51.36-0.36","2329","pics2/VE6.jpg,pics2/SA5.jpg","","","","","","","false","0","","","heartS.png","","",""
"image-slider-2AFC","680","1721042","0.0-51.36-1.36","2535","","","","-6","","","","","","","","heartS.png","1986","-6",""
"html-keyboard-response","681","1721861","0.0-51.36-2.36","null","","","","","","","null","","","","","","","",""
"image-selector-fb","682","1724114","0.0-51.37-0.37","1748","pics2/FR1.jpg,pics2/FR3.jpg","","","","","","","false","0","","","sizeS.png","","",""
"image-slider-2AFC","683","1727191","0.0-51.37-1.37","3075","","","","10","","","","","","","","heartS.png","2348","10",""
"html-keyboard-response","684","1727907","0.0-51.37-2.37","null","","","","","","","null","","","","","","","",""
"image-selector-fb","685","1729598","0.0-51.38-0.38","1185","pics2/SA5.jpg,pics2/FR5.jpg","","","","","","","false","0","","","heartS.png","","",""
"image-slider-2AFC","686","1731891","0.0-51.38-1.38","2289","","","","-54","","","","","","","","sizeS.png","1539","-54",""
"html-keyboard-response","687","1732670","0.0-51.38-2.38","null","","","","","","","null","","","","","","","",""
"image-selector-fb","688","1735698","0.0-51.39-0.39","null","pics2/FR5.jpg,pics2/FR6.jpg","","","","","","","false","null","","","noS.png","","",""
"image-slider-2AFC","689","1738807","0.0-51.39-1.39","3106","","","","4","","","","","","","","heartS.png","2607","4",""
"html-keyboard-response","690","1739587","0.0-51.39-2.39","null","","","","","","","null","","","","","","","",""
"image-selector-fb","691","1741952","0.0-51.40-0.40","1858","pics2/VE6.jpg,pics2/FR6.jpg","","","","","","","false","0","","","heartS.png","","",""
"image-slider-2AFC","692","1743679","0.0-51.40-1.40","1723","","","","-3","","","","","","","","heartS.png","1269","-3",""
"html-keyboard-response","693","1744542","0.0-51.40-2.40","null","","","","","","","null","","","","","","","",""
"image-selector-fb","694","1746667","0.0-51.41-0.41","1620","pics2/VE4.jpg,pics2/VE3.jpg","","","","","","","false","0","","","heartS.png","","",""
"image-slider-2AFC","695","1748593","0.0-51.41-1.41","1923","","","","-16","","","","","","","","heartS.png","1182","-16",""
"html-keyboard-response","696","1749419","0.0-51.41-2.41","null","","","","","","","null","","","","","","","",""
"image-selector-fb","697","1750922","0.0-51.42-0.42","996","pics2/FR4.jpg,pics2/FR5.jpg","","","","","","","false","0","","","heartS.png","","",""
"image-slider-2AFC","698","1753377","0.0-51.42-1.42","2451","","","","-46","","","","","","","","heartS.png","1528","-46",""
"html-keyboard-response","699","1754131","0.0-51.42-2.42","null","","","","","","","null","","","","","","","",""
"image-selector-fb","700","1756141","0.0-51.43-0.43","1503","pics2/FR1.jpg,pics2/VE6.jpg","","","","","","","false","0","","","sizeS.png","","",""
"image-slider-2AFC","701","1758354","0.0-51.43-1.43","2210","","","","-17","","","","","","","","sizeS.png","1509","-17",""
"html-keyboard-response","702","1759070","0.0-51.43-2.43","null","","","","","","","null","","","","","","","",""
"image-selector-fb","703","1761217","0.0-51.44-0.44","1629","pics2/FR3.jpg,pics2/FR2.jpg","","","","","","","true","1","","","sizeS.png","","",""
"image-slider-2AFC","704","1763951","0.0-51.44-1.44","2731","","","","-21","","","","","","","","heartS.png","1566","-21",""
"html-keyboard-response","705","1764825","0.0-51.44-2.44","null","","","","","","","null","","","","","","","",""
"image-selector-fb","706","1767846","0.0-51.45-0.45","null","pics2/SA5.jpg,pics2/FR4.jpg","","","","","","","false","null","","","noS.png","","",""
"image-slider-2AFC","707","1769975","0.0-51.45-1.45","2125","","","","-48","","","","","","","","sizeS.png","1542","-48",""
"html-keyboard-response","708","1770690","0.0-51.45-2.45","null","","","","","","","null","","","","","","","",""
"image-selector-fb","709","1773719","0.0-51.46-0.46","null","pics2/VE6.jpg,pics2/VE5.jpg","","","","","","","false","null","","","noS.png","","",""
"image-slider-2AFC","710","1775693","0.0-51.46-1.46","1969","","","","15","","","","","","","","sizeS.png","1477","15",""
