"trial_type","trial_index","time_elapsed","internal_node_id","rt","stimulus","button_pressed","success","response","cat","value","key_press","correct","image_click","first_click_rt","first_click_val","symbol","all_click_rt","all_click_val","view_history"
"pavlovia","0","25","0.0-0.0","","","","","","","","","","","","","","","",""
"html-button-response","1","4411","0.0-1.0","4384","<div style='width: 700px; font-size: 150%'><font size='40'>  Welcome to our study!</font><br><br><br> <small> Our experiment is about <i>decision making</i>. You will choose and rate different food items, such as these: <br><br> <div><img src='food_combo2.png', height = '400px'></img></div>","0","","","","","","","","","","","","",""
"html-button-response","2","9690","0.0-2.0","5278","<div style='width: 700px; font-size: 150%'><br><br><br><small> <u><i>This is a multi-part study.</i></u><br><br> In the first part you will rate 24 food items twice.<br><br><div><img src=""rat1.png"" style=""width: 25%""></img></div><br>In the second part (longest) you will make repeated choices and judgements concerning the food items.<br><br><div><img src=""mainx.png"" style=""width: 50%""></img></div><br>In the third and final part, you will rate the items again and answer few short questionnaires.<br><br><div><img src=""rat2.png"" style=""width: 50%""></img></div><br><br>","0","","","","","","","","","","","","",""
"fullscreen","3","13811","0.0-3.0","","","","true","","","","","","","","","","","",""
"html-button-response","4","42888","0.0-4.0","29069","<div style='width: 900px; font-size: 150%;' <font size='20%'> In the first part of the task you will use the mouse to rate food items on <i>2 scales</i> </font></div><br><br><div style='width: 900px'><div style='float: left; width: 50%; margin-right:2.5em'><img src='heartS.png'></img><p class='small' style='text-align: justify'>When you see the heart cue you will rate food items in terms of how much like them/would like to eat them <i>right now</i>. You will rate them on a continuous scale from left (strong dislike) to right (strong liking). Before submitting your rating, try imagining how the item tastes and how much you desire it.<br><br></p></div><div ><img src='sizeS.png'></img><p class='small' style='text-align: justify'>When you see the size cue, you will rate the same food items in terms of their size. The scale goes from left (tiny) to right (very large). You should assess picture size <i><u>relative</i></u> to the white background. <b>Remember:</b> rate the size of the picture, <u>not</u> the size of the item in real life. </p></div><div style='width: 900px'><br><br><b><i>Notice:</b> by starting the rating you agree that your sumbission might be rejected at an early stage and the experiment might end, if your size ratings are not at least modestly related to objective sizes, or if you repeat the same value ratings too many times. If you don't agree, please exit by closing the browser window. </i><br><br><br>","0","","","","","","","","","","","","",""
"html-button-response","5","49092","0.0-5.0","6195","<div><img src='heartS.png'></img></div><br><div style='text-align: justify; width: 700px'>Using the mouse, rate the <b><i>likeness</b></i> of the food items (how much you like them/would like to eat them <i>right now</i>). Far right-end of the scale indicates an item you <i>like a lot</i>. Far left-end indicates an item you <i>dislike a lot</i>. Think about each answer.   <ul><li>Try <b><i>not</b></i> to give identical rating to different items.</li><li>Use the whole scale, and <b><i>not</b></i> just the extremes</ul></div><br>","0","","","","","","","","","","","","",""
"image-slider-response","6","55530","0.0-6.0-0.0-0.0","6411","pics2/SA4.jpg","","","93","SA","","","","","","","","","",""
"image-slider-response","7","59877","0.0-6.0-0.0-0.1","4142","pics2/VE2.jpg","","","36","VE","","","","","","","","","",""
"image-slider-response","8","62913","0.0-6.0-0.0-0.2","2832","pics2/VE4.jpg","","","7","VE","","","","","","","","","",""
"image-slider-response","9","66647","0.0-6.0-0.0-0.3","3529","pics2/VE3.jpg","","","84","VE","","","","","","","","","",""
"image-slider-response","10","69510","0.0-6.0-0.0-0.4","2657","pics2/SA2.jpg","","","41","SA","","","","","","","","","",""
"image-slider-response","11","72162","0.0-6.0-0.0-0.5","2447","pics2/FR3.jpg","","","78","FR","","","","","","","","","",""
"image-slider-response","12","75246","0.0-6.0-0.0-0.6","2878","pics2/FR1.jpg","","","87","FR","","","","","","","","","",""
"image-slider-response","13","80177","0.0-6.0-0.0-0.7","4725","pics2/SA1.jpg","","","77","SA","","","","","","","","","",""
"image-slider-response","14","85413","0.0-6.0-0.0-0.8","5019","pics2/VE6.jpg","","","14","VE","","","","","","","","","",""
"image-slider-response","15","90496","0.0-6.0-0.0-0.9","4874","pics2/SA6.jpg","","","34","SA","","","","","","","","","",""
"image-slider-response","16","91077","0.0-6.0-0.0-0.10","376","pics2/SW4.jpg","","","50","SW","","","","","","","","","",""
"image-slider-response","17","96102","0.0-6.0-0.0-0.11","4820","pics2/FR4.jpg","","","83","FR","","","","","","","","","",""
"image-slider-response","18","100728","0.0-6.0-0.0-0.12","4416","pics2/SA3.jpg","","","77","SA","","","","","","","","","",""
"image-slider-response","19","106714","0.0-6.0-0.0-0.13","5782","pics2/SW1.jpg","","","94","SW","","","","","","","","","",""
"image-slider-response","20","109902","0.0-6.0-0.0-0.14","2984","pics2/VE1.jpg","","","61","VE","","","","","","","","","",""
"image-slider-response","21","112435","0.0-6.0-0.0-0.15","2329","pics2/FR6.jpg","","","72","FR","","","","","","","","","",""
"image-slider-response","22","114900","0.0-6.0-0.0-0.16","2259","pics2/FR5.jpg","","","65","FR","","","","","","","","","",""
"image-slider-response","23","118315","0.0-6.0-0.0-0.17","3210","pics2/SA5.jpg","","","50","SA","","","","","","","","","",""
"image-slider-response","24","120699","0.0-6.0-0.0-0.18","2179","pics2/SW6.jpg","","","69","SW","","","","","","","","","",""
"image-slider-response","25","124220","0.0-6.0-0.0-0.19","3315","pics2/SW2.jpg","","","80","SW","","","","","","","","","",""
"image-slider-response","26","130199","0.0-6.0-0.0-0.20","5773","pics2/SW5.jpg","","","81","SW","","","","","","","","","",""
"image-slider-response","27","133039","0.0-6.0-0.0-0.21","2635","pics2/SW3.jpg","","","81","SW","","","","","","","","","",""
"image-slider-response","28","136437","0.0-6.0-0.0-0.22","3193","pics2/VE5.jpg","","","38","VE","","","","","","","","","",""
"image-slider-response","29","139056","0.0-6.0-0.0-0.23","2413","pics2/FR2.jpg","","","65","FR","","","","","","","","","",""
"html-button-response","30","140784","0.0-7.0","1520","<div style='width: 900px;'> <font size = 6><b> End of the first rating</b><br><br>","0","","","","","","","","","","","","",""
"html-button-response","31","159455","0.0-9.0","18664","<div ><img src='sizeS.png'></img></div><br><div style='text-align: justify; width: 700px'> Using the mouse, rate the <b><i>size</b></i> of the food items <b><i> relative to the white background.</b></i> Right-end of the scale indicates a <i>very large item</i>, which covers a large portion of the white rectangle. Left-end indicates a <i>very tiny</i> item which covers a tiny portion of the white rectangle.<br><br><i><u>Remember</i></u>: everything that is not the white background also contributes to item size (e.g. packing, plates, ect.)<br><br> Please keep in mind that if the accuracy of ratings do not allign well with actual sizes, the experiment will end.  As a result it will be consider incomplete and therefore no payment would be made. Good luck!<br><br></div><br>","0","","","","","","","","","","","","",""
"html-button-response","32","164538","0.0-10.0","5079","<div ><img src='sizeS.png'></img></div><br><b><font size=6>Examples of items that you might encounter</b><br><div style='width: 750px;'><div style='width: 33.33%; float:left'><br><br><br><i>Large Item</i><br><br><img src='large.jpg', width=200px></img></div><div style='float:right'><br><br><br><i>Small Item</i><br><br><img src='small.jpg', width=200px></img></div><div ><br><br><br><i>Medium Item</i><br><br><img src='med.jpg', width=200px></img></div></div><br><br>","0","","","","","","","","","","","","",""
"image-slider-response","33","172413","0.0-11.0-0.0-0.0","7864","pics2/FR3.jpg","","","67","null","","","","","","","","","",""
"image-slider-response","34","176425","0.0-11.0-0.0-0.1","3805","pics2/SW4.jpg","","","64","null","","","","","","","","","",""
"image-slider-response","35","179791","0.0-11.0-0.0-0.2","3161","pics2/FR1.jpg","","","71","null","","","","","","","","","",""
"image-slider-response","36","183108","0.0-11.0-0.0-0.3","3112","pics2/SW6.jpg","","","36","null","","","","","","","","","",""
"image-slider-response","37","185759","0.0-11.0-0.0-0.4","2446","pics2/FR4.jpg","","","43","null","","","","","","","","","",""
"image-slider-response","38","190475","0.0-11.0-0.0-0.5","4512","pics2/FR6.jpg","","","36","null","","","","","","","","","",""
"image-slider-response","39","193128","0.0-11.0-0.0-0.6","2448","pics2/SA5.jpg","","","35","null","","","","","","","","","",""
"image-slider-response","40","196856","0.0-11.0-0.0-0.7","3522","pics2/FR2.jpg","","","80","null","","","","","","","","","",""
"image-slider-response","41","202115","0.0-11.0-0.0-0.8","5050","pics2/SA2.jpg","","","52","null","","","","","","","","","",""
"image-slider-response","42","205662","0.0-11.0-0.0-0.9","3340","pics2/SW3.jpg","","","57","null","","","","","","","","","",""
"image-slider-response","43","209311","0.0-11.0-0.0-0.10","3443","pics2/FR5.jpg","","","64","null","","","","","","","","","",""
"image-slider-response","44","212729","0.0-11.0-0.0-0.11","3212","pics2/SA1.jpg","","","85","null","","","","","","","","","",""
"image-slider-response","45","216130","0.0-11.0-0.0-0.12","3196","pics2/SA3.jpg","","","67","null","","","","","","","","","",""
"image-slider-response","46","219215","0.0-11.0-0.0-0.13","2880","pics2/SW1.jpg","","","84","null","","","","","","","","","",""
"image-slider-response","47","222531","0.0-11.0-0.0-0.14","3110","pics2/VE1.jpg","","","71","null","","","","","","","","","",""
"image-slider-response","48","227115","0.0-11.0-0.0-0.15","4380","pics2/VE4.jpg","","","49","null","","","","","","","","","",""
"image-slider-response","49","230265","0.0-11.0-0.0-0.16","2947","pics2/VE5.jpg","","","68","null","","","","","","","","","",""
"image-slider-response","50","233080","0.0-11.0-0.0-0.17","2609","pics2/VE6.jpg","","","68","null","","","","","","","","","",""
"image-slider-response","51","236002","0.0-11.0-0.0-0.18","2712","pics2/VE3.jpg","","","69","null","","","","","","","","","",""
"image-slider-response","52","240116","0.0-11.0-0.0-0.19","3905","pics2/SA6.jpg","","","63","null","","","","","","","","","",""
"image-slider-response","53","243150","0.0-11.0-0.0-0.20","2828","pics2/VE2.jpg","","","67","null","","","","","","","","","",""
"image-slider-response","54","245900","0.0-11.0-0.0-0.21","2545","pics2/SA4.jpg","","","32","null","","","","","","","","","",""
"image-slider-response","55","248733","0.0-11.0-0.0-0.22","2628","pics2/SW2.jpg","","","87","null","","","","","","","","","",""
"image-slider-response","56","251552","0.0-11.0-0.0-0.23","2614","pics2/SW5.jpg","","","82","null","","","","","","","","","",""
"html-button-response","57","253049","0.0-12.0","1293","<div style='width: 900px;'> <font size = 6><b> End of the second rating</b><br><br>","0","","","","","","","","","","","","",""
"html-button-response","58","257035","0.0-13.0","3983","<div style='width: 900px;'>Now please rate the items for the second time. <br><br>This is not a memory test - you don't need to be consistent with your previous ratings. Just as before, try to make accurate judgements.<br><br>","0","","","","","","","","","","","","",""
"html-button-response","59","260248","0.0-14.0","3207","<div><img src='heartS.png'></img></div><br><div style='text-align: justify; width: 700px'>Using the mouse, rate the <b><i>likeness</b></i> of the food items (how much you like them/would like to eat them <i>right now</i>). Far right-end of the scale indicates an item you <i>like a lot</i>. Far left-end indicates an item you <i>dislike a lot</i>. Think about each answer.   <ul><li>Try <b><i>not</b></i> to give identical rating to different items.</li><li>Use the whole scale, and <b><i>not</b></i> just the extremes</ul></div><br>","0","","","","","","","","","","","","",""
"image-slider-response","60","264919","0.0-15.0-0.0-0.0","4667","pics2/SW5.jpg","","","87","SW","","","","","","","","","",""
"image-slider-response","61","268701","0.0-15.0-0.0-0.1","3577","pics2/SW3.jpg","","","72","SW","","","","","","","","","",""
"image-slider-response","62","275628","0.0-15.0-0.0-0.2","6723","pics2/FR1.jpg","","","89","FR","","","","","","","","","",""
"image-slider-response","63","278470","0.0-15.0-0.0-0.3","2637","pics2/VE5.jpg","","","68","VE","","","","","","","","","",""
"image-slider-response","64","281404","0.0-15.0-0.0-0.4","2728","pics2/VE3.jpg","","","60","VE","","","","","","","","","",""
"image-slider-response","65","284036","0.0-15.0-0.0-0.5","2420","pics2/FR4.jpg","","","62","FR","","","","","","","","","",""
"image-slider-response","66","288889","0.0-15.0-0.0-0.6","4647","pics2/SW1.jpg","","","100","SW","","","","","","","","","",""
"image-slider-response","67","292055","0.0-15.0-0.0-0.7","2961","pics2/SA5.jpg","","","43","SA","","","","","","","","","",""
"image-slider-response","68","294740","0.0-15.0-0.0-0.8","2480","pics2/SA6.jpg","","","44","SA","","","","","","","","","",""
"image-slider-response","69","298138","0.0-15.0-0.0-0.9","3193","pics2/FR2.jpg","","","75","FR","","","","","","","","","",""
"image-slider-response","70","303447","0.0-15.0-0.0-0.10","5098","pics2/FR5.jpg","","","76","FR","","","","","","","","","",""
"image-slider-response","71","306090","0.0-15.0-0.0-0.11","2436","pics2/SW2.jpg","","","100","SW","","","","","","","","","",""
"image-slider-response","72","311474","0.0-15.0-0.0-0.12","5179","pics2/SA2.jpg","","","24","SA","","","","","","","","","",""
"image-slider-response","73","314623","0.0-15.0-0.0-0.13","2943","pics2/VE2.jpg","","","29","VE","","","","","","","","","",""
"image-slider-response","74","317576","0.0-15.0-0.0-0.14","2747","pics2/VE6.jpg","","","4","VE","","","","","","","","","",""
"image-slider-response","75","320458","0.0-15.0-0.0-0.15","2674","pics2/SA1.jpg","","","27","SA","","","","","","","","","",""
"image-slider-response","76","326623","0.0-15.0-0.0-0.16","5960","pics2/SA4.jpg","","","99","SA","","","","","","","","","",""
"image-slider-response","77","329246","0.0-15.0-0.0-0.17","2418","pics2/SA3.jpg","","","73","SA","","","","","","","","","",""
"image-slider-response","78","335647","0.0-15.0-0.0-0.18","6191","pics2/SW6.jpg","","","97","SW","","","","","","","","","",""
"image-slider-response","79","340828","0.0-15.0-0.0-0.19","4974","pics2/VE4.jpg","","","14","VE","","","","","","","","","",""
"image-slider-response","80","343962","0.0-15.0-0.0-0.20","2930","pics2/SW4.jpg","","","72","SW","","","","","","","","","",""
"image-slider-response","81","346563","0.0-15.0-0.0-0.21","2396","pics2/FR3.jpg","","","98","FR","","","","","","","","","",""
"image-slider-response","82","349558","0.0-15.0-0.0-0.22","2790","pics2/FR6.jpg","","","90","FR","","","","","","","","","",""
"image-slider-response","83","353996","0.0-15.0-0.0-0.23","4233","pics2/VE1.jpg","","","27","VE","","","","","","","","","",""
"call-function","84","354229","0.0-16.0","","","","","","","","","","","","","","","",""
"call-function","85","354235","0.0-17.0","","","","","","","","","","","","","","","",""
"html-button-response","86","355993","0.0-18.0","1757","<div style='width: 900px;'> <font size = 6><b> End of the first rating</b><br><br>","0","","","","","","","","","","","","",""
"html-button-response","87","359367","0.0-19.0","3363","<div ><img src='sizeS.png'></img></div><br><div style='text-align: justify; width: 700px'> Using the mouse, rate the <b><i>size</b></i> of the food items <b><i> relative to the white background.</b></i> Right-end of the scale indicates a <i>very large item</i>, which covers a large portion of the white rectangle. Left-end indicates a <i>very tiny</i> item which covers a tiny portion of the white rectangle.<br><br><i><u>Remember</i></u>: everything that is not the white background also contributes to item size (e.g. packing, plates, ect.)<br><br> Please keep in mind that if the accuracy of ratings do not allign well with actual sizes, the experiment will end.  As a result it will be consider incomplete and therefore no payment would be made. Good luck!<br><br></div><br>","0","","","","","","","","","","","","",""
"image-slider-response","88","369082","0.0-20.0-0.0-0.0","9709","pics2/SA1.jpg","","","82","null","","","","","","","","","",""
"image-slider-response","89","371615","0.0-20.0-0.0-0.1","2327","pics2/FR4.jpg","","","33","null","","","","","","","","","",""
"image-slider-response","90","374166","0.0-20.0-0.0-0.2","2347","pics2/SW1.jpg","","","95","null","","","","","","","","","",""
"image-slider-response","91","376537","0.0-20.0-0.0-0.3","2160","pics2/SA2.jpg","","","19","null","","","","","","","","","",""
"image-slider-response","92","380033","0.0-20.0-0.0-0.4","3289","pics2/SA3.jpg","","","82","null","","","","","","","","","",""
"image-slider-response","93","382903","0.0-20.0-0.0-0.5","2664","pics2/SW3.jpg","","","70","null","","","","","","","","","",""
"image-slider-response","94","386201","0.0-20.0-0.0-0.6","3093","pics2/VE1.jpg","","","100","null","","","","","","","","","",""
"image-slider-response","95","388583","0.0-20.0-0.0-0.7","2178","pics2/VE3.jpg","","","77","null","","","","","","","","","",""
"image-slider-response","96","390649","0.0-20.0-0.0-0.8","1861","pics2/VE2.jpg","","","78","null","","","","","","","","","",""
"image-slider-response","97","393099","0.0-20.0-0.0-0.9","2244","pics2/FR6.jpg","","","39","null","","","","","","","","","",""
"image-slider-response","98","397467","0.0-20.0-0.0-0.10","4164","pics2/VE4.jpg","","","58","null","","","","","","","","","",""
"image-slider-response","99","400068","0.0-20.0-0.0-0.11","2396","pics2/FR1.jpg","","","70","null","","","","","","","","","",""
"image-slider-response","100","402585","0.0-20.0-0.0-0.12","2313","pics2/FR2.jpg","","","76","null","","","","","","","","","",""
"image-slider-response","101","405151","0.0-20.0-0.0-0.13","2360","pics2/SW5.jpg","","","83","null","","","","","","","","","",""
"image-slider-response","102","407540","0.0-20.0-0.0-0.14","2184","pics2/SA5.jpg","","","37","null","","","","","","","","","",""
"image-slider-response","103","410788","0.0-20.0-0.0-0.15","3043","pics2/FR5.jpg","","","38","null","","","","","","","","","",""
"image-slider-response","104","416834","0.0-20.0-0.0-0.16","5836","pics2/VE6.jpg","","","18","null","","","","","","","","","",""
"image-slider-response","105","419339","0.0-20.0-0.0-0.17","2298","pics2/SA6.jpg","","","28","null","","","","","","","","","",""
"image-slider-response","106","423869","0.0-20.0-0.0-0.18","4325","pics2/SW4.jpg","","","67","null","","","","","","","","","",""
"image-slider-response","107","426537","0.0-20.0-0.0-0.19","2464","pics2/SW6.jpg","","","32","null","","","","","","","","","",""
"image-slider-response","108","430508","0.0-20.0-0.0-0.20","3766","pics2/FR3.jpg","","","76","null","","","","","","","","","",""
"image-slider-response","109","435963","0.0-20.0-0.0-0.21","5250","pics2/SA4.jpg","","","9","null","","","","","","","","","",""
"image-slider-response","110","438824","0.0-20.0-0.0-0.22","2654","pics2/SW2.jpg","","","95","null","","","","","","","","","",""
"image-slider-response","111","446556","0.0-20.0-0.0-0.23","7527","pics2/VE5.jpg","","","55","null","","","","","","","","","",""
"call-function","112","446771","0.0-21.0","","","","","","","","","","","","","","","",""
"html-button-response","113","448021","0.0-22.0","1248","<div style='width: 900px;'> <font size = 6><b> End of the second rating</b><br><br>","0","","","","","","","","","","","","",""
"pavlovia","114","448044","0.0-23.0","","","","","","","","","","","","","","","",""
"html-keyboard-response","115","453051","0.0-24.0","null","<div style='width: 700px;'> <font size=6><b>SHORT BREAK</font></b><br><br><i> Please wait 5 seconds to continue</i></div> ","","","","","","null","","","","","","","",""
"pavlovia","116","453056","0.0-25.0","","","","","","","","","","","","","","","",""
"html-button-response","117","465024","0.0-26.0","11965","<div style='width: 700px;'>In the main part of the study, you will be choosing between 2 items. When it's time to choose,  this symbol will appear: <br><br><img src='chooseS.png'></img><br><br>Below, a cue will signify the type of choice: </div><br><div style='width: 700px;'><div style='float: left; width: 50%'><img src='heartS.png'></img><p class='small'>Heart cue means you should choose the item you <b><i>prefer</b></i> more.</p></div><div class='float: right; width:50%'><img src='sizeS.png'></img><p class='small'>Size cue means you should choose the <b><i>larger</b></i> item. </p></div></div><br><div style='width: 700px;'>When you click, a green square will appear around the item you chose.<br></div><div><br>","0","","","","","","","","","","","","",""
"image-selector-fb-tut","118","469831","0.0-27.0","3793","0232.jpg,0123.jpg","","","","","","","false","0","","","","","",""
"image-selector-fb-tut","119","474155","0.0-28.0","3313","0232.jpg,0123.jpg","","","","","","","true","1","","","","","",""
"html-button-response","120","486047","0.0-29.0","11889","<div style='width: 900px;'>Your choices should be both <b><i>fast and accurate</b></i>. <br><br>You will have <i>4 seconds</i> to make each choice, which should be enough consider the options and click on one of the items.<br><br>","0","","","","","","","","","","","","",""
"html-button-response","121","492881","0.0-30.0","6831","<div style='width: 900px;'>Additionally, on some choice trials you will see the <b><i>no-choice cue</b></i>: <br><br><img src='noS.png'></img> <br><br>This cue means you can't make any choice. You can examine the items, but  can't click on any of them. Just wait patiently for the cue to dissapear.<br><br>","0","","","","","","","","","","","","",""
"image-selector-fb-tut","122","494903","0.0-31.0","null","0232.jpg,0123.jpg","","","","","","","false","null","","","","","",""
"html-button-response","123","501423","0.0-32.0","6510","<div style='width: 900px;'>After each choice the items will remain on the screen and you will see this symbol: <br><br><img src='judgeS.png'></img> <br><br>This means you should rate<b> the magnitude of the difference</b> between the items using a scale: </div><br><div style='width: 900px; '><div style='float: left; width: 50%; margin-right: 2.5em; align-self:left'><img src='heartS.png'></img><p class='small' style = 'text-align: justify;'>Heart cue means you should rate <b>how much you prefer</b> one of the items over the other. Moving the scale indicator to the left means you prefer the left one; moving it to the right - right one. The more you prefer one of them, the more towards that side you should move the scale indicator. </p></div><div class='float: right; width: 50%; margin-left: 2.5em;'><img src='sizeS.png'></img><p class='small' style='text-align: justify'>Size cue means you should rate <b>how much larger</b> is one of the items over the other. Moving the scale indicator to the left means you think the left is larger; moving it to the right - right one. The greater the difference in size, the more towards that side you should move the scale indicator.</div><br>","0","","","","","","","","","","","","",""
"image-slider-2AFC-tut","124","510847","0.0-33.0","9414","","","","78","","","","","","","","","","",""
"image-slider-2AFC-tut","125","515862","0.0-34.0","5009","","","","78","","","","","","","","","","",""
"html-button-response","126","530698","0.0-35.0","14831","<br><br><font size = 36><b> Examples </b></font><br><br><i> 1) I would like to eat some croissants a <b>lot more</b> than doritos right now:</i><br><img src='ex1.PNG', width='62%'></img><br><br><br><i> 2) I would like to eat some doritos a <b>bit more</b> than croissants right now, but just slightly:</i><br><img src='ex2.PNG' width='62%'></img>","0","","","","","","","","","","","","",""
"html-button-response","127","547743","0.0-36.0","17042","<div style='width: 900px;'><i>Now you know everything you need to do the task!</i> <br><br>Let's start by doing a <b>short training</b>, so you'll get used to how it works. </div><br>","0","","","","","","","","","","","","",""
"image-selector-fb","128","552256","0.0-37.0-0.0","null","pics2/FR2.jpg,pics2/VE1.jpg","","","","","","","false","null","","","sizeS.png","","",""
"image-slider-2AFC","129","552261","0.0-37.0-1.0","null","","","","null","","","","","","","","sizeS.png","","",""
"html-keyboard-response","130","553115","0.0-37.0-2.0","null","","","","","","","null","","","","","","","",""
"image-selector-fb","131","555522","0.0-37.1-0.1","1898","pics2/SA5.jpg,pics2/VE2.jpg","","","","","","","true","1","","","heartS.png","","",""
"image-slider-2AFC","132","560530","0.0-37.1-1.1","null","","","","null","","","","","","","","heartS.png","","",""
"html-keyboard-response","133","561384","0.0-37.1-2.1","null","","","","","","","null","","","","","","","",""
"image-selector-fb","134","564394","0.0-37.2-0.2","null","pics2/VE1.jpg,pics2/SA6.jpg","","","","","","","false","null","","","noS.png","","",""
"image-slider-2AFC","135","569401","0.0-37.2-1.2","null","","","","null","","","","","","","","heartS.png","","",""
"html-keyboard-response","136","570207","0.0-37.2-2.2","null","","","","","","","null","","","","","","","",""
"image-selector-fb","137","574716","0.0-37.3-0.3","null","pics2/VE6.jpg,pics2/SW4.jpg","","","","","","","false","null","","","heartS.png","","",""
"image-slider-2AFC","138","574718","0.0-37.3-1.3","null","","","","null","","","","","","","","sizeS.png","","",""
"html-keyboard-response","139","575473","0.0-37.3-2.3","null","","","","","","","null","","","","","","","",""
"image-selector-fb","140","579899","0.0-37.4-0.4","3911","pics2/VE6.jpg,pics2/VE4.jpg","","","","","","","false","0","","","heartS.png","","",""
"image-slider-2AFC","141","584908","0.0-37.4-1.4","null","","","","null","","","","","","","","heartS.png","","",""
"html-keyboard-response","142","585763","0.0-37.4-2.4","null","","","","","","","null","","","","","","","",""
"image-selector-fb","143","590270","0.0-37.5-0.5","null","pics2/FR5.jpg,pics2/SW4.jpg","","","","","","","false","null","","","heartS.png","","",""
"image-slider-2AFC","144","590273","0.0-37.5-1.5","null","","","","null","","","","","","","","heartS.png","","",""
"html-keyboard-response","145","591027","0.0-37.5-2.5","null","","","","","","","null","","","","","","","",""
"image-selector-fb","146","593091","0.0-37.6-0.6","1556","pics2/FR5.jpg,pics2/VE4.jpg","","","","","","","false","0","","","heartS.png","","",""
"image-slider-2AFC","147","598100","0.0-37.6-1.6","null","","","","null","","","","","","","","sizeS.png","","",""
"html-keyboard-response","148","598954","0.0-37.6-2.6","null","","","","","","","null","","","","","","","",""
"image-selector-fb","149","601962","0.0-37.7-0.7","null","pics2/SA6.jpg,pics2/VE2.jpg","","","","","","","false","null","","","noS.png","","",""
"image-slider-2AFC","150","606968","0.0-37.7-1.7","null","","","","null","","","","","","","","heartS.png","4214","49",""
"html-keyboard-response","151","607772","0.0-37.7-2.7","null","","","","","","","null","","","","","","","",""
"image-selector-fb","152","610974","0.0-37.8-0.8","2692","pics2/VE5.jpg,pics2/FR5.jpg","","","","","","","true","1","","","sizeS.png","","",""
"image-slider-2AFC","153","615195","0.0-37.8-1.8","4217","","","","43","","","","","","","","heartS.png","3036","43",""
"html-keyboard-response","154","616001","0.0-37.8-2.8","null","","","","","","","null","","","","","","","",""
"image-selector-fb","155","619012","0.0-37.9-0.9","null","pics2/SA2.jpg,pics2/SA1.jpg","","","","","","","false","null","","","noS.png","","",""
"image-slider-2AFC","156","622346","0.0-37.9-1.9","3329","","","","29","","","","","","","","sizeS.png","2268","29",""
"html-keyboard-response","157","623050","0.0-37.9-2.9","null","","","","","","","null","","","","","","","",""
"image-selector-fb","158","626824","0.0-37.10-0.10","3265","pics2/SA5.jpg,pics2/SA6.jpg","","","","","","","true","1","","","heartS.png","","",""
"image-slider-2AFC","159","631830","0.0-37.10-1.10","null","","","","null","","","","","","","","sizeS.png","3669","47",""
"html-keyboard-response","160","632585","0.0-37.10-2.10","null","","","","","","","null","","","","","","","",""
"image-selector-fb","161","636691","0.0-37.11-0.11","3597","pics2/SA5.jpg,pics2/VE1.jpg","","","","","","","true","1","","","heartS.png","","",""
"image-slider-2AFC","162","640081","0.0-37.11-1.11","3384","","","","39","","","","","","","","heartS.png","2157","39",""
"html-keyboard-response","163","640836","0.0-37.11-2.11","null","","","","","","","null","","","","","","","",""
"html-button-response","164","646001","0.0-38.0","5161","<i><font size=10>Good job!</font></i> <br><br>Before we begin, you have a chance to review the rules, in case something was not clear.<br><br>","0","","","","","","","","","","","","",""
"instructions","165","654021","0.0-39.0","8016","","","","","","","","","","","","","","","[{""page_index"":0,""viewing_time"":3379},{""page_index"":1,""viewing_time"":2013},{""page_index"":2,""viewing_time"":2623}]"
"html-button-response","166","663435","0.0-40.0","9412","<div style='width: 900px;'> <font size='40'>Great! Now you're ready to begin</font><br><br>The main part of the experiment will consist of <u>3 blocks</u>. Each block consists of 66 decisions and judgements. You will have time for a short break between blocks.<br><br><br><i><u>Do your best to respond within the time limit.</u></i><br><br><i> Press the button to start the experiment<br><br></i>","0","","","","","","","","","","","","",""
"image-selector-fb","167","666095","0.0-41.0-0.0","2148","pics2/SA3.jpg,pics2/SW2.jpg","","","","","","","true","1","","","heartS.png","","",""
"image-slider-2AFC","168","669668","0.0-41.0-1.0","3567","","","","71","","","","","","","","heartS.png","1305,2453","41,71",""
"html-keyboard-response","169","670472","0.0-41.0-2.0","null","","","","","","","null","","","","","","","",""
"image-selector-fb","170","673363","0.0-41.1-0.1","2381","pics2/SW2.jpg,pics2/FR4.jpg","","","","","","","false","0","","","sizeS.png","","",""
"image-slider-2AFC","171","675618","0.0-41.1-1.1","2252","","","","-33","","","","","","","","sizeS.png","1206","-33",""
"html-keyboard-response","172","676423","0.0-41.1-2.1","null","","","","","","","null","","","","","","","",""
"image-selector-fb","173","679338","0.0-41.2-0.2","2405","pics2/SA4.jpg,pics2/FR1.jpg","","","","","","","true","1","","","sizeS.png","","",""
"image-slider-2AFC","174","681671","0.0-41.2-1.2","2326","","","","34","","","","","","","","heartS.png","1395","34",""
"html-keyboard-response","175","682425","0.0-41.2-2.2","null","","","","","","","null","","","","","","","",""
"image-selector-fb","176","685439","0.0-41.3-0.3","null","pics2/FR1.jpg,pics2/SW1.jpg","","","","","","","false","null","","","noS.png","","",""
"image-slider-2AFC","177","687952","0.0-41.3-1.3","2508","","","","60","","","","","","","","heartS.png","1399","60",""
"html-keyboard-response","178","688657","0.0-41.3-2.3","null","","","","","","","null","","","","","","","",""
"image-selector-fb","179","691667","0.0-41.4-0.4","null","pics2/SW5.jpg,pics2/SW3.jpg","","","","","","","false","null","","","noS.png","","",""
"image-slider-2AFC","180","696204","0.0-41.4-1.4","4533","","","","-34","","","","","","","","sizeS.png","3583","-34",""
"html-keyboard-response","181","696957","0.0-41.4-2.4","null","","","","","","","null","","","","","","","",""
"image-selector-fb","182","699967","0.0-41.5-0.5","null","pics2/SW3.jpg,pics2/SA4.jpg","","","","","","","false","null","","","noS.png","","",""
"image-slider-2AFC","183","702289","0.0-41.5-1.5","2316","","","","-55","","","","","","","","heartS.png","1308","-55",""
"html-keyboard-response","184","703145","0.0-41.5-2.5","null","","","","","","","null","","","","","","","",""
"image-selector-fb","185","706157","0.0-41.6-0.6","null","pics2/SW5.jpg,pics2/FR3.jpg","","","","","","","false","null","","","noS.png","","",""
"image-slider-2AFC","186","708123","0.0-41.6-1.6","1961","","","","-45","","","","","","","","sizeS.png","994","-45",""
"html-keyboard-response","187","708978","0.0-41.6-2.6","null","","","","","","","null","","","","","","","",""
"image-selector-fb","188","712700","0.0-41.7-0.7","3214","pics2/SW3.jpg,pics2/SA4.jpg","","","","","","","false","0","","","heartS.png","","",""
"image-slider-2AFC","189","715255","0.0-41.7-1.7","2550","","","","-50","","","","","","","","heartS.png","1584","-50",""
"html-keyboard-response","190","715959","0.0-41.7-2.7","null","","","","","","","null","","","","","","","",""
"image-selector-fb","191","718970","0.0-41.8-0.8","null","pics2/SW5.jpg,pics2/FR6.jpg","","","","","","","false","null","","","noS.png","","",""
"image-slider-2AFC","192","721955","0.0-41.8-1.8","2979","","","","-50","","","","","","","","sizeS.png","1423","-50",""
"html-keyboard-response","193","722760","0.0-41.8-2.8","null","","","","","","","null","","","","","","","",""
"image-selector-fb","194","726353","0.0-41.9-0.9","3082","pics2/VE3.jpg,pics2/SA3.jpg","","","","","","","false","0","","","sizeS.png","","",""
"image-slider-2AFC","195","731173","0.0-41.9-1.9","4814","","","","20","","","","","","","","sizeS.png","2916","20",""
"html-keyboard-response","196","731877","0.0-41.9-2.9","null","","","","","","","null","","","","","","","",""
"image-selector-fb","197","735364","0.0-41.10-0.10","2972","pics2/SA3.jpg,pics2/SW6.jpg","","","","","","","true","1","","","heartS.png","","",""
"image-slider-2AFC","198","740372","0.0-41.10-1.10","null","","","","null","","","","","","","","heartS.png","4627","24",""
"html-keyboard-response","199","741126","0.0-41.10-2.10","null","","","","","","","null","","","","","","","",""
"image-selector-fb","200","744138","0.0-41.11-0.11","null","pics2/FR1.jpg,pics2/SW2.jpg","","","","","","","false","null","","","noS.png","","",""
"image-slider-2AFC","201","746412","0.0-41.11-1.11","2270","","","","32","","","","","","","","heartS.png","1384","32",""
"html-keyboard-response","202","747116","0.0-41.11-2.11","null","","","","","","","null","","","","","","","",""
"image-selector-fb","203","750479","0.0-41.12-0.12","2853","pics2/SW1.jpg,pics2/FR6.jpg","","","","","","","false","0","","","heartS.png","","",""
"image-slider-2AFC","204","752146","0.0-41.12-1.12","1661","","","","34","","","","","","","","heartS.png","703","34",""
"html-keyboard-response","205","752851","0.0-41.12-2.12","null","","","","","","","null","","","","","","","",""
"image-selector-fb","206","754891","0.0-41.13-0.13","1530","pics2/VE3.jpg,pics2/SW1.jpg","","","","","","","true","1","","","sizeS.png","","",""
"image-slider-2AFC","207","757746","0.0-41.13-1.13","2850","","","","75","","","","","","","","heartS.png","688,1235,1806","29,58,75",""
"html-keyboard-response","208","758550","0.0-41.13-2.13","null","","","","","","","null","","","","","","","",""
"image-selector-fb","209","760223","0.0-41.14-0.14","1163","pics2/FR6.jpg,pics2/SW5.jpg","","","","","","","true","1","","","heartS.png","","",""
"image-slider-2AFC","210","762015","0.0-41.14-1.14","1787","","","","73","","","","","","","","heartS.png","785","73",""
"html-keyboard-response","211","762819","0.0-41.14-2.14","null","","","","","","","null","","","","","","","",""
"image-selector-fb","212","765210","0.0-41.15-0.15","1874","pics2/FR1.jpg,pics2/SA3.jpg","","","","","","","false","0","","","sizeS.png","","",""
"image-slider-2AFC","213","767845","0.0-41.15-1.15","2629","","","","-31","","","","","","","","heartS.png","1802","-31",""
"html-keyboard-response","214","768650","0.0-41.15-2.15","null","","","","","","","null","","","","","","","",""
"image-selector-fb","215","771733","0.0-41.16-0.16","2569","pics2/VE3.jpg,pics2/FR6.jpg","","","","","","","false","0","","","sizeS.png","","",""
"image-slider-2AFC","216","773515","0.0-41.16-1.16","1776","","","","-40","","","","","","","","heartS.png","761","-40",""
"html-keyboard-response","217","774318","0.0-41.16-2.16","null","","","","","","","null","","","","","","","",""
"image-selector-fb","218","776542","0.0-41.17-0.17","1713","pics2/FR4.jpg,pics2/SW2.jpg","","","","","","","true","1","","","heartS.png","","",""
"image-slider-2AFC","219","778248","0.0-41.17-1.17","1701","","","","72","","","","","","","","sizeS.png","705","72",""
"html-keyboard-response","220","779001","0.0-41.17-2.17","null","","","","","","","null","","","","","","","",""
"image-selector-fb","221","782011","0.0-41.18-0.18","null","pics2/FR3.jpg,pics2/SW2.jpg","","","","","","","false","null","","","noS.png","","",""
"image-slider-2AFC","222","787017","0.0-41.18-1.18","null","","","","null","","","","","","","","sizeS.png","2516","44",""
"html-keyboard-response","223","787721","0.0-41.18-2.18","null","","","","","","","null","","","","","","","",""
"image-selector-fb","224","790731","0.0-41.19-0.19","null","pics2/SW6.jpg,pics2/SW1.jpg","","","","","","","false","null","","","noS.png","","",""
"image-slider-2AFC","225","795738","0.0-41.19-1.19","null","","","","null","","","","","","","","sizeS.png","1323","58",""
"html-keyboard-response","226","796594","0.0-41.19-2.19","null","","","","","","","null","","","","","","","",""
"image-selector-fb","227","799746","0.0-41.20-0.20","2641","pics2/SW3.jpg,pics2/FR1.jpg","","","","","","","false","0","","","heartS.png","","",""
"image-slider-2AFC","228","801567","0.0-41.20-1.20","1815","","","","-53","","","","","","","","sizeS.png","733","-53",""
"html-keyboard-response","229","802369","0.0-41.20-2.20","null","","","","","","","null","","","","","","","",""
"image-selector-fb","230","805052","0.0-41.21-0.21","2172","pics2/VE3.jpg,pics2/FR4.jpg","","","","","","","false","0","","","sizeS.png","","",""
"image-slider-2AFC","231","807266","0.0-41.21-1.21","2208","","","","-56","","","","","","","","sizeS.png","1133","-56",""
"html-keyboard-response","232","808021","0.0-41.21-2.21","null","","","","","","","null","","","","","","","",""
"image-selector-fb","233","811033","0.0-41.22-0.22","null","pics2/FR1.jpg,pics2/VE3.jpg","","","","","","","false","null","","","noS.png","","",""
"image-slider-2AFC","234","814035","0.0-41.22-1.22","2997","","","","-58","","","","","","","","sizeS.png","1902","-58",""
"html-keyboard-response","235","814888","0.0-41.22-2.22","null","","","","","","","null","","","","","","","",""
"image-selector-fb","236","816798","0.0-41.23-0.23","1400","pics2/FR1.jpg,pics2/FR6.jpg","","","","","","","false","0","","","sizeS.png","","",""
"image-slider-2AFC","237","820034","0.0-41.23-1.23","3231","","","","-41","","","","","","","","sizeS.png","754","-41",""
"html-keyboard-response","238","820787","0.0-41.23-2.23","null","","","","","","","null","","","","","","","",""
"image-selector-fb","239","823964","0.0-41.24-0.24","2667","pics2/SW5.jpg,pics2/FR1.jpg","","","","","","","true","1","","","heartS.png","","",""
"image-slider-2AFC","240","826688","0.0-41.24-1.24","2719","","","","30","","","","","","","","sizeS.png","1677","30",""
"html-keyboard-response","241","827442","0.0-41.24-2.24","null","","","","","","","null","","","","","","","",""
"image-selector-fb","242","829748","0.0-41.25-0.25","1797","pics2/VE3.jpg,pics2/SW6.jpg","","","","","","","true","1","","","heartS.png","","",""
"image-slider-2AFC","243","833406","0.0-41.25-1.25","3653","","","","83","","","","","","","","heartS.png","2706","83",""
"html-keyboard-response","244","834211","0.0-41.25-2.25","null","","","","","","","null","","","","","","","",""
"image-selector-fb","245","836772","0.0-41.26-0.26","2047","pics2/FR3.jpg,pics2/SW3.jpg","","","","","","","true","1","","","heartS.png","","",""
"image-slider-2AFC","246","838671","0.0-41.26-1.26","1893","","","","72","","","","","","","","heartS.png","1065","72",""
"html-keyboard-response","247","839376","0.0-41.26-2.26","null","","","","","","","null","","","","","","","",""
"image-selector-fb","248","842388","0.0-41.27-0.27","null","pics2/SW3.jpg,pics2/SW2.jpg","","","","","","","false","null","","","noS.png","","",""
"image-slider-2AFC","249","847155","0.0-41.27-1.27","4762","","","","33","","","","","","","","heartS.png","3216","33",""
"html-keyboard-response","250","848009","0.0-41.27-2.27","null","","","","","","","null","","","","","","","",""
"image-selector-fb","251","851029","0.0-41.28-0.28","null","pics2/SW3.jpg,pics2/VE3.jpg","","","","","","","false","null","","","noS.png","","",""
"image-slider-2AFC","252","856036","0.0-41.28-1.28","null","","","","null","","","","","","","","sizeS.png","1243","-41",""
"html-keyboard-response","253","856841","0.0-41.28-2.28","null","","","","","","","null","","","","","","","",""
"image-selector-fb","254","859619","0.0-41.29-0.29","2268","pics2/SA4.jpg,pics2/FR4.jpg","","","","","","","true","1","","","sizeS.png","","",""
"image-slider-2AFC","255","861741","0.0-41.29-1.29","2117","","","","40","","","","","","","","sizeS.png","1172","40",""
"html-keyboard-response","256","862445","0.0-41.29-2.29","null","","","","","","","null","","","","","","","",""
"image-selector-fb","257","864659","0.0-41.30-0.30","1704","pics2/SW2.jpg,pics2/VE3.jpg","","","","","","","false","0","","","sizeS.png","","",""
"image-slider-2AFC","258","868042","0.0-41.30-1.30","3378","","","","-48","","","","","","","","sizeS.png","1183","-48",""
"html-keyboard-response","259","868746","0.0-41.30-2.30","null","","","","","","","null","","","","","","","",""
"image-selector-fb","260","871142","0.0-41.31-0.31","1888","pics2/SW6.jpg,pics2/SW1.jpg","","","","","","","true","1","","","sizeS.png","","",""
"image-slider-2AFC","261","873074","0.0-41.31-1.31","1925","","","","45","","","","","","","","heartS.png","966","45",""
"html-keyboard-response","262","873829","0.0-41.31-2.31","null","","","","","","","null","","","","","","","",""
"image-selector-fb","263","876840","0.0-41.32-0.32","null","pics2/FR3.jpg,pics2/SW3.jpg","","","","","","","false","null","","","noS.png","","",""
"image-slider-2AFC","264","880860","0.0-41.32-1.32","4015","","","","-28","","","","","","","","sizeS.png","2204","-28",""
"html-keyboard-response","265","881664","0.0-41.32-2.32","null","","","","","","","null","","","","","","","",""
"image-selector-fb","266","884682","0.0-41.33-0.33","null","pics2/FR3.jpg,pics2/SW1.jpg","","","","","","","false","null","","","noS.png","","",""
"image-slider-2AFC","267","888410","0.0-41.33-1.33","3721","","","","54","","","","","","","","sizeS.png","2628","54",""
"html-keyboard-response","268","889265","0.0-41.33-2.33","null","","","","","","","null","","","","","","","",""
"image-selector-fb","269","892277","0.0-41.34-0.34","null","pics2/FR4.jpg,pics2/FR6.jpg","","","","","","","false","null","","","noS.png","","",""
"image-slider-2AFC","270","896897","0.0-41.34-1.34","4615","","","","-18","","","","","","","","heartS.png","2132","-18",""
"html-keyboard-response","271","897751","0.0-41.34-2.34","null","","","","","","","null","","","","","","","",""
"image-selector-fb","272","900075","0.0-41.35-0.35","1814","pics2/FR3.jpg,pics2/SW5.jpg","","","","","","","true","1","","","heartS.png","","",""
"image-slider-2AFC","273","902148","0.0-41.35-1.35","2061","","","","44","","","","","","","","heartS.png","1047","44",""
"html-keyboard-response","274","903002","0.0-41.35-2.35","null","","","","","","","null","","","","","","","",""
"image-selector-fb","275","905460","0.0-41.36-0.36","1947","pics2/SW5.jpg,pics2/SA4.jpg","","","","","","","false","0","","","heartS.png","","",""
"image-slider-2AFC","276","908433","0.0-41.36-1.36","2968","","","","-38","","","","","","","","heartS.png","1107,2055","-24,-38",""
"html-keyboard-response","277","909237","0.0-41.36-2.36","null","","","","","","","null","","","","","","","",""
"image-selector-fb","278","911908","0.0-41.37-0.37","2161","pics2/VE3.jpg,pics2/SA4.jpg","","","","","","","true","1","","","heartS.png","","",""
"image-slider-2AFC","279","916013","0.0-41.37-1.37","4101","","","","-38","","","","","","","","sizeS.png","1252,3125","45,-38",""
"html-keyboard-response","280","916768","0.0-41.37-2.37","null","","","","","","","null","","","","","","","",""
"image-selector-fb","281","919175","0.0-41.38-0.38","1899","pics2/FR3.jpg,pics2/VE3.jpg","","","","","","","false","0","","","heartS.png","","",""
"image-slider-2AFC","282","921634","0.0-41.38-1.38","2452","","","","-77","","","","","","","","heartS.png","823,1403","-50,-77",""
"html-keyboard-response","283","922340","0.0-41.38-2.38","null","","","","","","","null","","","","","","","",""
"image-selector-fb","284","925127","0.0-41.39-0.39","2276","pics2/SW6.jpg,pics2/SW5.jpg","","","","","","","true","1","","","sizeS.png","","",""
"image-slider-2AFC","285","927734","0.0-41.39-1.39","2602","","","","65","","","","","","","","sizeS.png","1059,1691","41,65",""
"html-keyboard-response","286","928488","0.0-41.39-2.39","null","","","","","","","null","","","","","","","",""
"image-selector-fb","287","930462","0.0-41.40-0.40","1464","pics2/SW3.jpg,pics2/VE3.jpg","","","","","","","false","0","","","heartS.png","","",""
"image-slider-2AFC","288","931965","0.0-41.40-1.40","1498","","","","-49","","","","","","","","heartS.png","653","-49",""
"html-keyboard-response","289","932668","0.0-41.40-2.40","null","","","","","","","null","","","","","","","",""
"image-selector-fb","290","935679","0.0-41.41-0.41","null","pics2/SW3.jpg,pics2/SW1.jpg","","","","","","","false","null","","","noS.png","","",""
"image-slider-2AFC","291","938349","0.0-41.41-1.41","2659","","","","-53","","","","","","","","heartS.png","949","-53",""
"html-keyboard-response","292","939153","0.0-41.41-2.41","null","","","","","","","null","","","","","","","",""
"image-selector-fb","293","942166","0.0-41.42-0.42","null","pics2/FR1.jpg,pics2/SA4.jpg","","","","","","","false","null","","","noS.png","","",""
"image-slider-2AFC","294","946552","0.0-41.42-1.42","4381","","","","47","","","","","","","","heartS.png","1634,3335","-47,47",""
"html-keyboard-response","295","947258","0.0-41.42-2.42","null","","","","","","","null","","","","","","","",""
"image-selector-fb","296","950246","0.0-41.43-0.43","2478","pics2/SW5.jpg,pics2/SW1.jpg","","","","","","","false","0","","","sizeS.png","","",""
"image-slider-2AFC","297","952471","0.0-41.43-1.43","2219","","","","16","","","","","","","","sizeS.png","1305","16",""
"html-keyboard-response","298","953174","0.0-41.43-2.43","null","","","","","","","null","","","","","","","",""
"image-selector-fb","299","956496","0.0-41.44-0.44","2814","pics2/SA3.jpg,pics2/VE3.jpg","","","","","","","false","0","","","heartS.png","","",""
"image-slider-2AFC","300","959869","0.0-41.44-1.44","3369","","","","-37","","","","","","","","sizeS.png","1289","-37",""
"html-keyboard-response","301","960673","0.0-41.44-2.44","null","","","","","","","null","","","","","","","",""
"image-selector-fb","302","963155","0.0-41.45-0.45","1972","pics2/SW3.jpg,pics2/FR4.jpg","","","","","","","true","1","","","sizeS.png","","",""
"image-slider-2AFC","303","965071","0.0-41.45-1.45","1909","","","","20","","","","","","","","heartS.png","1004","20",""
"html-keyboard-response","304","965775","0.0-41.45-2.45","null","","","","","","","null","","","","","","","",""
"image-selector-fb","305","969266","0.0-41.46-0.46","2982","pics2/FR4.jpg,pics2/FR6.jpg","","","","","","","false","0","","","heartS.png","","",""
"image-slider-2AFC","306","971507","0.0-41.46-1.46","2236","","","","-22","","","","","","","","sizeS.png","1188","-22",""
"html-keyboard-response","307","972261","0.0-41.46-2.46","null","","","","","","","null","","","","","","","",""
"image-selector-fb","308","975272","0.0-41.47-0.47","null","pics2/SW5.jpg,pics2/SW2.jpg","","","","","","","false","null","","","noS.png","","",""
"image-slider-2AFC","309","980279","0.0-41.47-1.47","null","","","","null","","","","","","","","sizeS.png","1500,3999","-41,56",""
"html-keyboard-response","310","981035","0.0-41.47-2.47","null","","","","","","","null","","","","","","","",""
"image-selector-fb","311","983585","0.0-41.48-0.48","2039","pics2/SA4.jpg,pics2/SW1.jpg","","","","","","","true","1","","","sizeS.png","","",""
"image-slider-2AFC","312","986259","0.0-41.48-1.48","2668","","","","22","","","","","","","","heartS.png","1819","22",""
"html-keyboard-response","313","987013","0.0-41.48-2.48","null","","","","","","","null","","","","","","","",""
"image-selector-fb","314","991119","0.0-41.49-0.49","3596","pics2/SA3.jpg,pics2/SW1.jpg","","","","","","","true","1","","","heartS.png","","",""
"image-slider-2AFC","315","993259","0.0-41.49-1.49","2135","","","","35","","","","","","","","heartS.png","1191","35",""
"html-keyboard-response","316","994013","0.0-41.49-2.49","null","","","","","","","null","","","","","","","",""
"image-selector-fb","317","996388","0.0-41.50-0.50","1866","pics2/SW6.jpg,pics2/SA3.jpg","","","","","","","true","1","","","sizeS.png","","",""
"image-slider-2AFC","318","998143","0.0-41.50-1.50","1746","","","","34","","","","","","","","sizeS.png","914","34",""
"html-keyboard-response","319","998949","0.0-41.50-2.50","null","","","","","","","null","","","","","","","",""
"image-selector-fb","320","1001962","0.0-41.51-0.51","null","pics2/FR3.jpg,pics2/FR1.jpg","","","","","","","false","null","","","noS.png","","",""
"image-slider-2AFC","321","1003926","0.0-41.51-1.51","1959","","","","-25","","","","","","","","heartS.png","1112","-25",""
"html-keyboard-response","322","1004780","0.0-41.51-2.51","null","","","","","","","null","","","","","","","",""
"image-selector-fb","323","1007288","0.0-41.52-0.52","1999","pics2/SW1.jpg,pics2/SW5.jpg","","","","","","","false","0","","","heartS.png","","",""
"image-slider-2AFC","324","1009763","0.0-41.52-1.52","2470","","","","-17","","","","","","","","sizeS.png","1570","-17",""
"html-keyboard-response","325","1010616","0.0-41.52-2.52","null","","","","","","","null","","","","","","","",""
"image-selector-fb","326","1012756","0.0-41.53-0.53","1620","pics2/SW1.jpg,pics2/SA3.jpg","","","","","","","false","0","","","sizeS.png","","",""
"image-slider-2AFC","327","1014446","0.0-41.53-1.53","1685","","","","-17","","","","","","","","sizeS.png","873","-17",""
"html-keyboard-response","328","1015300","0.0-41.53-2.53","null","","","","","","","null","","","","","","","",""
"image-selector-fb","329","1018172","0.0-41.54-0.54","2362","pics2/VE3.jpg,pics2/FR3.jpg","","","","","","","false","0","","","sizeS.png","","",""
"image-slider-2AFC","330","1020644","0.0-41.54-1.54","2466","","","","54","","","","","","","","heartS.png","1620","54",""
"html-keyboard-response","331","1021448","0.0-41.54-2.54","null","","","","","","","null","","","","","","","",""
"image-selector-fb","332","1024458","0.0-41.55-0.55","null","pics2/FR4.jpg,pics2/SA4.jpg","","","","","","","false","null","","","noS.png","","",""
"image-slider-2AFC","333","1027778","0.0-41.55-1.55","3316","","","","-15","","","","","","","","heartS.png","1669","-15",""
"html-keyboard-response","334","1028534","0.0-41.55-2.55","null","","","","","","","null","","","","","","","",""
"image-selector-fb","335","1031546","0.0-41.56-0.56","null","pics2/SW5.jpg,pics2/SA4.jpg","","","","","","","false","null","","","noS.png","","",""
"image-slider-2AFC","336","1036553","0.0-41.56-1.56","null","","","","null","","","","","","","","sizeS.png","4496","-13",""
"html-keyboard-response","337","1037356","0.0-41.56-2.56","null","","","","","","","null","","","","","","","",""
"image-selector-fb","338","1040675","0.0-41.57-0.57","2809","pics2/FR4.jpg,pics2/SA3.jpg","","","","","","","false","0","","","heartS.png","","",""
"image-slider-2AFC","339","1042297","0.0-41.57-1.57","1616","","","","-11","","","","","","","","heartS.png","754","-11",""
"html-keyboard-response","340","1043000","0.0-41.57-2.57","null","","","","","","","null","","","","","","","",""
"image-selector-fb","341","1046018","0.0-41.58-0.58","null","pics2/FR1.jpg,pics2/SW3.jpg","","","","","","","false","null","","","noS.png","","",""
"image-slider-2AFC","342","1048479","0.0-41.58-1.58","2455","","","","-31","","","","","","","","heartS.png","926","-31",""
"html-keyboard-response","343","1049234","0.0-41.58-2.58","null","","","","","","","null","","","","","","","",""
"image-selector-fb","344","1051575","0.0-41.59-0.59","1830","pics2/SW5.jpg,pics2/FR4.jpg","","","","","","","false","0","","","sizeS.png","","",""
"image-slider-2AFC","345","1056586","0.0-41.59-1.59","null","","","","null","","","","","","","","heartS.png","","",""
"html-keyboard-response","346","1057392","0.0-41.59-2.59","null","","","","","","","null","","","","","","","",""
"image-selector-fb","347","1060310","0.0-41.60-0.60","2407","pics2/SW5.jpg,pics2/VE3.jpg","","","","","","","false","0","","","sizeS.png","","",""
"image-slider-2AFC","348","1063932","0.0-41.60-1.60","3617","","","","-22","","","","","","","","heartS.png","1191","-22",""
"html-keyboard-response","349","1064735","0.0-41.60-2.60","null","","","","","","","null","","","","","","","",""
"image-selector-fb","350","1067746","0.0-41.61-0.61","null","pics2/SW5.jpg,pics2/SA3.jpg","","","","","","","false","null","","","noS.png","","",""
"image-slider-2AFC","351","1071349","0.0-41.61-1.61","3597","","","","-21","","","","","","","","heartS.png","1232","-21",""
"html-keyboard-response","352","1072103","0.0-41.61-2.61","null","","","","","","","null","","","","","","","",""
"image-selector-fb","353","1075114","0.0-41.62-0.62","null","pics2/FR1.jpg,pics2/FR6.jpg","","","","","","","false","null","","","noS.png","","",""
"image-slider-2AFC","354","1078433","0.0-41.62-1.62","3314","","","","-28","","","","","","","","heartS.png","1151","-28",""
"html-keyboard-response","355","1079237","0.0-41.62-2.62","null","","","","","","","null","","","","","","","",""
"image-selector-fb","356","1081330","0.0-41.63-0.63","1578","pics2/SW3.jpg,pics2/SW6.jpg","","","","","","","false","0","","","heartS.png","","",""
"image-slider-2AFC","357","1084685","0.0-41.63-1.63","3348","","","","-43","","","","","","","","sizeS.png","688","-43",""
"html-keyboard-response","358","1085390","0.0-41.63-2.63","null","","","","","","","null","","","","","","","",""
"image-selector-fb","359","1087998","0.0-41.64-0.64","2097","pics2/FR3.jpg,pics2/SA3.jpg","","","","","","","false","0","","","heartS.png","","",""
"image-slider-2AFC","360","1091075","0.0-41.64-1.64","3072","","","","-31","","","","","","","","heartS.png","851","-31",""
"html-keyboard-response","361","1091928","0.0-41.64-2.64","null","","","","","","","null","","","","","","","",""
"image-selector-fb","362","1093764","0.0-41.65-0.65","1328","pics2/SW3.jpg,pics2/SW5.jpg","","","","","","","false","0","","","heartS.png","","",""
"image-slider-2AFC","363","1095421","0.0-41.65-1.65","1654","","","","-50","","","","","","","","heartS.png","693","-50",""
"html-keyboard-response","364","1096275","0.0-41.65-2.65","null","","","","","","","null","","","","","","","",""
"pavlovia","365","1096309","0.0-42.0","","","","","","","","","","","","","","","",""
"html-keyboard-response","366","1101312","0.0-43.0","null","<div style='width: 700px;'> <font size=6><b>SHORT BREAK</font></b><br><br><i> Please wait 5 seconds to continue</i></div> ","","","","","","null","","","","","","","",""
"pavlovia","367","1101318","0.0-44.0","","","","","","","","","","","","","","","",""
"html-button-response","368","1146364","0.0-45.0","45042","<div style='width: 700px;'> <font size=6><b>BLOCK 2</font></b><br><br>Press the button whenever you feel ready to start the second block (there are 3 in total)</div>","0","","","","","","","","","","","","",""
"image-selector-fb","369","1150689","0.0-46.0-0.0","3818","pics2/SA4.jpg,pics2/VE3.jpg","","","","","","","true","1","","","sizeS.png","","",""
"image-slider-2AFC","370","1153844","0.0-46.0-1.0","3151","","","","41","","","","","","","","sizeS.png","2119","41",""
"html-keyboard-response","371","1154648","0.0-46.0-2.0","null","","","","","","","null","","","","","","","",""
"image-selector-fb","372","1157668","0.0-46.1-0.1","null","pics2/FR3.jpg,pics2/SA4.jpg","","","","","","","false","null","","","noS.png","","",""
"image-slider-2AFC","373","1161130","0.0-46.1-1.1","3455","","","","-25","","","","","","","","sizeS.png","2642","-25",""
"html-keyboard-response","374","1161984","0.0-46.1-2.1","null","","","","","","","null","","","","","","","",""
"image-selector-fb","375","1164996","0.0-46.2-0.2","null","pics2/SW6.jpg,pics2/SA3.jpg","","","","","","","false","null","","","noS.png","","",""
"image-slider-2AFC","376","1167932","0.0-46.2-1.2","2930","","","","-29","","","","","","","","heartS.png","2032","-29",""
"html-keyboard-response","377","1168736","0.0-46.2-2.2","null","","","","","","","null","","","","","","","",""
"image-selector-fb","378","1171746","0.0-46.3-0.3","null","pics2/VE3.jpg,pics2/SA3.jpg","","","","","","","false","null","","","noS.png","","",""
"image-slider-2AFC","379","1174985","0.0-46.3-1.3","3233","","","","35","","","","","","","","heartS.png","1518,2301","-31,35",""
"html-keyboard-response","380","1175792","0.0-46.3-2.3","null","","","","","","","null","","","","","","","",""
"image-selector-fb","381","1180303","0.0-46.4-0.4","null","pics2/FR6.jpg,pics2/SA3.jpg","","","","","","","false","null","","","sizeS.png","","",""
"image-slider-2AFC","382","1180305","0.0-46.4-1.4","null","","","","null","","","","","","","","heartS.png","","",""
"html-keyboard-response","383","1181109","0.0-46.4-2.4","null","","","","","","","null","","","","","","","",""
"image-selector-fb","384","1184120","0.0-46.5-0.5","null","pics2/SA4.jpg,pics2/SW1.jpg","","","","","","","false","null","","","noS.png","","",""
"image-slider-2AFC","385","1186400","0.0-46.5-1.5","2275","","","","53","","","","","","","","heartS.png","1343","53",""
"html-keyboard-response","386","1187154","0.0-46.5-2.5","null","","","","","","","null","","","","","","","",""
"image-selector-fb","387","1189126","0.0-46.6-0.6","1462","pics2/SW1.jpg,pics2/FR1.jpg","","","","","","","false","0","","","heartS.png","","",""
"image-slider-2AFC","388","1191116","0.0-46.6-1.6","1985","","","","-22","","","","","","","","heartS.png","1139","-22",""
"html-keyboard-response","389","1191820","0.0-46.6-2.6","null","","","","","","","null","","","","","","","",""
"image-selector-fb","390","1194243","0.0-46.7-0.7","1913","pics2/SW1.jpg,pics2/SA4.jpg","","","","","","","false","0","","","heartS.png","","",""
"image-slider-2AFC","391","1196382","0.0-46.7-1.7","2132","","","","-22","","","","","","","","sizeS.png","1209","-22",""
"html-keyboard-response","392","1197238","0.0-46.7-2.7","null","","","","","","","null","","","","","","","",""
"image-selector-fb","393","1199847","0.0-46.8-0.8","2097","pics2/VE3.jpg,pics2/SW5.jpg","","","","","","","true","1","","","heartS.png","","",""
"image-slider-2AFC","394","1204385","0.0-46.8-1.8","4533","","","","77","","","","","","","","sizeS.png","3154","77",""
"html-keyboard-response","395","1205088","0.0-46.8-2.8","null","","","","","","","null","","","","","","","",""
"image-selector-fb","396","1208096","0.0-46.9-0.9","null","pics2/SA4.jpg,pics2/SA3.jpg","","","","","","","false","null","","","noS.png","","",""
"image-slider-2AFC","397","1213102","0.0-46.9-1.9","null","","","","null","","","","","","","","sizeS.png","4671","70",""
"html-keyboard-response","398","1213858","0.0-46.9-2.9","null","","","","","","","null","","","","","","","",""
"image-selector-fb","399","1216870","0.0-46.10-0.10","null","pics2/SA3.jpg,pics2/FR6.jpg","","","","","","","false","null","","","noS.png","","",""
"image-slider-2AFC","400","1219452","0.0-46.10-1.10","2577","","","","47","","","","","","","","heartS.png","1682","47",""
"html-keyboard-response","401","1220207","0.0-46.10-2.10","null","","","","","","","null","","","","","","","",""
"image-selector-fb","402","1221945","0.0-46.11-0.11","1230","pics2/SW1.jpg,pics2/SW3.jpg","","","","","","","false","0","","","heartS.png","","",""
"image-slider-2AFC","403","1225172","0.0-46.11-1.11","3222","","","","-31","","","","","","","","sizeS.png","2288","-31",""
"html-keyboard-response","404","1225926","0.0-46.11-2.11","null","","","","","","","null","","","","","","","",""
"image-selector-fb","405","1227997","0.0-46.12-0.12","1564","pics2/SA3.jpg,pics2/SA4.jpg","","","","","","","false","0","","","heartS.png","","",""
"image-slider-2AFC","406","1229853","0.0-46.12-1.12","1851","","","","-54","","","","","","","","sizeS.png","934","-54",""
"html-keyboard-response","407","1230606","0.0-46.12-2.12","null","","","","","","","null","","","","","","","",""
"image-selector-fb","408","1233466","0.0-46.13-0.13","2350","pics2/SA4.jpg,pics2/SW6.jpg","","","","","","","true","1","","","heartS.png","","",""
"image-slider-2AFC","409","1235755","0.0-46.13-1.13","2283","","","","23","","","","","","","","heartS.png","1525","23",""
"html-keyboard-response","410","1236561","0.0-46.13-2.13","null","","","","","","","null","","","","","","","",""
"image-selector-fb","411","1238597","0.0-46.14-0.14","1526","pics2/SW2.jpg,pics2/SA4.jpg","","","","","","","false","0","","","heartS.png","","",""
"image-slider-2AFC","412","1241923","0.0-46.14-1.14","3321","","","","-41","","","","","","","","sizeS.png","2553","-41",""
"html-keyboard-response","413","1242726","0.0-46.14-2.14","null","","","","","","","null","","","","","","","",""
"image-selector-fb","414","1245737","0.0-46.15-0.15","null","pics2/SA4.jpg,pics2/FR6.jpg","","","","","","","false","null","","","noS.png","","",""
"image-slider-2AFC","415","1250106","0.0-46.15-1.15","4364","","","","7","","","","","","","","heartS.png","1098,2985,3564","-37,52,7",""
"html-keyboard-response","416","1250912","0.0-46.15-2.15","null","","","","","","","null","","","","","","","",""
"image-selector-fb","417","1254033","0.0-46.16-0.16","2609","pics2/SW6.jpg,pics2/FR1.jpg","","","","","","","false","0","","","sizeS.png","","",""
"image-slider-2AFC","418","1257772","0.0-46.16-1.16","3734","","","","-23","","","","","","","","heartS.png","1892","-23",""
"html-keyboard-response","419","1258626","0.0-46.16-2.16","null","","","","","","","null","","","","","","","",""
"image-selector-fb","420","1261026","0.0-46.17-0.17","1885","pics2/FR3.jpg,pics2/SA4.jpg","","","","","","","false","0","","","heartS.png","","",""
"image-slider-2AFC","421","1264058","0.0-46.17-1.17","3025","","","","-32","","","","","","","","heartS.png","2298","-32",""
"html-keyboard-response","422","1264763","0.0-46.17-2.17","null","","","","","","","null","","","","","","","",""
"image-selector-fb","423","1266637","0.0-46.18-0.18","1365","pics2/SW1.jpg,pics2/VE3.jpg","","","","","","","false","0","","","heartS.png","","",""
"image-slider-2AFC","424","1269391","0.0-46.18-1.18","2748","","","","-26","","","","","","","","sizeS.png","1854","-26",""
"html-keyboard-response","425","1270195","0.0-46.18-2.18","null","","","","","","","null","","","","","","","",""
"image-selector-fb","426","1271991","0.0-46.19-0.19","1280","pics2/SW2.jpg,pics2/FR3.jpg","","","","","","","false","0","","","sizeS.png","","",""
"image-slider-2AFC","427","1275132","0.0-46.19-1.19","3128","","","","-33","","","","","","","","heartS.png","2078","-33",""
"html-keyboard-response","428","1275836","0.0-46.19-2.19","null","","","","","","","null","","","","","","","",""
"image-selector-fb","429","1279419","0.0-46.20-0.20","3074","pics2/FR1.jpg,pics2/FR3.jpg","","","","","","","false","0","","","sizeS.png","","",""
"image-slider-2AFC","430","1280995","0.0-46.20-1.20","1572","","","","-8","","","","","","","","sizeS.png","787","-8",""
"html-keyboard-response","431","1281799","0.0-46.20-2.20","null","","","","","","","null","","","","","","","",""
"image-selector-fb","432","1284209","0.0-46.21-0.21","1900","pics2/FR1.jpg,pics2/SW1.jpg","","","","","","","true","1","","","sizeS.png","","",""
"image-slider-2AFC","433","1286079","0.0-46.21-1.21","1865","","","","31","","","","","","","","sizeS.png","812","31",""
"html-keyboard-response","434","1286833","0.0-46.21-2.21","null","","","","","","","null","","","","","","","",""
"image-selector-fb","435","1289456","0.0-46.22-0.22","2114","pics2/SW3.jpg,pics2/FR6.jpg","","","","","","","false","0","","","heartS.png","","",""
"image-slider-2AFC","436","1291027","0.0-46.22-1.22","1566","","","","-11","","","","","","","","sizeS.png","683","-11",""
"html-keyboard-response","437","1291881","0.0-46.22-2.22","null","","","","","","","null","","","","","","","",""
"image-selector-fb","438","1294892","0.0-46.23-0.23","null","pics2/SW1.jpg,pics2/SA3.jpg","","","","","","","false","null","","","noS.png","","",""
"image-slider-2AFC","439","1297929","0.0-46.23-1.23","3028","","","","-58","","","","","","","","heartS.png","1677,2161","-33,-58",""
"html-keyboard-response","440","1298684","0.0-46.23-2.23","null","","","","","","","null","","","","","","","",""
"image-selector-fb","441","1301657","0.0-46.24-0.24","2461","pics2/FR4.jpg,pics2/SA4.jpg","","","","","","","false","0","","","heartS.png","","",""
"image-slider-2AFC","442","1304230","0.0-46.24-1.24","2567","","","","-27","","","","","","","","heartS.png","1706","-27",""
"html-keyboard-response","443","1304984","0.0-46.24-2.24","null","","","","","","","null","","","","","","","",""
"image-selector-fb","444","1307994","0.0-46.25-0.25","null","pics2/FR3.jpg,pics2/VE3.jpg","","","","","","","false","null","","","noS.png","","",""
"image-slider-2AFC","445","1309863","0.0-46.25-1.25","1856","","","","-36","","","","","","","","heartS.png","960","-36",""
"html-keyboard-response","446","1310668","0.0-46.25-2.25","null","","","","","","","null","","","","","","","",""
"image-selector-fb","447","1314827","0.0-46.26-0.26","3648","pics2/SA3.jpg,pics2/FR3.jpg","","","","","","","false","0","","","sizeS.png","","",""
"image-slider-2AFC","448","1316979","0.0-46.26-1.26","2147","","","","-27","","","","","","","","heartS.png","1152","-27",""
"html-keyboard-response","449","1317783","0.0-46.26-2.26","null","","","","","","","null","","","","","","","",""
"image-selector-fb","450","1320010","0.0-46.27-0.27","1717","pics2/SW5.jpg,pics2/SW3.jpg","","","","","","","true","1","","","sizeS.png","","",""
"image-slider-2AFC","451","1321647","0.0-46.27-1.27","1632","","","","21","","","","","","","","heartS.png","732","21",""
"html-keyboard-response","452","1322401","0.0-46.27-2.27","null","","","","","","","null","","","","","","","",""
"image-selector-fb","453","1325417","0.0-46.28-0.28","null","pics2/SA4.jpg,pics2/VE3.jpg","","","","","","","false","null","","","noS.png","","",""
"image-slider-2AFC","454","1329088","0.0-46.28-1.28","3665","","","","23","","","","","","","","sizeS.png","2898","23",""
"html-keyboard-response","455","1329892","0.0-46.28-2.28","null","","","","","","","null","","","","","","","",""
"image-selector-fb","456","1332904","0.0-46.29-0.29","null","pics2/SW3.jpg,pics2/SA3.jpg","","","","","","","false","null","","","noS.png","","",""
"image-slider-2AFC","457","1335249","0.0-46.29-1.29","2340","","","","-30","","","","","","","","sizeS.png","1091","-30",""
"html-keyboard-response","458","1336052","0.0-46.29-2.29","null","","","","","","","null","","","","","","","",""
"image-selector-fb","459","1338962","0.0-46.30-0.30","2400","pics2/FR1.jpg,pics2/SW2.jpg","","","","","","","false","0","","","sizeS.png","","",""
"image-slider-2AFC","460","1340551","0.0-46.30-1.30","1584","","","","-50","","","","","","","","sizeS.png","701","-50",""
"html-keyboard-response","461","1341255","0.0-46.30-2.30","null","","","","","","","null","","","","","","","",""
"image-selector-fb","462","1344677","0.0-46.31-0.31","2910","pics2/FR4.jpg,pics2/VE3.jpg","","","","","","","false","0","","","heartS.png","","",""
"image-slider-2AFC","463","1347487","0.0-46.31-1.31","2803","","","","-53","","","","","","","","heartS.png","1455,1954","-27,-53",""
"html-keyboard-response","464","1348342","0.0-46.31-2.31","null","","","","","","","null","","","","","","","",""
"image-selector-fb","465","1351354","0.0-46.32-0.32","null","pics2/SW5.jpg,pics2/FR1.jpg","","","","","","","false","null","","","noS.png","","",""
"image-slider-2AFC","466","1353837","0.0-46.32-1.32","2478","","","","-55","","","","","","","","heartS.png","1045","-55",""
"html-keyboard-response","467","1354541","0.0-46.32-2.32","null","","","","","","","null","","","","","","","",""
"image-selector-fb","468","1357199","0.0-46.33-0.33","2148","pics2/SW6.jpg,pics2/FR6.jpg","","","","","","","true","1","","","sizeS.png","","",""
"image-slider-2AFC","469","1358937","0.0-46.33-1.33","1733","","","","-36","","","","","","","","heartS.png","867","-36",""
"html-keyboard-response","470","1359791","0.0-46.33-2.33","null","","","","","","","null","","","","","","","",""
"image-selector-fb","471","1362664","0.0-46.34-0.34","2363","pics2/SW5.jpg,pics2/FR3.jpg","","","","","","","false","0","","","sizeS.png","","",""
"image-slider-2AFC","472","1364718","0.0-46.34-1.34","2050","","","","-47","","","","","","","","sizeS.png","1069","-47",""
"html-keyboard-response","473","1365473","0.0-46.34-2.34","null","","","","","","","null","","","","","","","",""
"image-selector-fb","474","1367688","0.0-46.35-0.35","1701","pics2/FR6.jpg,pics2/SW2.jpg","","","","","","","true","1","","","heartS.png","","",""
"image-slider-2AFC","475","1369538","0.0-46.35-1.35","1845","","","","35","","","","","","","","sizeS.png","1064","35",""
"html-keyboard-response","476","1370343","0.0-46.35-2.35","null","","","","","","","null","","","","","","","",""
"image-selector-fb","477","1372534","0.0-46.36-0.36","1679","pics2/SA3.jpg,pics2/SW3.jpg","","","","","","","true","1","","","heartS.png","","",""
"image-slider-2AFC","478","1375505","0.0-46.36-1.36","2966","","","","-22","","","","","","","","sizeS.png","1058,2189","32,-22",""
"html-keyboard-response","479","1376260","0.0-46.36-2.36","null","","","","","","","null","","","","","","","",""
"image-selector-fb","480","1378373","0.0-46.37-0.37","1597","pics2/FR4.jpg,pics2/SW3.jpg","","","","","","","true","1","","","heartS.png","","",""
"image-slider-2AFC","481","1380122","0.0-46.37-1.37","1743","","","","30","","","","","","","","heartS.png","959","30",""
"html-keyboard-response","482","1380926","0.0-46.37-2.37","null","","","","","","","null","","","","","","","",""
"image-selector-fb","483","1382734","0.0-46.38-0.38","1296","pics2/SA4.jpg,pics2/SW5.jpg","","","","","","","true","1","","","sizeS.png","","",""
"image-slider-2AFC","484","1384340","0.0-46.38-1.38","1600","","","","36","","","","","","","","sizeS.png","765","36",""
"html-keyboard-response","485","1385094","0.0-46.38-2.38","null","","","","","","","null","","","","","","","",""
"image-selector-fb","486","1386800","0.0-46.39-0.39","1197","pics2/FR6.jpg,pics2/SW3.jpg","","","","","","","true","1","","","sizeS.png","","",""
"image-slider-2AFC","487","1388342","0.0-46.39-1.39","1537","","","","31","","","","","","","","heartS.png","658","31",""
"html-keyboard-response","488","1389096","0.0-46.39-2.39","null","","","","","","","null","","","","","","","",""
"image-selector-fb","489","1391153","0.0-46.40-0.40","1539","pics2/SW5.jpg,pics2/SW6.jpg","","","","","","","false","0","","","heartS.png","","",""
"image-slider-2AFC","490","1392974","0.0-46.40-1.40","1815","","","","-12","","","","","","","","sizeS.png","971","-12",""
"html-keyboard-response","491","1393728","0.0-46.40-2.40","null","","","","","","","null","","","","","","","",""
"image-selector-fb","492","1396738","0.0-46.41-0.41","null","pics2/SW2.jpg,pics2/SA3.jpg","","","","","","","false","null","","","noS.png","","",""
"image-slider-2AFC","493","1399643","0.0-46.41-1.41","2900","","","","-29","","","","","","","","heartS.png","1581","-29",""
"html-keyboard-response","494","1400396","0.0-46.41-2.41","null","","","","","","","null","","","","","","","",""
"image-selector-fb","495","1403318","0.0-46.42-0.42","2413","pics2/SW6.jpg,pics2/FR3.jpg","","","","","","","false","0","","","sizeS.png","","",""
"image-slider-2AFC","496","1405514","0.0-46.42-1.42","2184","","","","-3","","","","","","","","heartS.png","1343","-3",""
"html-keyboard-response","497","1406220","0.0-46.42-2.42","null","","","","","","","null","","","","","","","",""
"image-selector-fb","498","1408655","0.0-46.43-0.43","1923","pics2/SW3.jpg,pics2/SW2.jpg","","","","","","","true","1","","","heartS.png","","",""
"image-slider-2AFC","499","1410595","0.0-46.43-1.43","1935","","","","11","","","","","","","","sizeS.png","1053","11",""
"html-keyboard-response","500","1411300","0.0-46.43-2.43","null","","","","","","","null","","","","","","","",""
"image-selector-fb","501","1413772","0.0-46.44-0.44","1962","pics2/SA4.jpg,pics2/FR3.jpg","","","","","","","true","1","","","sizeS.png","","",""
"image-slider-2AFC","502","1415509","0.0-46.44-1.44","1732","","","","11","","","","","","","","heartS.png","899","11",""
"html-keyboard-response","503","1416363","0.0-46.44-2.44","null","","","","","","","null","","","","","","","",""
"image-selector-fb","504","1419304","0.0-46.45-0.45","2425","pics2/FR4.jpg,pics2/FR1.jpg","","","","","","","true","1","","","heartS.png","","",""
"image-slider-2AFC","505","1423678","0.0-46.45-1.45","4368","","","","43","","","","","","","","sizeS.png","1234,2436","25,43",""
"html-keyboard-response","506","1424482","0.0-46.45-2.45","null","","","","","","","null","","","","","","","",""
"image-selector-fb","507","1427493","0.0-46.46-0.46","null","pics2/FR4.jpg,pics2/VE3.jpg","","","","","","","false","null","","","noS.png","","",""
"image-slider-2AFC","508","1432500","0.0-46.46-1.46","null","","","","null","","","","","","","","sizeS.png","4569","16",""
"html-keyboard-response","509","1433206","0.0-46.46-2.46","null","","","","","","","null","","","","","","","",""
"image-selector-fb","510","1435890","0.0-46.47-0.47","2174","pics2/FR1.jpg,pics2/SW3.jpg","","","","","","","false","0","","","sizeS.png","","",""
"image-slider-2AFC","511","1440711","0.0-46.47-1.47","4815","","","","27","","","","","","","","heartS.png","704,3048","-25,27",""
"html-keyboard-response","512","1441565","0.0-46.47-2.47","null","","","","","","","null","","","","","","","",""
"image-selector-fb","513","1443692","0.0-46.48-0.48","1617","pics2/SA4.jpg,pics2/SA3.jpg","","","","","","","true","1","","","sizeS.png","","",""
"image-slider-2AFC","514","1446564","0.0-46.48-1.48","2867","","","","59","","","","","","","","sizeS.png","1941","59",""
"html-keyboard-response","515","1447419","0.0-46.48-2.48","null","","","","","","","null","","","","","","","",""
"image-selector-fb","516","1450430","0.0-46.49-0.49","null","pics2/SW2.jpg,pics2/FR4.jpg","","","","","","","false","null","","","noS.png","","",""
"image-slider-2AFC","517","1454966","0.0-46.49-1.49","4531","","","","-23","","","","","","","","heartS.png","3656","-23",""
"html-keyboard-response","518","1455772","0.0-46.49-2.49","null","","","","","","","null","","","","","","","",""
"image-selector-fb","519","1458786","0.0-46.50-0.50","null","pics2/VE3.jpg,pics2/FR6.jpg","","","","","","","false","null","","","noS.png","","",""
"image-slider-2AFC","520","1461232","0.0-46.50-1.50","2441","","","","-31","","","","","","","","sizeS.png","1613","-31",""
"html-keyboard-response","521","1461936","0.0-46.50-2.50","null","","","","","","","null","","","","","","","",""
"image-selector-fb","522","1464947","0.0-46.51-0.51","null","pics2/FR1.jpg,pics2/FR4.jpg","","","","","","","false","null","","","noS.png","","",""
"image-slider-2AFC","523","1467038","0.0-46.51-1.51","2083","","","","-19","","","","","","","","sizeS.png","1219","-19",""
"html-keyboard-response","524","1467894","0.0-46.51-2.51","null","","","","","","","null","","","","","","","",""
"image-selector-fb","525","1470907","0.0-46.52-0.52","null","pics2/SW6.jpg,pics2/SA4.jpg","","","","","","","false","null","","","noS.png","","",""
"image-slider-2AFC","526","1472666","0.0-46.52-1.52","1754","","","","-34","","","","","","","","sizeS.png","906","-34",""
"html-keyboard-response","527","1473521","0.0-46.52-2.52","null","","","","","","","null","","","","","","","",""
"image-selector-fb","528","1476378","0.0-46.53-0.53","2347","pics2/SA4.jpg,pics2/FR6.jpg","","","","","","","true","1","","","sizeS.png","","",""
"image-slider-2AFC","529","1479468","0.0-46.53-1.53","3084","","","","5","","","","","","","","heartS.png","872,2054","37,5",""
"html-keyboard-response","530","1480223","0.0-46.53-2.53","null","","","","","","","null","","","","","","","",""
"image-selector-fb","531","1482269","0.0-46.54-0.54","1535","pics2/VE3.jpg,pics2/SW3.jpg","","","","","","","true","1","","","sizeS.png","","",""
"image-slider-2AFC","532","1484085","0.0-46.54-1.54","1810","","","","24","","","","","","","","sizeS.png","1068","24",""
"html-keyboard-response","533","1484939","0.0-46.54-2.54","null","","","","","","","null","","","","","","","",""
"image-selector-fb","534","1487297","0.0-46.55-0.55","1846","pics2/SA4.jpg,pics2/SW2.jpg","","","","","","","true","1","","","sizeS.png","","",""
"image-slider-2AFC","535","1489203","0.0-46.55-1.55","1901","","","","28","","","","","","","","heartS.png","1108","28",""
"html-keyboard-response","536","1489957","0.0-46.55-2.55","null","","","","","","","null","","","","","","","",""
"image-selector-fb","537","1492180","0.0-46.56-0.56","1713","pics2/SW2.jpg,pics2/SA3.jpg","","","","","","","false","0","","","sizeS.png","","",""
"image-slider-2AFC","538","1495304","0.0-46.56-1.56","3119","","","","-25","","","","","","","","sizeS.png","1027","-25",""
"html-keyboard-response","539","1496110","0.0-46.56-2.56","null","","","","","","","null","","","","","","","",""
"image-selector-fb","540","1498115","0.0-46.57-0.57","1493","pics2/FR3.jpg,pics2/FR6.jpg","","","","","","","false","0","","","heartS.png","","",""
"image-slider-2AFC","541","1500071","0.0-46.57-1.57","1950","","","","-27","","","","","","","","sizeS.png","1088","-27",""
"html-keyboard-response","542","1500775","0.0-46.57-2.57","null","","","","","","","null","","","","","","","",""
"image-selector-fb","543","1503017","0.0-46.58-0.58","1731","pics2/SW6.jpg,pics2/SW3.jpg","","","","","","","true","1","","","sizeS.png","","",""
"image-slider-2AFC","544","1505555","0.0-46.58-1.58","2532","","","","47","","","","","","","","sizeS.png","1648","47",""
"html-keyboard-response","545","1506308","0.0-46.58-2.58","null","","","","","","","null","","","","","","","",""
"image-selector-fb","546","1508601","0.0-46.59-0.59","1783","pics2/SW2.jpg,pics2/SW1.jpg","","","","","","","true","1","","","sizeS.png","","",""
"image-slider-2AFC","547","1512387","0.0-46.59-1.59","3776","","","","34","","","","","","","","heartS.png","1963","34",""
"html-keyboard-response","548","1513243","0.0-46.59-2.59","null","","","","","","","null","","","","","","","",""
"image-selector-fb","549","1514933","0.0-46.60-0.60","1179","pics2/FR6.jpg,pics2/SW1.jpg","","","","","","","true","1","","","sizeS.png","","",""
"image-slider-2AFC","550","1516608","0.0-46.60-1.60","1669","","","","40","","","","","","","","sizeS.png","855","40",""
"html-keyboard-response","551","1517361","0.0-46.60-2.60","null","","","","","","","null","","","","","","","",""
"image-selector-fb","552","1519605","0.0-46.61-0.61","1731","pics2/FR4.jpg,pics2/SW1.jpg","","","","","","","true","1","","","heartS.png","","",""
"image-slider-2AFC","553","1522305","0.0-46.61-1.61","2694","","","","50","","","","","","","","sizeS.png","1800","50",""
"html-keyboard-response","554","1523009","0.0-46.61-2.61","null","","","","","","","null","","","","","","","",""
"image-selector-fb","555","1525303","0.0-46.62-0.62","1782","pics2/SW6.jpg,pics2/VE3.jpg","","","","","","","true","1","","","sizeS.png","","",""
"image-slider-2AFC","556","1527027","0.0-46.62-1.62","1719","","","","45","","","","","","","","sizeS.png","887","45",""
"html-keyboard-response","557","1527731","0.0-46.62-2.62","null","","","","","","","null","","","","","","","",""
"image-selector-fb","558","1529836","0.0-46.63-0.63","1595","pics2/SW3.jpg,pics2/FR3.jpg","","","","","","","false","0","","","sizeS.png","","",""
"image-slider-2AFC","559","1531779","0.0-46.63-1.63","1938","","","","-25","","","","","","","","sizeS.png","853","-25",""
"html-keyboard-response","560","1532485","0.0-46.63-2.63","null","","","","","","","null","","","","","","","",""
"image-selector-fb","561","1535498","0.0-46.64-0.64","null","pics2/SW6.jpg,pics2/SW2.jpg","","","","","","","false","null","","","noS.png","","",""
"image-slider-2AFC","562","1537961","0.0-46.64-1.64","2458","","","","50","","","","","","","","sizeS.png","1540","50",""
"html-keyboard-response","563","1538815","0.0-46.64-2.64","null","","","","","","","null","","","","","","","",""
"image-selector-fb","564","1541104","0.0-46.65-0.65","1778","pics2/SW1.jpg,pics2/FR4.jpg","","","","","","","false","0","","","sizeS.png","","",""
"image-slider-2AFC","565","1542675","0.0-46.65-1.65","1566","","","","-29","","","","","","","","sizeS.png","703","-29",""
"html-keyboard-response","566","1543430","0.0-46.65-2.65","null","","","","","","","null","","","","","","","",""
"pavlovia","567","1543470","0.0-47.0","","","","","","","","","","","","","","","",""
"html-keyboard-response","568","1548473","0.0-48.0","null","<div style='width: 700px;'> <font size=6><b>SHORT BREAK</font></b><br><br><i> Please wait 5 seconds to continue</i></div> ","","","","","","null","","","","","","","",""
"pavlovia","569","1548480","0.0-49.0","","","","","","","","","","","","","","","",""
"html-button-response","570","1610906","0.0-50.0","62424","<div style='width: 700px;'> <font size=6><b>BLOCK 3</font></b><br><br>Press the button whenever you feel ready to start the third and final block</div>","0","","","","","","","","","","","","",""
"image-selector-fb","571","1613111","0.0-51.0-0.0","1695","pics2/SW6.jpg,pics2/SW2.jpg","","","","","","","true","1","","","sizeS.png","","",""
"image-slider-2AFC","572","1615384","0.0-51.0-1.0","2265","","","","60","","","","","","","","heartS.png","1390","60",""
"html-keyboard-response","573","1616139","0.0-51.0-2.0","null","","","","","","","null","","","","","","","",""
"image-selector-fb","574","1619153","0.0-51.1-0.1","null","pics2/SW3.jpg,pics2/FR6.jpg","","","","","","","false","null","","","noS.png","","",""
"image-slider-2AFC","575","1621535","0.0-51.1-1.1","2377","","","","-35","","","","","","","","heartS.png","1560","-35",""
"html-keyboard-response","576","1622390","0.0-51.1-2.1","null","","","","","","","null","","","","","","","",""
"image-selector-fb","577","1625400","0.0-51.2-0.2","null","pics2/FR3.jpg,pics2/FR4.jpg","","","","","","","false","null","","","noS.png","","",""
"image-slider-2AFC","578","1628253","0.0-51.2-1.2","2842","","","","-22","","","","","","","","heartS.png","2028","-22",""
"html-keyboard-response","579","1629007","0.0-51.2-2.2","null","","","","","","","null","","","","","","","",""
"image-selector-fb","580","1631457","0.0-51.3-0.3","1941","pics2/FR6.jpg,pics2/VE3.jpg","","","","","","","true","1","","","heartS.png","","",""
"image-slider-2AFC","581","1632970","0.0-51.3-1.3","1510","","","","18","","","","","","","","heartS.png","728","18",""
"html-keyboard-response","582","1633674","0.0-51.3-2.3","null","","","","","","","null","","","","","","","",""
"image-selector-fb","583","1635366","0.0-51.4-0.4","1181","pics2/SW1.jpg,pics2/FR3.jpg","","","","","","","false","0","","","sizeS.png","","",""
"image-slider-2AFC","584","1637003","0.0-51.4-1.4","1631","","","","-52","","","","","","","","heartS.png","753","-52",""
"html-keyboard-response","585","1637857","0.0-51.4-2.4","null","","","","","","","null","","","","","","","",""
"image-selector-fb","586","1640868","0.0-51.5-0.5","null","pics2/FR1.jpg,pics2/SW6.jpg","","","","","","","false","null","","","noS.png","","",""
"image-slider-2AFC","587","1642686","0.0-51.5-1.5","1813","","","","-43","","","","","","","","sizeS.png","1014","-43",""
"html-keyboard-response","588","1643440","0.0-51.5-2.5","null","","","","","","","null","","","","","","","",""
"image-selector-fb","589","1645669","0.0-51.6-0.6","1711","pics2/FR3.jpg,pics2/SW2.jpg","","","","","","","true","1","","","heartS.png","","",""
"image-slider-2AFC","590","1647757","0.0-51.6-1.6","2082","","","","34","","","","","","","","sizeS.png","1228","34",""
"html-keyboard-response","591","1648511","0.0-51.6-2.6","null","","","","","","","null","","","","","","","",""
"image-selector-fb","592","1651523","0.0-51.7-0.7","null","pics2/FR3.jpg,pics2/SW6.jpg","","","","","","","false","null","","","noS.png","","",""
"image-slider-2AFC","593","1654191","0.0-51.7-1.7","2663","","","","-28","","","","","","","","heartS.png","1932","-28",""
"html-keyboard-response","594","1654895","0.0-51.7-2.7","null","","","","","","","null","","","","","","","",""
"image-selector-fb","595","1657152","0.0-51.8-0.8","1747","pics2/FR1.jpg,pics2/FR4.jpg","","","","","","","false","0","","","sizeS.png","","",""
"image-slider-2AFC","596","1658734","0.0-51.8-1.8","1576","","","","-33","","","","","","","","heartS.png","804","-33",""
"html-keyboard-response","597","1659489","0.0-51.8-2.8","null","","","","","","","null","","","","","","","",""
"image-selector-fb","598","1662670","0.0-51.9-0.9","2669","pics2/SW5.jpg,pics2/FR6.jpg","","","","","","","false","0","","","sizeS.png","","",""
"image-slider-2AFC","599","1664205","0.0-51.9-1.9","1530","","","","-34","","","","","","","","sizeS.png","720","-34",""
"html-keyboard-response","600","1664959","0.0-51.9-2.9","null","","","","","","","null","","","","","","","",""
"image-selector-fb","601","1667971","0.0-51.10-0.10","null","pics2/SW2.jpg,pics2/FR6.jpg","","","","","","","false","null","","","noS.png","","",""
"image-slider-2AFC","602","1669573","0.0-51.10-1.10","1596","","","","-32","","","","","","","","sizeS.png","815","-32",""
"html-keyboard-response","603","1670327","0.0-51.10-2.10","null","","","","","","","null","","","","","","","",""
"image-selector-fb","604","1672220","0.0-51.11-0.11","1383","pics2/FR3.jpg,pics2/FR1.jpg","","","","","","","false","0","","","heartS.png","","",""
"image-slider-2AFC","605","1673857","0.0-51.11-1.11","1632","","","","-57","","","","","","","","sizeS.png","807","-57",""
"html-keyboard-response","606","1674612","0.0-51.11-2.11","null","","","","","","","null","","","","","","","",""
"image-selector-fb","607","1676503","0.0-51.12-0.12","1382","pics2/FR3.jpg,pics2/SW6.jpg","","","","","","","false","0","","","heartS.png","","",""
"image-slider-2AFC","608","1677958","0.0-51.12-1.12","1449","","","","-48","","","","","","","","sizeS.png","687","-48",""
"html-keyboard-response","609","1678814","0.0-51.12-2.12","null","","","","","","","null","","","","","","","",""
"image-selector-fb","610","1680521","0.0-51.13-0.13","1195","pics2/SW1.jpg,pics2/SW2.jpg","","","","","","","false","0","","","heartS.png","","",""
"image-slider-2AFC","611","1682226","0.0-51.13-1.13","1699","","","","-48","","","","","","","","heartS.png","883","-48",""
"html-keyboard-response","612","1683080","0.0-51.13-2.13","null","","","","","","","null","","","","","","","",""
"image-selector-fb","613","1686092","0.0-51.14-0.14","null","pics2/FR1.jpg,pics2/SA3.jpg","","","","","","","false","null","","","noS.png","","",""
"image-slider-2AFC","614","1688410","0.0-51.14-1.14","2313","","","","-39","","","","","","","","sizeS.png","1435","-39",""
"html-keyboard-response","615","1689165","0.0-51.14-2.14","null","","","","","","","null","","","","","","","",""
"image-selector-fb","616","1691521","0.0-51.15-0.15","1838","pics2/SW2.jpg,pics2/SW3.jpg","","","","","","","false","0","","","sizeS.png","","",""
"image-slider-2AFC","617","1695146","0.0-51.15-1.15","3619","","","","-56","","","","","","","","sizeS.png","2707","-56",""
"html-keyboard-response","618","1695850","0.0-51.15-2.15","null","","","","","","","null","","","","","","","",""
"image-selector-fb","619","1697877","0.0-51.16-0.16","1517","pics2/FR1.jpg,pics2/VE3.jpg","","","","","","","false","0","","","sizeS.png","","",""
"image-slider-2AFC","620","1699565","0.0-51.16-1.16","1681","","","","-54","","","","","","","","heartS.png","913","-54",""
"html-keyboard-response","621","1700369","0.0-51.16-2.16","null","","","","","","","null","","","","","","","",""
"image-selector-fb","622","1702957","0.0-51.17-0.17","2078","pics2/SA3.jpg,pics2/FR4.jpg","","","","","","","true","1","","","sizeS.png","","",""
"image-slider-2AFC","623","1704831","0.0-51.17-1.17","1869","","","","27","","","","","","","","sizeS.png","1140","27",""
"html-keyboard-response","624","1705585","0.0-51.17-2.17","null","","","","","","","null","","","","","","","",""
"image-selector-fb","625","1708596","0.0-51.18-0.18","null","pics2/SW3.jpg,pics2/SW6.jpg","","","","","","","false","null","","","noS.png","","",""
"image-slider-2AFC","626","1711657","0.0-51.18-1.18","3054","","","","-32","","","","","","","","sizeS.png","2146","-32",""
"html-keyboard-response","627","1712513","0.0-51.18-2.18","null","","","","","","","null","","","","","","","",""
"image-selector-fb","628","1714675","0.0-51.19-0.19","1650","pics2/SW3.jpg,pics2/SW1.jpg","","","","","","","true","1","","","sizeS.png","","",""
"image-slider-2AFC","629","1716763","0.0-51.19-1.19","2082","","","","40","","","","","","","","sizeS.png","1220","40",""
"html-keyboard-response","630","1717468","0.0-51.19-2.19","null","","","","","","","null","","","","","","","",""
"image-selector-fb","631","1720480","0.0-51.20-0.20","null","pics2/FR4.jpg,pics2/SW1.jpg","","","","","","","false","null","","","noS.png","","",""
"image-slider-2AFC","632","1722286","0.0-51.20-1.20","1800","","","","42","","","","","","","","heartS.png","949","42",""
"html-keyboard-response","633","1723093","0.0-51.20-2.20","null","","","","","","","null","","","","","","","",""
"image-selector-fb","634","1726025","0.0-51.21-0.21","2420","pics2/FR6.jpg,pics2/FR4.jpg","","","","","","","true","1","","","sizeS.png","","",""
"image-slider-2AFC","635","1727899","0.0-51.21-1.21","1869","","","","27","","","","","","","","heartS.png","1089","27",""
"html-keyboard-response","636","1728653","0.0-51.21-2.21","null","","","","","","","null","","","","","","","",""
"image-selector-fb","637","1731772","0.0-51.22-0.22","2609","pics2/SW6.jpg,pics2/SA4.jpg","","","","","","","true","1","","","sizeS.png","","",""
"image-slider-2AFC","638","1733017","0.0-51.22-1.22","1242","","","","-13","","","","","","","","sizeS.png","578","-13",""
"html-keyboard-response","639","1733771","0.0-51.22-2.22","null","","","","","","","null","","","","","","","",""
"image-selector-fb","640","1736292","0.0-51.23-0.23","2012","pics2/SA4.jpg,pics2/SW3.jpg","","","","","","","true","1","","","sizeS.png","","",""
"image-slider-2AFC","641","1737899","0.0-51.23-1.23","1600","","","","32","","","","","","","","sizeS.png","775","32",""
"html-keyboard-response","642","1738605","0.0-51.23-2.23","null","","","","","","","null","","","","","","","",""
"image-selector-fb","643","1741394","0.0-51.24-0.24","2277","pics2/SW2.jpg,pics2/SW5.jpg","","","","","","","true","1","","","heartS.png","","",""
"image-slider-2AFC","644","1743160","0.0-51.24-1.24","1761","","","","35","","","","","","","","sizeS.png","900","35",""
"html-keyboard-response","645","1743864","0.0-51.24-2.24","null","","","","","","","null","","","","","","","",""
"image-selector-fb","646","1746875","0.0-51.25-0.25","null","pics2/FR4.jpg,pics2/SA3.jpg","","","","","","","false","null","","","noS.png","","",""
"image-slider-2AFC","647","1749699","0.0-51.25-1.25","2819","","","","44","","","","","","","","sizeS.png","1986","44",""
"html-keyboard-response","648","1750552","0.0-51.25-2.25","null","","","","","","","null","","","","","","","",""
"image-selector-fb","649","1752779","0.0-51.26-0.26","1717","pics2/SW2.jpg,pics2/FR6.jpg","","","","","","","false","0","","","sizeS.png","","",""
"image-slider-2AFC","650","1754449","0.0-51.26-1.26","1665","","","","-26","","","","","","","","heartS.png","819","-26",""
"html-keyboard-response","651","1755304","0.0-51.26-2.26","null","","","","","","","null","","","","","","","",""
"image-selector-fb","652","1758318","0.0-51.27-0.27","null","pics2/SW3.jpg,pics2/FR4.jpg","","","","","","","false","null","","","noS.png","","",""
"image-slider-2AFC","653","1760802","0.0-51.27-1.27","2479","","","","-23","","","","","","","","sizeS.png","1500","-23",""
"html-keyboard-response","654","1761606","0.0-51.27-2.27","null","","","","","","","null","","","","","","","",""
"image-selector-fb","655","1764623","0.0-51.28-0.28","null","pics2/SW2.jpg,pics2/SA4.jpg","","","","","","","false","null","","","noS.png","","",""
"image-slider-2AFC","656","1768304","0.0-51.28-1.28","3673","","","","-33","","","","","","","","sizeS.png","1244","-33",""
"html-keyboard-response","657","1769009","0.0-51.28-2.28","null","","","","","","","null","","","","","","","",""
"image-selector-fb","658","1771261","0.0-51.29-0.29","1742","pics2/SW5.jpg,pics2/SW2.jpg","","","","","","","true","1","","","sizeS.png","","",""
"image-slider-2AFC","659","1772584","0.0-51.29-1.29","1317","","","","25","","","","","","","","sizeS.png","503","25",""
"html-keyboard-response","660","1773338","0.0-51.29-2.29","null","","","","","","","null","","","","","","","",""
"image-selector-fb","661","1776348","0.0-51.30-0.30","null","pics2/FR3.jpg,pics2/SA3.jpg","","","","","","","false","null","","","noS.png","","",""
"image-slider-2AFC","662","1780219","0.0-51.30-1.30","3866","","","","-25","","","","","","","","heartS.png","3088","-25",""
"html-keyboard-response","663","1781073","0.0-51.30-2.30","null","","","","","","","null","","","","","","","",""
"image-selector-fb","664","1784948","0.0-51.31-0.31","3364","pics2/SW3.jpg,pics2/SA3.jpg","","","","","","","true","1","","","sizeS.png","","",""
"image-slider-2AFC","665","1789821","0.0-51.31-1.31","4867","","","","-31","","","","","","","","heartS.png","2088,4035","43,-31",""
"html-keyboard-response","666","1790575","0.0-51.31-2.31","null","","","","","","","null","","","","","","","",""
"image-selector-fb","667","1793553","0.0-51.32-0.32","2463","pics2/FR4.jpg,pics2/SW5.jpg","","","","","","","true","1","","","heartS.png","","",""
"image-slider-2AFC","668","1794992","0.0-51.32-1.32","1433","","","","33","","","","","","","","heartS.png","649","33",""
"html-keyboard-response","669","1795746","0.0-51.32-2.32","null","","","","","","","null","","","","","","","",""
"image-selector-fb","670","1798681","0.0-51.33-0.33","2424","pics2/FR6.jpg,pics2/FR3.jpg","","","","","","","true","1","","","sizeS.png","","",""
"image-slider-2AFC","671","1800305","0.0-51.33-1.33","1618","","","","36","","","","","","","","sizeS.png","854","36",""
"html-keyboard-response","672","1801159","0.0-51.33-2.33","null","","","","","","","null","","","","","","","",""
"image-selector-fb","673","1804171","0.0-51.34-0.34","null","pics2/SW1.jpg,pics2/FR6.jpg","","","","","","","false","null","","","noS.png","","",""
"image-slider-2AFC","674","1806321","0.0-51.34-1.34","2145","","","","-30","","","","","","","","sizeS.png","1317","-30",""
"html-keyboard-response","675","1807026","0.0-51.34-2.34","null","","","","","","","null","","","","","","","",""
"image-selector-fb","676","1809983","0.0-51.35-0.35","2447","pics2/FR1.jpg,pics2/SW5.jpg","","","","","","","false","0","","","sizeS.png","","",""
"image-slider-2AFC","677","1814989","0.0-51.35-1.35","null","","","","null","","","","","","","","heartS.png","2271,4406","-47,62",""
"html-keyboard-response","678","1815744","0.0-51.35-2.35","null","","","","","","","null","","","","","","","",""
"image-selector-fb","679","1818757","0.0-51.36-0.36","null","pics2/SW6.jpg,pics2/FR6.jpg","","","","","","","false","null","","","noS.png","","",""
"image-slider-2AFC","680","1821874","0.0-51.36-1.36","3112","","","","45","","","","","","","","sizeS.png","2276","45",""
"html-keyboard-response","681","1822578","0.0-51.36-2.36","null","","","","","","","null","","","","","","","",""
"image-selector-fb","682","1825103","0.0-51.37-0.37","2016","pics2/FR1.jpg,pics2/SW6.jpg","","","","","","","false","0","","","heartS.png","","",""
"image-slider-2AFC","683","1828508","0.0-51.37-1.37","3400","","","","-29","","","","","","","","sizeS.png","2533","-29",""
"html-keyboard-response","684","1829362","0.0-51.37-2.37","null","","","","","","","null","","","","","","","",""
"image-selector-fb","685","1833872","0.0-51.38-0.38","null","pics2/FR4.jpg,pics2/FR3.jpg","","","","","","","false","null","","","heartS.png","","",""
"image-slider-2AFC","686","1833874","0.0-51.38-1.38","null","","","","null","","","","","","","","sizeS.png","","",""
"html-keyboard-response","687","1834728","0.0-51.38-2.38","null","","","","","","","null","","","","","","","",""
"image-selector-fb","688","1836878","0.0-51.39-0.39","1638","pics2/SA3.jpg,pics2/FR1.jpg","","","","","","","true","1","","","heartS.png","","",""
"image-slider-2AFC","689","1840890","0.0-51.39-1.39","4005","","","","51","","","","","","","","heartS.png","1995","51",""
"html-keyboard-response","690","1841595","0.0-51.39-2.39","null","","","","","","","null","","","","","","","",""
"image-selector-fb","691","1844608","0.0-51.40-0.40","null","pics2/FR3.jpg,pics2/FR6.jpg","","","","","","","false","null","","","noS.png","","",""
"image-slider-2AFC","692","1846991","0.0-51.40-1.40","2378","","","","-24","","","","","","","","sizeS.png","1597","-24",""
"html-keyboard-response","693","1847696","0.0-51.40-2.40","null","","","","","","","null","","","","","","","",""
"image-selector-fb","694","1850707","0.0-51.41-0.41","null","pics2/SW2.jpg,pics2/VE3.jpg","","","","","","","false","null","","","noS.png","","",""
"image-slider-2AFC","695","1853978","0.0-51.41-1.41","3264","","","","-29","","","","","","","","heartS.png","2437","-29",""
"html-keyboard-response","696","1854683","0.0-51.41-2.41","null","","","","","","","null","","","","","","","",""
"image-selector-fb","697","1856590","0.0-51.42-0.42","1395","pics2/VE3.jpg,pics2/SW2.jpg","","","","","","","true","1","","","heartS.png","","",""
"image-slider-2AFC","698","1858128","0.0-51.42-1.42","1533","","","","53","","","","","","","","heartS.png","700","53",""
"html-keyboard-response","699","1858983","0.0-51.42-2.42","null","","","","","","","null","","","","","","","",""
"image-selector-fb","700","1861306","0.0-51.43-0.43","1813","pics2/SW6.jpg,pics2/FR4.jpg","","","","","","","true","1","","","sizeS.png","","",""
"image-slider-2AFC","701","1863061","0.0-51.43-1.43","1750","","","","44","","","","","","","","sizeS.png","923","44",""
"html-keyboard-response","702","1863815","0.0-51.43-2.43","null","","","","","","","null","","","","","","","",""
"image-selector-fb","703","1866075","0.0-51.44-0.44","1742","pics2/SW2.jpg,pics2/SW6.jpg","","","","","","","false","0","","","heartS.png","","",""
"image-slider-2AFC","704","1868796","0.0-51.44-1.44","2715","","","","-12","","","","","","","","heartS.png","753,1885","-26,-12",""
"html-keyboard-response","705","1869651","0.0-51.44-2.44","null","","","","","","","null","","","","","","","",""
"image-selector-fb","706","1872663","0.0-51.45-0.45","null","pics2/SW5.jpg,pics2/SW6.jpg","","","","","","","false","null","","","noS.png","","",""
"image-slider-2AFC","707","1876629","0.0-51.45-1.45","3961","","","","-41","","","","","","","","heartS.png","1232,2051","-29,-41",""
"html-keyboard-response","708","1877383","0.0-51.45-2.45","null","","","","","","","null","","","","","","","",""
"image-selector-fb","709","1879534","0.0-51.46-0.46","1636","pics2/FR1.jpg,pics2/SA4.jpg","","","","","","","false","0","","","heartS.png","","",""
