"trial_type","trial_index","time_elapsed","internal_node_id","rt","stimulus","button_pressed","success","response","cat","value","key_press","correct","image_click","first_click_rt","first_click_val","symbol","all_click_rt","all_click_val","view_history"
"pavlovia","0","3","0.0-0.0","","","","","","","","","","","","","","","",""
"html-button-response","1","6061","0.0-1.0","6057","<div style='width: 700px; font-size: 150%'><font size='40'>  Welcome to our study!</font><br><br><br> <small> Our experiment is about <i>decision making</i>. You will choose and rate different food items, such as these: <br><br> <div><img src='food_combo2.png', height = '400px'></img></div>","0","","","","","","","","","","","","",""
"html-button-response","2","16051","0.0-2.0","9989","<div style='width: 700px; font-size: 150%'><br><br><br><small> <u><i>This is a multi-part study.</i></u><br><br> In the first part you will rate 24 food items twice.<br><br><div><img src=""rat1.png"" style=""width: 25%""></img></div><br>In the second part (longest) you will make repeated choices and judgements concerning the food items.<br><br><div><img src=""mainx.png"" style=""width: 50%""></img></div><br>In the third and final part, you will rate the items again and answer few short questionnaires.<br><br><div><img src=""rat2.png"" style=""width: 50%""></img></div><br><br>","0","","","","","","","","","","","","",""
"fullscreen","3","22787","0.0-3.0","","","","true","","","","","","","","","","","",""
"html-button-response","4","69856","0.0-4.0","47067","<div style='width: 900px; font-size: 150%;' <font size='20%'> In the first part of the task you will use the mouse to rate food items on <i>2 scales</i> </font></div><br><br><div style='width: 900px'><div style='float: left; width: 50%; margin-right:2.5em'><img src='heartS.png'></img><p class='small' style='text-align: justify'>When you see the heart cue you will rate food items in terms of how much like them/would like to eat them <i>right now</i>. You will rate them on a continuous scale from left (strong dislike) to right (strong liking). Before submitting your rating, try imagining how the item tastes and how much you desire it.<br><br></p></div><div ><img src='sizeS.png'></img><p class='small' style='text-align: justify'>When you see the size cue, you will rate the same food items in terms of their size. The scale goes from left (tiny) to right (very large). You should assess picture size <i><u>relative</i></u> to the white background. <b>Remember:</b> rate the size of the picture, <u>not</u> the size of the item in real life. </p></div><div style='width: 900px'><br><br><b><i>Notice:</b> by starting the rating you agree that your sumbission might be rejected at an early stage and the experiment might end, if your size ratings are not at least modestly related to objective sizes, or if you repeat the same value ratings too many times. If you don't agree, please exit by closing the browser window. </i><br><br><br>","0","","","","","","","","","","","","",""
"html-button-response","5","86101","0.0-5.0","16245","<div><img src='heartS.png'></img></div><br><div style='text-align: justify; width: 700px'>Using the mouse, rate the <b><i>likeness</b></i> of the food items (how much you like them/would like to eat them <i>right now</i>). Far right-end of the scale indicates an item you <i>like a lot</i>. Far left-end indicates an item you <i>dislike a lot</i>. Think about each answer.   <ul><li>Try <b><i>not</b></i> to give identical rating to different items.</li><li>Use the whole scale, and <b><i>not</b></i> just the extremes</ul></div><br>","0","","","","","","","","","","","","",""
"image-slider-response","6","98320","0.0-6.0-0.0-0.0","12218","pics2/VE1.jpg","","","89","VE","","","","","","","","","",""
"image-slider-response","7","104297","0.0-6.0-0.0-0.1","5770","pics2/VE3.jpg","","","65","VE","","","","","","","","","",""
"image-slider-response","8","108933","0.0-6.0-0.0-0.2","4429","pics2/VE5.jpg","","","59","VE","","","","","","","","","",""
"image-slider-response","9","112463","0.0-6.0-0.0-0.3","3328","pics2/FR1.jpg","","","69","FR","","","","","","","","","",""
"image-slider-response","10","115684","0.0-6.0-0.0-0.4","3009","pics2/FR6.jpg","","","76","FR","","","","","","","","","",""
"image-slider-response","11","119613","0.0-6.0-0.0-0.5","3729","pics2/SA3.jpg","","","39","SA","","","","","","","","","",""
"image-slider-response","12","122889","0.0-6.0-0.0-0.6","3074","pics2/FR5.jpg","","","45","FR","","","","","","","","","",""
"image-slider-response","13","127205","0.0-6.0-0.0-0.7","4101","pics2/FR4.jpg","","","79","FR","","","","","","","","","",""
"image-slider-response","14","129665","0.0-6.0-0.0-0.8","2257","pics2/SW2.jpg","","","61","SW","","","","","","","","","",""
"image-slider-response","15","132752","0.0-6.0-0.0-0.9","2875","pics2/VE2.jpg","","","74","VE","","","","","","","","","",""
"image-slider-response","16","136265","0.0-6.0-0.0-0.10","3303","pics2/SA6.jpg","","","74","SA","","","","","","","","","",""
"image-slider-response","17","139362","0.0-6.0-0.0-0.11","2886","pics2/SW4.jpg","","","84","SW","","","","","","","","","",""
"image-slider-response","18","142095","0.0-6.0-0.0-0.12","2530","pics2/SA4.jpg","","","94","SA","","","","","","","","","",""
"image-slider-response","19","146834","0.0-6.0-0.0-0.13","4527","pics2/SA1.jpg","","","94","SA","","","","","","","","","",""
"image-slider-response","20","149841","0.0-6.0-0.0-0.14","2801","pics2/SA2.jpg","","","97","SA","","","","","","","","","",""
"image-slider-response","21","154005","0.0-6.0-0.0-0.15","3956","pics2/FR3.jpg","","","82","FR","","","","","","","","","",""
"image-slider-response","22","157184","0.0-6.0-0.0-0.16","2969","pics2/SW1.jpg","","","70","SW","","","","","","","","","",""
"image-slider-response","23","159030","0.0-6.0-0.0-0.17","1644","pics2/SW6.jpg","","","62","SW","","","","","","","","","",""
"image-slider-response","24","161478","0.0-6.0-0.0-0.18","2240","pics2/FR2.jpg","","","67","FR","","","","","","","","","",""
"image-slider-response","25","165057","0.0-6.0-0.0-0.19","3376","pics2/SA5.jpg","","","0","SA","","","","","","","","","",""
"image-slider-response","26","167795","0.0-6.0-0.0-0.20","2523","pics2/SW3.jpg","","","60","SW","","","","","","","","","",""
"image-slider-response","27","169968","0.0-6.0-0.0-0.21","1960","pics2/VE6.jpg","","","59","VE","","","","","","","","","",""
"image-slider-response","28","172958","0.0-6.0-0.0-0.22","2775","pics2/VE4.jpg","","","100","VE","","","","","","","","","",""
"image-slider-response","29","175490","0.0-6.0-0.0-0.23","2321","pics2/SW5.jpg","","","72","SW","","","","","","","","","",""
"html-button-response","30","176990","0.0-7.0","1292","<div style='width: 900px;'> <font size = 6><b> End of the first rating</b><br><br>","0","","","","","","","","","","","","",""
"html-button-response","31","201957","0.0-9.0","24966","<div ><img src='sizeS.png'></img></div><br><div style='text-align: justify; width: 700px'> Using the mouse, rate the <b><i>size</b></i> of the food items <b><i> relative to the white background.</b></i> Right-end of the scale indicates a <i>very large item</i>, which covers a large portion of the white rectangle. Left-end indicates a <i>very tiny</i> item which covers a tiny portion of the white rectangle.<br><br><i><u>Remember</i></u>: everything that is not the white background also contributes to item size (e.g. packing, plates, ect.)<br><br> Please keep in mind that if the accuracy of ratings do not allign well with actual sizes, the experiment will end.  As a result it will be consider incomplete and therefore no payment would be made. Good luck!<br><br></div><br>","0","","","","","","","","","","","","",""
"html-button-response","32","208511","0.0-10.0","6553","<div ><img src='sizeS.png'></img></div><br><b><font size=6>Examples of items that you might encounter</b><br><div style='width: 750px;'><div style='width: 33.33%; float:left'><br><br><br><i>Large Item</i><br><br><img src='large.jpg', width=200px></img></div><div style='float:right'><br><br><br><i>Small Item</i><br><br><img src='small.jpg', width=200px></img></div><div ><br><br><br><i>Medium Item</i><br><br><img src='med.jpg', width=200px></img></div></div><br><br>","0","","","","","","","","","","","","",""
"image-slider-response","33","227341","0.0-11.0-0.0-0.0","18828","pics2/SW1.jpg","","","91","null","","","","","","","","","",""
"image-slider-response","34","241586","0.0-11.0-0.0-0.1","14029","pics2/SW2.jpg","","","74","null","","","","","","","","","",""
"image-slider-response","35","252492","0.0-11.0-0.0-0.2","10704","pics2/FR1.jpg","","","68","null","","","","","","","","","",""
"image-slider-response","36","259973","0.0-11.0-0.0-0.3","7267","pics2/FR2.jpg","","","42","null","","","","","","","","","",""
"image-slider-response","37","265202","0.0-11.0-0.0-0.4","5024","pics2/SA5.jpg","","","31","null","","","","","","","","","",""
"image-slider-response","38","270322","0.0-11.0-0.0-0.5","4918","pics2/SA2.jpg","","","53","null","","","","","","","","","",""
"image-slider-response","39","274178","0.0-11.0-0.0-0.6","3644","pics2/VE6.jpg","","","45","null","","","","","","","","","",""
"image-slider-response","40","279986","0.0-11.0-0.0-0.7","5592","pics2/VE2.jpg","","","58","null","","","","","","","","","",""
"image-slider-response","41","282946","0.0-11.0-0.0-0.8","2744","pics2/VE4.jpg","","","66","null","","","","","","","","","",""
"image-slider-response","42","290370","0.0-11.0-0.0-0.9","7222","pics2/VE3.jpg","","","70","null","","","","","","","","","",""
"image-slider-response","43","293567","0.0-11.0-0.0-0.10","2988","pics2/SA6.jpg","","","41","null","","","","","","","","","",""
"image-slider-response","44","296281","0.0-11.0-0.0-0.11","2498","pics2/SW6.jpg","","","38","null","","","","","","","","","",""
"image-slider-response","45","299793","0.0-11.0-0.0-0.12","3297","pics2/SA1.jpg","","","95","null","","","","","","","","","",""
"image-slider-response","46","305663","0.0-11.0-0.0-0.13","5661","pics2/SW3.jpg","","","82","null","","","","","","","","","",""
"image-slider-response","47","310805","0.0-11.0-0.0-0.14","4927","pics2/VE1.jpg","","","79","null","","","","","","","","","",""
"image-slider-response","48","314569","0.0-11.0-0.0-0.15","3560","pics2/FR3.jpg","","","62","null","","","","","","","","","",""
"image-slider-response","49","318405","0.0-11.0-0.0-0.16","3634","pics2/SA3.jpg","","","45","null","","","","","","","","","",""
"image-slider-response","50","321662","0.0-11.0-0.0-0.17","3042","pics2/VE5.jpg","","","44","null","","","","","","","","","",""
"image-slider-response","51","327023","0.0-11.0-0.0-0.18","5146","pics2/FR5.jpg","","","46","null","","","","","","","","","",""
"image-slider-response","52","331568","0.0-11.0-0.0-0.19","4344","pics2/FR4.jpg","","","66","null","","","","","","","","","",""
"image-slider-response","53","334643","0.0-11.0-0.0-0.20","2861","pics2/FR6.jpg","","","35","null","","","","","","","","","",""
"image-slider-response","54","339254","0.0-11.0-0.0-0.21","4405","pics2/SW4.jpg","","","33","null","","","","","","","","","",""
"image-slider-response","55","341582","0.0-11.0-0.0-0.22","2119","pics2/SW5.jpg","","","55","null","","","","","","","","","",""
"image-slider-response","56","343755","0.0-11.0-0.0-0.23","1968","pics2/SA4.jpg","","","40","null","","","","","","","","","",""
"html-button-response","57","344947","0.0-12.0","982","<div style='width: 900px;'> <font size = 6><b> End of the second rating</b><br><br>","0","","","","","","","","","","","","",""
"html-button-response","58","351345","0.0-13.0","6397","<div style='width: 900px;'>Now please rate the items for the second time. <br><br>This is not a memory test - you don't need to be consistent with your previous ratings. Just as before, try to make accurate judgements.<br><br>","0","","","","","","","","","","","","",""
"html-button-response","59","359642","0.0-14.0","8296","<div><img src='heartS.png'></img></div><br><div style='text-align: justify; width: 700px'>Using the mouse, rate the <b><i>likeness</b></i> of the food items (how much you like them/would like to eat them <i>right now</i>). Far right-end of the scale indicates an item you <i>like a lot</i>. Far left-end indicates an item you <i>dislike a lot</i>. Think about each answer.   <ul><li>Try <b><i>not</b></i> to give identical rating to different items.</li><li>Use the whole scale, and <b><i>not</b></i> just the extremes</ul></div><br>","0","","","","","","","","","","","","",""
"image-slider-response","60","363021","0.0-15.0-0.0-0.0","3378","pics2/FR5.jpg","","","58","FR","","","","","","","","","",""
"image-slider-response","61","365838","0.0-15.0-0.0-0.1","2608","pics2/VE4.jpg","","","100","VE","","","","","","","","","",""
"image-slider-response","62","368666","0.0-15.0-0.0-0.2","2620","pics2/SW4.jpg","","","100","SW","","","","","","","","","",""
"image-slider-response","63","372205","0.0-15.0-0.0-0.3","3331","pics2/SA3.jpg","","","36","SA","","","","","","","","","",""
"image-slider-response","64","374187","0.0-15.0-0.0-0.4","1766","pics2/SW6.jpg","","","57","SW","","","","","","","","","",""
"image-slider-response","65","376641","0.0-15.0-0.0-0.5","2246","pics2/VE3.jpg","","","73","VE","","","","","","","","","",""
"image-slider-response","66","378574","0.0-15.0-0.0-0.6","1720","pics2/FR2.jpg","","","75","FR","","","","","","","","","",""
"image-slider-response","67","380990","0.0-15.0-0.0-0.7","2210","pics2/SW1.jpg","","","83","SW","","","","","","","","","",""
"image-slider-response","68","383152","0.0-15.0-0.0-0.8","1960","pics2/SW3.jpg","","","82","SW","","","","","","","","","",""
"image-slider-response","69","386333","0.0-15.0-0.0-0.9","2966","pics2/VE2.jpg","","","71","VE","","","","","","","","","",""
"image-slider-response","70","388006","0.0-15.0-0.0-0.10","1459","pics2/VE6.jpg","","","57","VE","","","","","","","","","",""
"image-slider-response","71","390794","0.0-15.0-0.0-0.11","2579","pics2/VE1.jpg","","","88","VE","","","","","","","","","",""
"image-slider-response","72","392638","0.0-15.0-0.0-0.12","1639","pics2/FR3.jpg","","","76","FR","","","","","","","","","",""
"image-slider-response","73","395281","0.0-15.0-0.0-0.13","2431","pics2/FR4.jpg","","","92","FR","","","","","","","","","",""
"image-slider-response","74","397883","0.0-15.0-0.0-0.14","2386","pics2/SA4.jpg","","","100","SA","","","","","","","","","",""
"image-slider-response","75","400326","0.0-15.0-0.0-0.15","2241","pics2/SA5.jpg","","","0","SA","","","","","","","","","",""
"image-slider-response","76","403311","0.0-15.0-0.0-0.16","2778","pics2/FR1.jpg","","","74","FR","","","","","","","","","",""
"image-slider-response","77","405522","0.0-15.0-0.0-0.17","2009","pics2/SA1.jpg","","","87","SA","","","","","","","","","",""
"image-slider-response","78","408383","0.0-15.0-0.0-0.18","2659","pics2/SW2.jpg","","","59","SW","","","","","","","","","",""
"image-slider-response","79","410467","0.0-15.0-0.0-0.19","1869","pics2/FR6.jpg","","","74","FR","","","","","","","","","",""
"image-slider-response","80","412352","0.0-15.0-0.0-0.20","1669","pics2/SW5.jpg","","","56","SW","","","","","","","","","",""
"image-slider-response","81","415429","0.0-15.0-0.0-0.21","2876","pics2/SA6.jpg","","","69","SA","","","","","","","","","",""
"image-slider-response","82","418318","0.0-15.0-0.0-0.22","2681","pics2/VE5.jpg","","","76","VE","","","","","","","","","",""
"image-slider-response","83","420629","0.0-15.0-0.0-0.23","2107","pics2/SA2.jpg","","","86","SA","","","","","","","","","",""
"call-function","84","420834","0.0-16.0","","","","","","","","","","","","","","","",""
"call-function","85","420836","0.0-17.0","","","","","","","","","","","","","","","",""
"html-button-response","86","421678","0.0-18.0","842","<div style='width: 900px;'> <font size = 6><b> End of the first rating</b><br><br>","0","","","","","","","","","","","","",""
"html-button-response","87","440031","0.0-19.0","18351","<div ><img src='sizeS.png'></img></div><br><div style='text-align: justify; width: 700px'> Using the mouse, rate the <b><i>size</b></i> of the food items <b><i> relative to the white background.</b></i> Right-end of the scale indicates a <i>very large item</i>, which covers a large portion of the white rectangle. Left-end indicates a <i>very tiny</i> item which covers a tiny portion of the white rectangle.<br><br><i><u>Remember</i></u>: everything that is not the white background also contributes to item size (e.g. packing, plates, ect.)<br><br> Please keep in mind that if the accuracy of ratings do not allign well with actual sizes, the experiment will end.  As a result it will be consider incomplete and therefore no payment would be made. Good luck!<br><br></div><br>","0","","","","","","","","","","","","",""
"image-slider-response","88","447572","0.0-20.0-0.0-0.0","7540","pics2/FR6.jpg","","","53","null","","","","","","","","","",""
"image-slider-response","89","452006","0.0-20.0-0.0-0.1","4224","pics2/SW2.jpg","","","88","null","","","","","","","","","",""
"image-slider-response","90","456289","0.0-20.0-0.0-0.2","4072","pics2/SW5.jpg","","","71","null","","","","","","","","","",""
"image-slider-response","91","459689","0.0-20.0-0.0-0.3","3197","pics2/SA3.jpg","","","53","null","","","","","","","","","",""
"image-slider-response","92","463197","0.0-20.0-0.0-0.4","3305","pics2/SA4.jpg","","","41","null","","","","","","","","","",""
"image-slider-response","93","465763","0.0-20.0-0.0-0.5","2358","pics2/SW1.jpg","","","100","null","","","","","","","","","",""
"image-slider-response","94","468022","0.0-20.0-0.0-0.6","2045","pics2/VE2.jpg","","","83","null","","","","","","","","","",""
"image-slider-response","95","470649","0.0-20.0-0.0-0.7","2425","pics2/FR5.jpg","","","53","null","","","","","","","","","",""
"image-slider-response","96","472636","0.0-20.0-0.0-0.8","1778","pics2/FR3.jpg","","","57","null","","","","","","","","","",""
"image-slider-response","97","474920","0.0-20.0-0.0-0.9","2082","pics2/SA2.jpg","","","41","null","","","","","","","","","",""
"image-slider-response","98","478242","0.0-20.0-0.0-0.10","3113","pics2/SW4.jpg","","","45","null","","","","","","","","","",""
"image-slider-response","99","482536","0.0-20.0-0.0-0.11","4092","pics2/SW6.jpg","","","30","null","","","","","","","","","",""
"image-slider-response","100","485381","0.0-20.0-0.0-0.12","2629","pics2/VE5.jpg","","","42","null","","","","","","","","","",""
"image-slider-response","101","487508","0.0-20.0-0.0-0.13","1921","pics2/VE3.jpg","","","66","null","","","","","","","","","",""
"image-slider-response","102","493396","0.0-20.0-0.0-0.14","5680","pics2/VE1.jpg","","","80","null","","","","","","","","","",""
"image-slider-response","103","496761","0.0-20.0-0.0-0.15","3153","pics2/FR1.jpg","","","67","null","","","","","","","","","",""
"image-slider-response","104","500688","0.0-20.0-0.0-0.16","3724","pics2/SA5.jpg","","","24","null","","","","","","","","","",""
"image-slider-response","105","503503","0.0-20.0-0.0-0.17","2613","pics2/FR4.jpg","","","67","null","","","","","","","","","",""
"image-slider-response","106","506198","0.0-20.0-0.0-0.18","2480","pics2/FR2.jpg","","","86","null","","","","","","","","","",""
"image-slider-response","107","508559","0.0-20.0-0.0-0.19","2154","pics2/VE4.jpg","","","73","null","","","","","","","","","",""
"image-slider-response","108","512359","0.0-20.0-0.0-0.20","3591","pics2/SW3.jpg","","","84","null","","","","","","","","","",""
"image-slider-response","109","515400","0.0-20.0-0.0-0.21","2838","pics2/SA1.jpg","","","93","null","","","","","","","","","",""
"image-slider-response","110","517541","0.0-20.0-0.0-0.22","1934","pics2/SA6.jpg","","","68","null","","","","","","","","","",""
"image-slider-response","111","520474","0.0-20.0-0.0-0.23","2727","pics2/VE6.jpg","","","47","null","","","","","","","","","",""
"call-function","112","520679","0.0-21.0","","","","","","","","","","","","","","","",""
"html-button-response","113","521582","0.0-22.0","902","<div style='width: 900px;'> <font size = 6><b> End of the second rating</b><br><br>","0","","","","","","","","","","","","",""
"pavlovia","114","521586","0.0-23.0","","","","","","","","","","","","","","","",""
"html-keyboard-response","115","526589","0.0-24.0","null","<div style='width: 700px;'> <font size=6><b>SHORT BREAK</font></b><br><br><i> Please wait 5 seconds to continue</i></div> ","","","","","","null","","","","","","","",""
"pavlovia","116","526590","0.0-25.0","","","","","","","","","","","","","","","",""
"html-button-response","117","544115","0.0-26.0","17525","<div style='width: 700px;'>In the main part of the study, you will be choosing between 2 items. When it's time to choose,  this symbol will appear: <br><br><img src='chooseS.png'></img><br><br>Below, a cue will signify the type of choice: </div><br><div style='width: 700px;'><div style='float: left; width: 50%'><img src='heartS.png'></img><p class='small'>Heart cue means you should choose the item you <b><i>prefer</b></i> more.</p></div><div class='float: right; width:50%'><img src='sizeS.png'></img><p class='small'>Size cue means you should choose the <b><i>larger</b></i> item. </p></div></div><br><div style='width: 700px;'>When you click, a green square will appear around the item you chose.<br></div><div><br>","0","","","","","","","","","","","","",""
"image-selector-fb-tut","118","551448","0.0-27.0","6322","0232.jpg,0123.jpg","","","","","","","false","0","","","","","",""
"image-selector-fb-tut","119","555089","0.0-28.0","2639","0232.jpg,0123.jpg","","","","","","","false","0","","","","","",""
"html-button-response","120","560046","0.0-29.0","4957","<div style='width: 900px;'>Your choices should be both <b><i>fast and accurate</b></i>. <br><br>You will have <i>4 seconds</i> to make each choice, which should be enough consider the options and click on one of the items.<br><br>","0","","","","","","","","","","","","",""
"html-button-response","121","568054","0.0-30.0","8007","<div style='width: 900px;'>Additionally, on some choice trials you will see the <b><i>no-choice cue</b></i>: <br><br><img src='noS.png'></img> <br><br>This cue means you can't make any choice. You can examine the items, but  can't click on any of them. Just wait patiently for the cue to dissapear.<br><br>","0","","","","","","","","","","","","",""
"image-selector-fb-tut","122","570057","0.0-31.0","null","0232.jpg,0123.jpg","","","","","","","false","null","","","","","",""
"html-button-response","123","588863","0.0-32.0","18805","<div style='width: 900px;'>After each choice the items will remain on the screen and you will see this symbol: <br><br><img src='judgeS.png'></img> <br><br>This means you should rate<b> the magnitude of the difference</b> between the items using a scale: </div><br><div style='width: 900px; '><div style='float: left; width: 50%; margin-right: 2.5em; align-self:left'><img src='heartS.png'></img><p class='small' style = 'text-align: justify;'>Heart cue means you should rate <b>how much you prefer</b> one of the items over the other. Moving the scale indicator to the left means you prefer the left one; moving it to the right - right one. The more you prefer one of them, the more towards that side you should move the scale indicator. </p></div><div class='float: right; width: 50%; margin-left: 2.5em;'><img src='sizeS.png'></img><p class='small' style='text-align: justify'>Size cue means you should rate <b>how much larger</b> is one of the items over the other. Moving the scale indicator to the left means you think the left is larger; moving it to the right - right one. The greater the difference in size, the more towards that side you should move the scale indicator.</div><br>","0","","","","","","","","","","","","",""
"image-slider-2AFC-tut","124","593088","0.0-33.0","4224","","","","17","","","","","","3551","17","","","",""
"image-slider-2AFC-tut","125","600523","0.0-34.0","7435","","","","67","","","","","","6978","67","","","",""
"html-button-response","126","609200","0.0-35.0","8676","<br><br><font size = 36><b> Examples </b></font><br><br><i> 1) I would like to eat some croissants a <b>lot more</b> than doritos right now:</i><br><img src='ex1.PNG', width='62%'></img><br><br><br><i> 2) I would like to eat some doritos a <b>bit more</b> than croissants right now, but just slightly:</i><br><img src='ex2.PNG' width='62%'></img>","0","","","","","","","","","","","","",""
"html-button-response","127","612355","0.0-36.0","3154","<div style='width: 900px;'><i>Now you know everything you need to do the task!</i> <br><br>Let's start by doing a <b>short training</b>, so you'll get used to how it works. </div><br>","0","","","","","","","","","","","","",""
"image-selector-fb","128","614879","0.0-37.0-0.0","2014","pics2/SW3.jpg,pics2/SW6.jpg","","","","","","","false","0","","","heartS.png","","",""
"image-slider-2AFC","129","619880","0.0-37.0-1.0","null","","","","null","","","","","","","","sizeS.png","4499","-39",""
"html-keyboard-response","130","620651","0.0-37.0-2.0","null","","","","","","","null","","","","","","","",""
"image-selector-fb","131","623222","0.0-37.1-0.1","2053","pics2/FR1.jpg,pics2/VE5.jpg","","","","","","","false","0","","","heartS.png","","",""
"image-slider-2AFC","132","626218","0.0-37.1-1.1","2996","","","","-36","","","","","","","","sizeS.png","2591","-36",""
"html-keyboard-response","133","626922","0.0-37.1-2.1","null","","","","","","","null","","","","","","","",""
"image-selector-fb","134","629971","0.0-37.2-0.2","2547","pics2/SW3.jpg,pics2/FR2.jpg","","","","","","","true","1","","","heartS.png","","",""
"image-slider-2AFC","135","632460","0.0-37.2-1.2","2488","","","","32","","","","","","","","heartS.png","1475","32",""
"html-keyboard-response","136","633214","0.0-37.2-2.2","null","","","","","","","null","","","","","","","",""
"image-selector-fb","137","634951","0.0-37.3-0.3","1235","pics2/SW3.jpg,pics2/SW5.jpg","","","","","","","false","0","","","heartS.png","","",""
"image-slider-2AFC","138","638474","0.0-37.3-1.3","3522","","","","-48","","","","","","","","heartS.png","2076","-48",""
"html-keyboard-response","139","639176","0.0-37.3-2.3","null","","","","","","","null","","","","","","","",""
"image-selector-fb","140","642196","0.0-37.4-0.4","null","pics2/SA3.jpg,pics2/SW5.jpg","","","","","","","false","null","","","noS.png","","",""
"image-slider-2AFC","141","644666","0.0-37.4-1.4","2470","","","","71","","","","","","","","heartS.png","2020","71",""
"html-keyboard-response","142","645372","0.0-37.4-2.4","null","","","","","","","null","","","","","","","",""
"image-selector-fb","143","647403","0.0-37.5-0.5","1529","pics2/VE6.jpg,pics2/VE5.jpg","","","","","","","true","1","","","heartS.png","","",""
"image-slider-2AFC","144","649488","0.0-37.5-1.5","2084","","","","85","","","","","","","","heartS.png","1598","85",""
"html-keyboard-response","145","650198","0.0-37.5-2.5","null","","","","","","","null","","","","","","","",""
"image-selector-fb","146","653208","0.0-37.6-0.6","null","pics2/VE5.jpg,pics2/SA3.jpg","","","","","","","false","null","","","noS.png","","",""
"image-slider-2AFC","147","657077","0.0-37.6-1.6","3867","","","","83","","","","","","","","sizeS.png","3376","83",""
"html-keyboard-response","148","657895","0.0-37.6-2.6","null","","","","","","","null","","","","","","","",""
"image-selector-fb","149","660912","0.0-37.7-0.7","null","pics2/SA5.jpg,pics2/VE5.jpg","","","","","","","false","null","","","noS.png","","",""
"image-slider-2AFC","150","664662","0.0-37.7-1.7","3750","","","","100","","","","","","","","heartS.png","2934","100",""
"html-keyboard-response","151","665520","0.0-37.7-2.7","null","","","","","","","null","","","","","","","",""
"image-selector-fb","152","667367","0.0-37.8-0.8","1346","pics2/VE3.jpg,pics2/FR5.jpg","","","","","","","false","0","","","sizeS.png","","",""
"image-slider-2AFC","153","671518","0.0-37.8-1.8","4151","","","","-50","","","","","","","","sizeS.png","3317","-50",""
"html-keyboard-response","154","672384","0.0-37.8-2.8","null","","","","","","","null","","","","","","","",""
"image-selector-fb","155","675397","0.0-37.9-0.9","null","pics2/SW2.jpg,pics2/SW5.jpg","","","","","","","false","null","","","noS.png","","",""
"image-slider-2AFC","156","678147","0.0-37.9-1.9","2750","","","","-97","","","","","","","","sizeS.png","2196","-97",""
"html-keyboard-response","157","678999","0.0-37.9-2.9","null","","","","","","","null","","","","","","","",""
"image-selector-fb","158","682005","0.0-37.10-0.10","null","pics2/SA5.jpg,pics2/SW2.jpg","","","","","","","false","null","","","noS.png","","",""
"image-slider-2AFC","159","685500","0.0-37.10-1.10","3494","","","","100","","","","","","","","heartS.png","3027","100",""
"html-keyboard-response","160","686272","0.0-37.10-2.10","null","","","","","","","null","","","","","","","",""
"image-selector-fb","161","688479","0.0-37.11-0.11","1704","pics2/VE6.jpg,pics2/SW5.jpg","","","","","","","true","1","","","heartS.png","","",""
"image-slider-2AFC","162","691512","0.0-37.11-1.11","3033","","","","79","","","","","","","","heartS.png","2590","79",""
"html-keyboard-response","163","692225","0.0-37.11-2.11","null","","","","","","","null","","","","","","","",""
"html-button-response","164","696044","0.0-38.0","3818","<i><font size=10>Good job!</font></i> <br><br>Before we begin, you have a chance to review the rules, in case something was not clear.<br><br>","0","","","","","","","","","","","","",""
"instructions","165","718720","0.0-39.0","22676","","","","","","","","","","","","","","","[{""page_index"":0,""viewing_time"":9358},{""page_index"":1,""viewing_time"":1794},{""page_index"":2,""viewing_time"":7078},{""page_index"":1,""viewing_time"":910},{""page_index"":0,""viewing_time"":1087},{""page_index"":1,""viewing_time"":1042},{""page_index"":2,""viewing_time"":1407}]"
"html-button-response","166","725520","0.0-40.0","6800","<div style='width: 900px;'> <font size='40'>Great! Now you're ready to begin</font><br><br>The main part of the experiment will consist of <u>3 blocks</u>. Each block consists of 66 decisions and judgements. You will have time for a short break between blocks.<br><br><br><i><u>Do your best to respond within the time limit.</u></i><br><br><i> Press the button to start the experiment<br><br></i>","0","","","","","","","","","","","","",""
"image-selector-fb","167","728117","0.0-41.0-0.0","2094","pics2/VE2.jpg,pics2/SA2.jpg","","","","","","","false","0","","","sizeS.png","","",""
"image-slider-2AFC","168","730840","0.0-41.0-1.0","2723","","","","-68","","","","","","","","heartS.png","2115","-68",""
"html-keyboard-response","169","731554","0.0-41.0-2.0","null","","","","","","","null","","","","","","","",""
"image-selector-fb","170","734226","0.0-41.1-0.1","2169","pics2/VE1.jpg,pics2/SW4.jpg","","","","","","","false","0","","","sizeS.png","","",""
"image-slider-2AFC","171","737904","0.0-41.1-1.1","3678","","","","-51","","","","","","","","sizeS.png","3262","-51",""
"html-keyboard-response","172","738659","0.0-41.1-2.1","null","","","","","","","null","","","","","","","",""
"image-selector-fb","173","741510","0.0-41.2-0.2","2349","pics2/SA2.jpg,pics2/FR3.jpg","","","","","","","true","1","","","sizeS.png","","",""
"image-slider-2AFC","174","743719","0.0-41.2-1.2","2208","","","","71","","","","","","","","heartS.png","1665","71",""
"html-keyboard-response","175","744580","0.0-41.2-2.2","null","","","","","","","null","","","","","","","",""
"image-selector-fb","176","746936","0.0-41.3-0.3","1853","pics2/SW1.jpg,pics2/FR4.jpg","","","","","","","false","0","","","heartS.png","","",""
"image-slider-2AFC","177","749111","0.0-41.3-1.3","2175","","","","-9","","","","","","","","heartS.png","1839","-9",""
"html-keyboard-response","178","749923","0.0-41.3-2.3","null","","","","","","","null","","","","","","","",""
"image-selector-fb","179","751535","0.0-41.4-0.4","1109","pics2/VE1.jpg,pics2/VE4.jpg","","","","","","","true","1","","","heartS.png","","",""
"image-slider-2AFC","180","753331","0.0-41.4-1.4","1795","","","","51","","","","","","","","heartS.png","1356","51",""
"html-keyboard-response","181","754104","0.0-41.4-2.4","null","","","","","","","null","","","","","","","",""
"image-selector-fb","182","756252","0.0-41.5-0.5","1645","pics2/FR6.jpg,pics2/VE1.jpg","","","","","","","false","0","","","heartS.png","","",""
"image-slider-2AFC","183","759678","0.0-41.5-1.5","3426","","","","43","","","","","","","","sizeS.png","2886","43",""
"html-keyboard-response","184","760481","0.0-41.5-2.5","null","","","","","","","null","","","","","","","",""
"image-selector-fb","185","763503","0.0-41.6-0.6","null","pics2/SA4.jpg,pics2/SW1.jpg","","","","","","","false","null","","","noS.png","","",""
"image-slider-2AFC","186","766336","0.0-41.6-1.6","2832","","","","92","","","","","","","","sizeS.png","2278","92",""
"html-keyboard-response","187","767104","0.0-41.6-2.6","null","","","","","","","null","","","","","","","",""
"image-selector-fb","188","769384","0.0-41.7-0.7","1778","pics2/SA4.jpg,pics2/SA1.jpg","","","","","","","false","0","","","heartS.png","","",""
"image-slider-2AFC","189","771367","0.0-41.7-1.7","1982","","","","-72","","","","","","","","heartS.png","1468","-72",""
"html-keyboard-response","190","772085","0.0-41.7-2.7","null","","","","","","","null","","","","","","","",""
"image-selector-fb","191","774910","0.0-41.8-0.8","2324","pics2/SW4.jpg,pics2/VE4.jpg","","","","","","","true","1","","","heartS.png","","",""
"image-slider-2AFC","192","776533","0.0-41.8-1.8","1621","","","","80","","","","","","","","heartS.png","1101","80",""
"html-keyboard-response","193","777293","0.0-41.8-2.8","null","","","","","","","null","","","","","","","",""
"image-selector-fb","194","779155","0.0-41.9-0.9","1347","pics2/VE1.jpg,pics2/FR3.jpg","","","","","","","false","0","","","sizeS.png","","",""
"image-slider-2AFC","195","783501","0.0-41.9-1.9","4345","","","","-50","","","","","","","","heartS.png","2572,3511","-18,-50",""
"html-keyboard-response","196","784255","0.0-41.9-2.9","null","","","","","","","null","","","","","","","",""
"image-selector-fb","197","786081","0.0-41.10-0.10","1324","pics2/VE4.jpg,pics2/SA1.jpg","","","","","","","false","0","","","heartS.png","","",""
"image-slider-2AFC","198","789129","0.0-41.10-1.10","3048","","","","65","","","","","","","","sizeS.png","2552","65",""
"html-keyboard-response","199","789904","0.0-41.10-2.10","null","","","","","","","null","","","","","","","",""
"image-selector-fb","200","791609","0.0-41.11-0.11","1204","pics2/FR4.jpg,pics2/SA4.jpg","","","","","","","false","0","","","sizeS.png","","",""
"image-slider-2AFC","201","794464","0.0-41.11-1.11","2855","","","","-56","","","","","","","","heartS.png","2338","-56",""
"html-keyboard-response","202","795267","0.0-41.11-2.11","null","","","","","","","null","","","","","","","",""
"image-selector-fb","203","798285","0.0-41.12-0.12","null","pics2/VE2.jpg,pics2/FR3.jpg","","","","","","","false","null","","","noS.png","","",""
"image-slider-2AFC","204","800497","0.0-41.12-1.12","2211","","","","-60","","","","","","","","heartS.png","1685","-60",""
"html-keyboard-response","205","801365","0.0-41.12-2.12","null","","","","","","","null","","","","","","","",""
"image-selector-fb","206","804378","0.0-41.13-0.13","null","pics2/SA1.jpg,pics2/SA2.jpg","","","","","","","false","null","","","noS.png","","",""
"image-slider-2AFC","207","806448","0.0-41.13-1.13","2069","","","","50","","","","","","","","heartS.png","1520","50",""
"html-keyboard-response","208","807170","0.0-41.13-2.13","null","","","","","","","null","","","","","","","",""
"image-selector-fb","209","810710","0.0-41.14-0.14","3028","pics2/VE2.jpg,pics2/SA4.jpg","","","","","","","false","0","","","sizeS.png","","",""
"image-slider-2AFC","210","813513","0.0-41.14-1.14","2802","","","","-35","","","","","","","","sizeS.png","1970","-35",""
"html-keyboard-response","211","814284","0.0-41.14-2.14","null","","","","","","","null","","","","","","","",""
"image-selector-fb","212","816255","0.0-41.15-0.15","1466","pics2/FR3.jpg,pics2/VE2.jpg","","","","","","","true","1","","","heartS.png","","",""
"image-slider-2AFC","213","819379","0.0-41.15-1.15","3123","","","","-10","","","","","","","","sizeS.png","2816","-10",""
"html-keyboard-response","214","820200","0.0-41.15-2.15","null","","","","","","","null","","","","","","","",""
"image-selector-fb","215","821906","0.0-41.16-0.16","1203","pics2/SA1.jpg,pics2/FR3.jpg","","","","","","","true","1","","","sizeS.png","","",""
"image-slider-2AFC","216","826015","0.0-41.16-1.16","4108","","","","9","","","","","","","","sizeS.png","3755","9",""
"html-keyboard-response","217","826768","0.0-41.16-2.16","null","","","","","","","null","","","","","","","",""
"image-selector-fb","218","830416","0.0-41.17-0.17","3147","pics2/SA2.jpg,pics2/SW4.jpg","","","","","","","true","1","","","sizeS.png","","",""
"image-slider-2AFC","219","832454","0.0-41.17-1.17","2036","","","","16","","","","","","","","sizeS.png","1675","16",""
"html-keyboard-response","220","833218","0.0-41.17-2.17","null","","","","","","","null","","","","","","","",""
"image-selector-fb","221","836242","0.0-41.18-0.18","null","pics2/SW1.jpg,pics2/SA6.jpg","","","","","","","false","null","","","noS.png","","",""
"image-slider-2AFC","222","839701","0.0-41.18-1.18","3458","","","","-100","","","","","","","","sizeS.png","2858","-100",""
"html-keyboard-response","223","840457","0.0-41.18-2.18","null","","","","","","","null","","","","","","","",""
"image-selector-fb","224","842396","0.0-41.19-0.19","1438","pics2/VE2.jpg,pics2/FR3.jpg","","","","","","","false","0","","","sizeS.png","","",""
"image-slider-2AFC","225","844244","0.0-41.19-1.19","1847","","","","-20","","","","","","","","sizeS.png","1300","-20",""
"html-keyboard-response","226","844947","0.0-41.19-2.19","null","","","","","","","null","","","","","","","",""
"image-selector-fb","227","847472","0.0-41.20-0.20","2023","pics2/SA6.jpg,pics2/VE2.jpg","","","","","","","true","1","","","heartS.png","","",""
"image-slider-2AFC","228","849254","0.0-41.20-1.20","1781","","","","8","","","","","","","","heartS.png","1452","8",""
"html-keyboard-response","229","850119","0.0-41.20-2.20","null","","","","","","","null","","","","","","","",""
"image-selector-fb","230","853128","0.0-41.21-0.21","null","pics2/SA4.jpg,pics2/SA1.jpg","","","","","","","false","null","","","noS.png","","",""
"image-slider-2AFC","231","856112","0.0-41.21-1.21","2983","","","","100","","","","","","","","sizeS.png","2434","100",""
"html-keyboard-response","232","856974","0.0-41.21-2.21","null","","","","","","","null","","","","","","","",""
"image-selector-fb","233","859294","0.0-41.22-0.22","1818","pics2/SA4.jpg,pics2/VE4.jpg","","","","","","","true","1","","","sizeS.png","","",""
"image-slider-2AFC","234","861445","0.0-41.22-1.22","2150","","","","55","","","","","","","","heartS.png","1547","55",""
"html-keyboard-response","235","862258","0.0-41.22-2.22","null","","","","","","","null","","","","","","","",""
"image-selector-fb","236","864847","0.0-41.23-0.23","2087","pics2/SA6.jpg,pics2/SA4.jpg","","","","","","","true","1","","","heartS.png","","",""
"image-slider-2AFC","237","867096","0.0-41.23-1.23","2249","","","","-28","","","","","","","","sizeS.png","1795","-28",""
"html-keyboard-response","238","867812","0.0-41.23-2.23","null","","","","","","","null","","","","","","","",""
"image-selector-fb","239","870823","0.0-41.24-0.24","null","pics2/SA2.jpg,pics2/VE2.jpg","","","","","","","false","null","","","noS.png","","",""
"image-slider-2AFC","240","873358","0.0-41.24-1.24","2534","","","","28","","","","","","","","heartS.png","2025","28",""
"html-keyboard-response","241","874073","0.0-41.24-2.24","null","","","","","","","null","","","","","","","",""
"image-selector-fb","242","877082","0.0-41.25-0.25","null","pics2/FR6.jpg,pics2/VE2.jpg","","","","","","","false","null","","","noS.png","","",""
"image-slider-2AFC","243","879412","0.0-41.25-1.25","2329","","","","50","","","","","","","","sizeS.png","1918","50",""
"html-keyboard-response","244","880123","0.0-41.25-2.25","null","","","","","","","null","","","","","","","",""
"image-selector-fb","245","882172","0.0-41.26-0.26","1543","pics2/VE1.jpg,pics2/VE2.jpg","","","","","","","false","0","","","heartS.png","","",""
"image-slider-2AFC","246","884723","0.0-41.26-1.26","2549","","","","-39","","","","","","","","sizeS.png","2154","-39",""
"html-keyboard-response","247","885429","0.0-41.26-2.26","null","","","","","","","null","","","","","","","",""
"image-selector-fb","248","886947","0.0-41.27-0.27","1016","pics2/FR3.jpg,pics2/SA1.jpg","","","","","","","true","1","","","heartS.png","","",""
"image-slider-2AFC","249","889125","0.0-41.27-1.27","2177","","","","70","","","","","","","","heartS.png","1597","70",""
"html-keyboard-response","250","889892","0.0-41.27-2.27","null","","","","","","","null","","","","","","","",""
"image-selector-fb","251","891942","0.0-41.28-0.28","1536","pics2/VE2.jpg,pics2/SA6.jpg","","","","","","","false","0","","","sizeS.png","","",""
"image-slider-2AFC","252","893656","0.0-41.28-1.28","1713","","","","-22","","","","","","","","sizeS.png","1358","-22",""
"html-keyboard-response","253","894408","0.0-41.28-2.28","null","","","","","","","null","","","","","","","",""
"image-selector-fb","254","896837","0.0-41.29-0.29","1926","pics2/SA1.jpg,pics2/SW4.jpg","","","","","","","false","0","","","sizeS.png","","",""
"image-slider-2AFC","255","898644","0.0-41.29-1.29","1807","","","","53","","","","","","","","heartS.png","1255","53",""
"html-keyboard-response","256","899350","0.0-41.29-2.29","null","","","","","","","null","","","","","","","",""
"image-selector-fb","257","902845","0.0-41.30-0.30","2992","pics2/VE4.jpg,pics2/SA6.jpg","","","","","","","false","0","","","sizeS.png","","",""
"image-slider-2AFC","258","904266","0.0-41.30-1.30","1420","","","","-34","","","","","","","","sizeS.png","982","-34",""
"html-keyboard-response","259","904980","0.0-41.30-2.30","null","","","","","","","null","","","","","","","",""
"image-selector-fb","260","906884","0.0-41.31-0.31","1403","pics2/FR6.jpg,pics2/SA6.jpg","","","","","","","false","0","","","sizeS.png","","",""
"image-slider-2AFC","261","911102","0.0-41.31-1.31","4217","","","","-11","","","","","","","","sizeS.png","3856","-11",""
"html-keyboard-response","262","911957","0.0-41.31-2.31","null","","","","","","","null","","","","","","","",""
"image-selector-fb","263","913519","0.0-41.32-0.32","1059","pics2/SA2.jpg,pics2/VE4.jpg","","","","","","","true","1","","","heartS.png","","",""
"image-slider-2AFC","264","915360","0.0-41.32-1.32","1841","","","","83","","","","","","","","heartS.png","1355","83",""
"html-keyboard-response","265","916217","0.0-41.32-2.32","null","","","","","","","null","","","","","","","",""
"image-selector-fb","266","919234","0.0-41.33-0.33","null","pics2/SW4.jpg,pics2/FR6.jpg","","","","","","","false","null","","","noS.png","","",""
"image-slider-2AFC","267","921934","0.0-41.33-1.33","2700","","","","-72","","","","","","","","heartS.png","2054","-72",""
"html-keyboard-response","268","922787","0.0-41.33-2.33","null","","","","","","","null","","","","","","","",""
"image-selector-fb","269","925348","0.0-41.34-0.34","2058","pics2/VE2.jpg,pics2/SA1.jpg","","","","","","","true","1","","","sizeS.png","","",""
"image-slider-2AFC","270","927138","0.0-41.34-1.34","1790","","","","69","","","","","","","","sizeS.png","1190","69",""
"html-keyboard-response","271","927854","0.0-41.34-2.34","null","","","","","","","null","","","","","","","",""
"image-selector-fb","272","930427","0.0-41.35-0.35","2058","pics2/FR4.jpg,pics2/VE2.jpg","","","","","","","true","1","","","heartS.png","","",""
"image-slider-2AFC","273","933836","0.0-41.35-1.35","3409","","","","35","","","","","","","","sizeS.png","2986","35",""
"html-keyboard-response","274","934652","0.0-41.35-2.35","null","","","","","","","null","","","","","","","",""
"image-selector-fb","275","936351","0.0-41.36-0.36","1185","pics2/VE4.jpg,pics2/VE1.jpg","","","","","","","false","0","","","sizeS.png","","",""
"image-slider-2AFC","276","938765","0.0-41.36-1.36","2413","","","","47","","","","","","","","sizeS.png","1926","47",""
"html-keyboard-response","277","939467","0.0-41.36-2.36","null","","","","","","","null","","","","","","","",""
"image-selector-fb","278","941987","0.0-41.37-0.37","2009","pics2/SA6.jpg,pics2/FR6.jpg","","","","","","","false","0","","","heartS.png","","",""
"image-slider-2AFC","279","943743","0.0-41.37-1.37","1754","","","","-44","","","","","","","","heartS.png","1210","-44",""
"html-keyboard-response","280","944512","0.0-41.37-2.37","null","","","","","","","null","","","","","","","",""
"image-selector-fb","281","946076","0.0-41.38-0.38","1048","pics2/SW1.jpg,pics2/VE2.jpg","","","","","","","false","0","","","heartS.png","","",""
"image-slider-2AFC","282","947328","0.0-41.38-1.38","1251","","","","-26","","","","","","","","heartS.png","786","-26",""
"html-keyboard-response","283","948146","0.0-41.38-2.38","null","","","","","","","null","","","","","","","",""
"image-selector-fb","284","951159","0.0-41.39-0.39","null","pics2/SA4.jpg,pics2/VE1.jpg","","","","","","","false","null","","","noS.png","","",""
"image-slider-2AFC","285","954386","0.0-41.39-1.39","3226","","","","-24","","","","","","","","heartS.png","2882","-24",""
"html-keyboard-response","286","955206","0.0-41.39-2.39","null","","","","","","","null","","","","","","","",""
"image-selector-fb","287","957128","0.0-41.40-0.40","1409","pics2/SW1.jpg,pics2/VE4.jpg","","","","","","","false","0","","","sizeS.png","","",""
"image-slider-2AFC","288","959100","0.0-41.40-1.40","1972","","","","-100","","","","","","","","sizeS.png","1224","-100",""
"html-keyboard-response","289","959907","0.0-41.40-2.40","null","","","","","","","null","","","","","","","",""
"image-selector-fb","290","962914","0.0-41.41-0.41","null","pics2/FR6.jpg,pics2/SA6.jpg","","","","","","","false","null","","","noS.png","","",""
"image-slider-2AFC","291","965567","0.0-41.41-1.41","2652","","","","47","","","","","","","","heartS.png","2172","47",""
"html-keyboard-response","292","966433","0.0-41.41-2.41","null","","","","","","","null","","","","","","","",""
"image-selector-fb","293","969452","0.0-41.42-0.42","null","pics2/VE4.jpg,pics2/FR3.jpg","","","","","","","false","null","","","noS.png","","",""
"image-slider-2AFC","294","973539","0.0-41.42-1.42","4086","","","","20","","","","","","","","sizeS.png","3457","20",""
"html-keyboard-response","295","974399","0.0-41.42-2.42","null","","","","","","","null","","","","","","","",""
"image-selector-fb","296","976316","0.0-41.43-0.43","1416","pics2/FR4.jpg,pics2/SA1.jpg","","","","","","","false","0","","","heartS.png","","",""
"image-slider-2AFC","297","978088","0.0-41.43-1.43","1772","","","","-70","","","","","","","","heartS.png","1096","-70",""
"html-keyboard-response","298","978805","0.0-41.43-2.43","null","","","","","","","null","","","","","","","",""
"image-selector-fb","299","981041","0.0-41.44-0.44","1735","pics2/VE2.jpg,pics2/FR6.jpg","","","","","","","false","0","","","sizeS.png","","",""
"image-slider-2AFC","300","983458","0.0-41.44-1.44","2415","","","","-65","","","","","","","","heartS.png","1932","-65",""
"html-keyboard-response","301","984224","0.0-41.44-2.44","null","","","","","","","null","","","","","","","",""
"image-selector-fb","302","986344","0.0-41.45-0.45","1618","pics2/SA6.jpg,pics2/SW1.jpg","","","","","","","false","0","","","heartS.png","","",""
"image-slider-2AFC","303","987804","0.0-41.45-1.45","1460","","","","-8","","","","","","","","heartS.png","1157","-8",""
"html-keyboard-response","304","988573","0.0-41.45-2.45","null","","","","","","","null","","","","","","","",""
"image-selector-fb","305","990218","0.0-41.46-0.46","1144","pics2/SA6.jpg,pics2/VE1.jpg","","","","","","","true","1","","","heartS.png","","",""
"image-slider-2AFC","306","993928","0.0-41.46-1.46","3709","","","","66","","","","","","","","sizeS.png","3174","66",""
"html-keyboard-response","307","994696","0.0-41.46-2.46","null","","","","","","","null","","","","","","","",""
"image-selector-fb","308","997711","0.0-41.47-0.47","null","pics2/VE4.jpg,pics2/SA2.jpg","","","","","","","false","null","","","noS.png","","",""
"image-slider-2AFC","309","1001063","0.0-41.47-1.47","3352","","","","-36","","","","","","","","sizeS.png","2665","-36",""
"html-keyboard-response","310","1001865","0.0-41.47-2.47","null","","","","","","","null","","","","","","","",""
"image-selector-fb","311","1003482","0.0-41.48-0.48","1115","pics2/VE1.jpg,pics2/SA4.jpg","","","","","","","true","1","","","heartS.png","","",""
"image-slider-2AFC","312","1004946","0.0-41.48-1.48","1462","","","","31","","","","","","","","heartS.png","1115","31",""
"html-keyboard-response","313","1005749","0.0-41.48-2.48","null","","","","","","","null","","","","","","","",""
"image-selector-fb","314","1007896","0.0-41.49-0.49","1646","pics2/VE2.jpg,pics2/FR4.jpg","","","","","","","false","0","","","sizeS.png","","",""
"image-slider-2AFC","315","1009601","0.0-41.49-1.49","1704","","","","32","","","","","","","","heartS.png","1128","32",""
"html-keyboard-response","316","1010357","0.0-41.49-2.49","null","","","","","","","null","","","","","","","",""
"image-selector-fb","317","1013367","0.0-41.50-0.50","null","pics2/SA2.jpg,pics2/SA6.jpg","","","","","","","false","null","","","noS.png","","",""
"image-slider-2AFC","318","1016787","0.0-41.50-1.50","3420","","","","-28","","","","","","","","sizeS.png","2943","-28",""
"html-keyboard-response","319","1017597","0.0-41.50-2.50","null","","","","","","","null","","","","","","","",""
"image-selector-fb","320","1020614","0.0-41.51-0.51","null","pics2/SA4.jpg,pics2/VE4.jpg","","","","","","","false","null","","","noS.png","","",""
"image-slider-2AFC","321","1023846","0.0-41.51-1.51","3231","","","","34","","","","","","","","sizeS.png","2714","34",""
"html-keyboard-response","322","1024663","0.0-41.51-2.51","null","","","","","","","null","","","","","","","",""
"image-selector-fb","323","1027411","0.0-41.52-0.52","2245","pics2/SA4.jpg,pics2/SA6.jpg","","","","","","","false","0","","","sizeS.png","","",""
"image-slider-2AFC","324","1029408","0.0-41.52-1.52","1997","","","","-32","","","","","","","","heartS.png","1562","-32",""
"html-keyboard-response","325","1030113","0.0-41.52-2.52","null","","","","","","","null","","","","","","","",""
"image-selector-fb","326","1033128","0.0-41.53-0.53","null","pics2/VE4.jpg,pics2/SW4.jpg","","","","","","","false","null","","","noS.png","","",""
"image-slider-2AFC","327","1034880","0.0-41.53-1.53","1750","","","","-59","","","","","","","","heartS.png","1241","-59",""
"html-keyboard-response","328","1035691","0.0-41.53-2.53","null","","","","","","","null","","","","","","","",""
"image-selector-fb","329","1037432","0.0-41.54-0.54","1239","pics2/SW4.jpg,pics2/VE1.jpg","","","","","","","false","0","","","heartS.png","","",""
"image-slider-2AFC","330","1039167","0.0-41.54-1.54","1734","","","","-46","","","","","","","","heartS.png","775,1280","0,-46",""
"html-keyboard-response","331","1039974","0.0-41.54-2.54","null","","","","","","","null","","","","","","","",""
"image-selector-fb","332","1042996","0.0-41.55-0.55","null","pics2/SA1.jpg,pics2/SW1.jpg","","","","","","","false","null","","","noS.png","","",""
"image-slider-2AFC","333","1047998","0.0-41.55-1.55","null","","","","null","","","","","","","","sizeS.png","","",""
"html-keyboard-response","334","1048763","0.0-41.55-2.55","null","","","","","","","null","","","","","","","",""
"image-selector-fb","335","1050248","0.0-41.56-0.56","982","pics2/SA1.jpg,pics2/SW1.jpg","","","","","","","true","1","","","sizeS.png","","",""
"image-slider-2AFC","336","1052369","0.0-41.56-1.56","2120","","","","82","","","","","","","","heartS.png","1285","82",""
"html-keyboard-response","337","1053071","0.0-41.56-2.56","null","","","","","","","null","","","","","","","",""
"image-selector-fb","338","1056091","0.0-41.57-0.57","null","pics2/FR6.jpg,pics2/FR3.jpg","","","","","","","false","null","","","noS.png","","",""
"image-slider-2AFC","339","1058811","0.0-41.57-1.57","2718","","","","36","","","","","","","","sizeS.png","2128","36",""
"html-keyboard-response","340","1059563","0.0-41.57-2.57","null","","","","","","","null","","","","","","","",""
"image-selector-fb","341","1061423","0.0-41.58-0.58","1357","pics2/FR4.jpg,pics2/SW1.jpg","","","","","","","true","1","","","sizeS.png","","",""
"image-slider-2AFC","342","1063468","0.0-41.58-1.58","2044","","","","71","","","","","","","","sizeS.png","1390","71",""
"html-keyboard-response","343","1064181","0.0-41.58-2.58","null","","","","","","","null","","","","","","","",""
"image-selector-fb","344","1067200","0.0-41.59-0.59","null","pics2/VE1.jpg,pics2/SW4.jpg","","","","","","","false","null","","","noS.png","","",""
"image-slider-2AFC","345","1069289","0.0-41.59-1.59","2087","","","","-35","","","","","","","","heartS.png","1541","-35",""
"html-keyboard-response","346","1069993","0.0-41.59-2.59","null","","","","","","","null","","","","","","","",""
"image-selector-fb","347","1072199","0.0-41.60-0.60","1703","pics2/FR4.jpg,pics2/FR3.jpg","","","","","","","true","1","","","sizeS.png","","",""
"image-slider-2AFC","348","1074668","0.0-41.60-1.60","2469","","","","-59","","","","","","","","heartS.png","1917","-59",""
"html-keyboard-response","349","1075520","0.0-41.60-2.60","null","","","","","","","null","","","","","","","",""
"image-selector-fb","350","1077760","0.0-41.61-0.61","1737","pics2/SA6.jpg,pics2/SW4.jpg","","","","","","","true","1","","","sizeS.png","","",""
"image-slider-2AFC","351","1079567","0.0-41.61-1.61","1807","","","","73","","","","","","","","heartS.png","1239","73",""
"html-keyboard-response","352","1080430","0.0-41.61-2.61","null","","","","","","","null","","","","","","","",""
"image-selector-fb","353","1083437","0.0-41.62-0.62","null","pics2/SA2.jpg,pics2/FR3.jpg","","","","","","","false","null","","","noS.png","","",""
"image-slider-2AFC","354","1085775","0.0-41.62-1.62","2336","","","","-44","","","","","","","","heartS.png","1627","-44",""
"html-keyboard-response","355","1086476","0.0-41.62-2.62","null","","","","","","","null","","","","","","","",""
"image-selector-fb","356","1089491","0.0-41.63-0.63","null","pics2/SA4.jpg,pics2/FR3.jpg","","","","","","","false","null","","","noS.png","","",""
"image-slider-2AFC","357","1091267","0.0-41.63-1.63","1774","","","","-40","","","","","","","","heartS.png","1361","-40",""
"html-keyboard-response","358","1092034","0.0-41.63-2.63","null","","","","","","","null","","","","","","","",""
"image-selector-fb","359","1093892","0.0-41.64-0.64","1352","pics2/SA1.jpg,pics2/VE2.jpg","","","","","","","true","1","","","heartS.png","","",""
"image-slider-2AFC","360","1095560","0.0-41.64-1.64","1666","","","","80","","","","","","","","heartS.png","1106","80",""
"html-keyboard-response","361","1096377","0.0-41.64-2.64","null","","","","","","","null","","","","","","","",""
"image-selector-fb","362","1099390","0.0-41.65-0.65","null","pics2/VE1.jpg,pics2/FR3.jpg","","","","","","","false","null","","","noS.png","","",""
"image-slider-2AFC","363","1103085","0.0-41.65-1.65","3694","","","","-38","","","","","","","","sizeS.png","3195","-38",""
"html-keyboard-response","364","1103938","0.0-41.65-2.65","null","","","","","","","null","","","","","","","",""
"pavlovia","365","1103944","0.0-42.0","","","","","","","","","","","","","","","",""
"html-keyboard-response","366","1108950","0.0-43.0","null","<div style='width: 700px;'> <font size=6><b>SHORT BREAK</font></b><br><br><i> Please wait 5 seconds to continue</i></div> ","","","","","","null","","","","","","","",""
"pavlovia","367","1108951","0.0-44.0","","","","","","","","","","","","","","","",""
"html-button-response","368","1112255","0.0-45.0","3303","<div style='width: 700px;'> <font size=6><b>BLOCK 2</font></b><br><br>Press the button whenever you feel ready to start the second block (there are 3 in total)</div>","0","","","","","","","","","","","","",""
"image-selector-fb","369","1115258","0.0-46.0-0.0","null","pics2/VE4.jpg,pics2/VE2.jpg","","","","","","","false","null","","","noS.png","","",""
"image-slider-2AFC","370","1118950","0.0-46.0-1.0","3691","","","","45","","","","","","","","sizeS.png","3236","45",""
"html-keyboard-response","371","1119805","0.0-46.0-2.0","null","","","","","","","null","","","","","","","",""
"image-selector-fb","372","1121236","0.0-46.1-0.1","929","pics2/FR6.jpg,pics2/SW1.jpg","","","","","","","true","1","","","heartS.png","","",""
"image-slider-2AFC","373","1123147","0.0-46.1-1.1","1910","","","","55","","","","","","","","heartS.png","1380","55",""
"html-keyboard-response","374","1123851","0.0-46.1-2.1","null","","","","","","","null","","","","","","","",""
"image-selector-fb","375","1125473","0.0-46.2-0.2","1120","pics2/VE1.jpg,pics2/SA1.jpg","","","","","","","false","0","","","heartS.png","","",""
"image-slider-2AFC","376","1127027","0.0-46.2-1.2","1553","","","","-57","","","","","","","","heartS.png","1037","-57",""
"html-keyboard-response","377","1127832","0.0-46.2-2.2","null","","","","","","","null","","","","","","","",""
"image-selector-fb","378","1129496","0.0-46.3-0.3","1159","pics2/VE2.jpg,pics2/VE1.jpg","","","","","","","false","0","","","sizeS.png","","",""
"image-slider-2AFC","379","1131260","0.0-46.3-1.3","1763","","","","-28","","","","","","","","sizeS.png","1379","-28",""
"html-keyboard-response","380","1131964","0.0-46.3-2.3","null","","","","","","","null","","","","","","","",""
"image-selector-fb","381","1134967","0.0-46.4-0.4","null","pics2/SA1.jpg,pics2/FR4.jpg","","","","","","","false","null","","","noS.png","","",""
"image-slider-2AFC","382","1137654","0.0-46.4-1.4","2686","","","","-54","","","","","","","","sizeS.png","2214","-54",""
"html-keyboard-response","383","1138430","0.0-46.4-2.4","null","","","","","","","null","","","","","","","",""
"image-selector-fb","384","1141447","0.0-46.5-0.5","null","pics2/SA4.jpg,pics2/SW4.jpg","","","","","","","false","null","","","noS.png","","",""
"image-slider-2AFC","385","1143959","0.0-46.5-1.5","2512","","","","47","","","","","","","","sizeS.png","2014","47",""
"html-keyboard-response","386","1144668","0.0-46.5-2.5","null","","","","","","","null","","","","","","","",""
"image-selector-fb","387","1148442","0.0-46.6-0.6","3268","pics2/SA6.jpg,pics2/FR3.jpg","","","","","","","true","1","","","sizeS.png","","",""
"image-slider-2AFC","388","1150423","0.0-46.6-1.6","1980","","","","22","","","","","","","","sizeS.png","1601","22",""
"html-keyboard-response","389","1151238","0.0-46.6-2.6","null","","","","","","","null","","","","","","","",""
"image-selector-fb","390","1152701","0.0-46.7-0.7","961","pics2/SA4.jpg,pics2/SW1.jpg","","","","","","","true","1","","","sizeS.png","","",""
"image-slider-2AFC","391","1154524","0.0-46.7-1.7","1822","","","","83","","","","","","","","sizeS.png","1293","83",""
"html-keyboard-response","392","1155281","0.0-46.7-2.7","null","","","","","","","null","","","","","","","",""
"image-selector-fb","393","1156990","0.0-46.8-0.8","1207","pics2/SA1.jpg,pics2/FR4.jpg","","","","","","","false","0","","","sizeS.png","","",""
"image-slider-2AFC","394","1159305","0.0-46.8-1.8","2315","","","","71","","","","","","","","heartS.png","1842","71",""
"html-keyboard-response","395","1160072","0.0-46.8-2.8","null","","","","","","","null","","","","","","","",""
"image-selector-fb","396","1163081","0.0-46.9-0.9","null","pics2/SA1.jpg,pics2/SA6.jpg","","","","","","","false","null","","","noS.png","","",""
"image-slider-2AFC","397","1166393","0.0-46.9-1.9","3311","","","","-55","","","","","","","","sizeS.png","2013","-55",""
"html-keyboard-response","398","1167096","0.0-46.9-2.9","null","","","","","","","null","","","","","","","",""
"image-selector-fb","399","1170115","0.0-46.10-0.10","null","pics2/VE1.jpg,pics2/VE4.jpg","","","","","","","false","null","","","noS.png","","",""
"image-slider-2AFC","400","1172136","0.0-46.10-1.10","2019","","","","56","","","","","","","","heartS.png","1530","56",""
"html-keyboard-response","401","1172941","0.0-46.10-2.10","null","","","","","","","null","","","","","","","",""
"image-selector-fb","402","1175960","0.0-46.11-0.11","null","pics2/VE1.jpg,pics2/VE2.jpg","","","","","","","false","null","","","noS.png","","",""
"image-slider-2AFC","403","1178457","0.0-46.11-1.11","2496","","","","-69","","","","","","","","sizeS.png","1951","-69",""
"html-keyboard-response","404","1179318","0.0-46.11-2.11","null","","","","","","","null","","","","","","","",""
"image-selector-fb","405","1180817","0.0-46.12-0.12","990","pics2/FR6.jpg,pics2/SA1.jpg","","","","","","","true","1","","","heartS.png","","",""
"image-slider-2AFC","406","1182902","0.0-46.12-1.12","2084","","","","67","","","","","","","","sizeS.png","1279","67",""
"html-keyboard-response","407","1183677","0.0-46.12-2.12","null","","","","","","","null","","","","","","","",""
"image-selector-fb","408","1185151","0.0-46.13-0.13","972","pics2/VE4.jpg,pics2/VE2.jpg","","","","","","","false","0","","","heartS.png","","",""
"image-slider-2AFC","409","1186980","0.0-46.13-1.13","1827","","","","-100","","","","","","","","heartS.png","1281","-100",""
"html-keyboard-response","410","1187741","0.0-46.13-2.13","null","","","","","","","null","","","","","","","",""
"image-selector-fb","411","1190030","0.0-46.14-0.14","1786","pics2/VE4.jpg,pics2/SW4.jpg","","","","","","","true","1","","","sizeS.png","","",""
"image-slider-2AFC","412","1191555","0.0-46.14-1.14","1525","","","","-69","","","","","","","","heartS.png","1010","-69",""
"html-keyboard-response","413","1192413","0.0-46.14-2.14","null","","","","","","","null","","","","","","","",""
"image-selector-fb","414","1195431","0.0-46.15-0.15","null","pics2/SA2.jpg,pics2/SW1.jpg","","","","","","","false","null","","","noS.png","","",""
"image-slider-2AFC","415","1197978","0.0-46.15-1.15","2546","","","","100","","","","","","","","sizeS.png","1921","100",""
"html-keyboard-response","416","1198741","0.0-46.15-2.15","null","","","","","","","null","","","","","","","",""
"image-selector-fb","417","1201754","0.0-46.16-0.16","null","pics2/SA4.jpg,pics2/SA2.jpg","","","","","","","false","null","","","noS.png","","",""
"image-slider-2AFC","418","1204724","0.0-46.16-1.16","2969","","","","-43","","","","","","","","heartS.png","2161","-43",""
"html-keyboard-response","419","1205426","0.0-46.16-2.16","null","","","","","","","null","","","","","","","",""
"image-selector-fb","420","1206834","0.0-46.17-0.17","906","pics2/SW4.jpg,pics2/SA2.jpg","","","","","","","false","0","","","heartS.png","","",""
"image-slider-2AFC","421","1210578","0.0-46.17-1.17","3743","","","","-55","","","","","","","","sizeS.png","2050","-55",""
"html-keyboard-response","422","1211294","0.0-46.17-2.17","null","","","","","","","null","","","","","","","",""
"image-selector-fb","423","1214311","0.0-46.18-0.18","null","pics2/FR6.jpg,pics2/FR4.jpg","","","","","","","false","null","","","noS.png","","",""
"image-slider-2AFC","424","1216503","0.0-46.18-1.18","2192","","","","51","","","","","","","","heartS.png","1680","51",""
"html-keyboard-response","425","1217260","0.0-46.18-2.18","null","","","","","","","null","","","","","","","",""
"image-selector-fb","426","1218463","0.0-46.19-0.19","702","pics2/VE1.jpg,pics2/SW1.jpg","","","","","","","true","1","","","heartS.png","","",""
"image-slider-2AFC","427","1219966","0.0-46.19-1.19","1502","","","","84","","","","","","","","sizeS.png","937","84",""
"html-keyboard-response","428","1220718","0.0-46.19-2.19","null","","","","","","","null","","","","","","","",""
"image-selector-fb","429","1223731","0.0-46.20-0.20","null","pics2/FR4.jpg,pics2/SW1.jpg","","","","","","","false","null","","","noS.png","","",""
"image-slider-2AFC","430","1226362","0.0-46.20-1.20","2630","","","","77","","","","","","","","heartS.png","2073","77",""
"html-keyboard-response","431","1227064","0.0-46.20-2.20","null","","","","","","","null","","","","","","","",""
"image-selector-fb","432","1230087","0.0-46.21-0.21","null","pics2/VE1.jpg,pics2/SA6.jpg","","","","","","","false","null","","","noS.png","","",""
"image-slider-2AFC","433","1232512","0.0-46.21-1.21","2423","","","","-54","","","","","","","","heartS.png","1923","-54",""
"html-keyboard-response","434","1233227","0.0-46.21-2.21","null","","","","","","","null","","","","","","","",""
"image-selector-fb","435","1234677","0.0-46.22-0.22","948","pics2/SW4.jpg,pics2/SW1.jpg","","","","","","","true","1","","","heartS.png","","",""
"image-slider-2AFC","436","1236635","0.0-46.22-1.22","1957","","","","93","","","","","","","","sizeS.png","1292","93",""
"html-keyboard-response","437","1237387","0.0-46.22-2.22","null","","","","","","","null","","","","","","","",""
"image-selector-fb","438","1239416","0.0-46.23-0.23","1526","pics2/FR6.jpg,pics2/SA2.jpg","","","","","","","false","0","","","heartS.png","","",""
"image-slider-2AFC","439","1240915","0.0-46.23-1.23","1497","","","","-31","","","","","","","","heartS.png","985","-31",""
"html-keyboard-response","440","1241769","0.0-46.23-2.23","null","","","","","","","null","","","","","","","",""
"image-selector-fb","441","1243069","0.0-46.24-0.24","797","pics2/SW4.jpg,pics2/FR6.jpg","","","","","","","false","0","","","heartS.png","","",""
"image-slider-2AFC","442","1246226","0.0-46.24-1.24","3155","","","","-41","","","","","","","","sizeS.png","2013","-41",""
"html-keyboard-response","443","1247092","0.0-46.24-2.24","null","","","","","","","null","","","","","","","",""
"image-selector-fb","444","1250032","0.0-46.25-0.25","2438","pics2/FR3.jpg,pics2/SA4.jpg","","","","","","","true","1","","","heartS.png","","",""
"image-slider-2AFC","445","1251505","0.0-46.25-1.25","1471","","","","68","","","","","","","","heartS.png","902","68",""
"html-keyboard-response","446","1252207","0.0-46.25-2.25","null","","","","","","","null","","","","","","","",""
"image-selector-fb","447","1255273","0.0-46.26-0.26","2555","pics2/VE2.jpg,pics2/SW4.jpg","","","","","","","false","0","","","sizeS.png","","",""
"image-slider-2AFC","448","1257058","0.0-46.26-1.26","1783","","","","79","","","","","","","","heartS.png","1170","79",""
"html-keyboard-response","449","1257927","0.0-46.26-2.26","null","","","","","","","null","","","","","","","",""
"image-selector-fb","450","1259344","0.0-46.27-0.27","915","pics2/VE1.jpg,pics2/SA6.jpg","","","","","","","false","0","","","sizeS.png","","",""
"image-slider-2AFC","451","1261193","0.0-46.27-1.27","1848","","","","-39","","","","","","","","heartS.png","1369","-39",""
"html-keyboard-response","452","1261922","0.0-46.27-2.27","null","","","","","","","null","","","","","","","",""
"image-selector-fb","453","1263243","0.0-46.28-0.28","818","pics2/SA4.jpg,pics2/FR4.jpg","","","","","","","false","0","","","heartS.png","","",""
"image-slider-2AFC","454","1265657","0.0-46.28-1.28","2413","","","","71","","","","","","","","sizeS.png","1784","71",""
"html-keyboard-response","455","1266369","0.0-46.28-2.28","null","","","","","","","null","","","","","","","",""
"image-selector-fb","456","1269372","0.0-46.29-0.29","null","pics2/SA1.jpg,pics2/VE1.jpg","","","","","","","false","null","","","noS.png","","",""
"image-slider-2AFC","457","1271532","0.0-46.29-1.29","2160","","","","31","","","","","","","","heartS.png","1805","31",""
"html-keyboard-response","458","1272351","0.0-46.29-2.29","null","","","","","","","null","","","","","","","",""
"image-selector-fb","459","1274655","0.0-46.30-0.30","1801","pics2/VE4.jpg,pics2/FR6.jpg","","","","","","","false","0","","","sizeS.png","","",""
"image-slider-2AFC","460","1276355","0.0-46.30-1.30","1699","","","","-78","","","","","","","","heartS.png","1154","-78",""
"html-keyboard-response","461","1277108","0.0-46.30-2.30","null","","","","","","","null","","","","","","","",""
"image-selector-fb","462","1281023","0.0-46.31-0.31","3413","pics2/VE4.jpg,pics2/FR3.jpg","","","","","","","true","1","","","sizeS.png","","",""
"image-slider-2AFC","463","1282512","0.0-46.31-1.31","1488","","","","18","","","","","","","","sizeS.png","1167","18",""
"html-keyboard-response","464","1283283","0.0-46.31-2.31","null","","","","","","","null","","","","","","","",""
"image-selector-fb","465","1285102","0.0-46.32-0.32","1309","pics2/FR3.jpg,pics2/SA2.jpg","","","","","","","false","0","","","heartS.png","","",""
"image-slider-2AFC","466","1287237","0.0-46.32-1.32","2134","","","","-56","","","","","","","","sizeS.png","1591","-56",""
"html-keyboard-response","467","1288049","0.0-46.32-2.32","null","","","","","","","null","","","","","","","",""
"image-selector-fb","468","1289521","0.0-46.33-0.33","969","pics2/SA6.jpg,pics2/SA2.jpg","","","","","","","true","1","","","heartS.png","","",""
"image-slider-2AFC","469","1290876","0.0-46.33-1.33","1354","","","","8","","","","","","","","heartS.png","1048","8",""
"html-keyboard-response","470","1291640","0.0-46.33-2.33","null","","","","","","","null","","","","","","","",""
"image-selector-fb","471","1294651","0.0-46.34-0.34","null","pics2/SW4.jpg,pics2/SW1.jpg","","","","","","","false","null","","","noS.png","","",""
"image-slider-2AFC","472","1296965","0.0-46.34-1.34","2313","","","","100","","","","","","","","sizeS.png","1702","100",""
"html-keyboard-response","473","1297778","0.0-46.34-2.34","null","","","","","","","null","","","","","","","",""
"image-selector-fb","474","1299282","0.0-46.35-0.35","1003","pics2/SW4.jpg,pics2/SA1.jpg","","","","","","","false","0","","","heartS.png","","",""
"image-slider-2AFC","475","1300996","0.0-46.35-1.35","1713","","","","-100","","","","","","","","heartS.png","1014","-100",""
"html-keyboard-response","476","1301798","0.0-46.35-2.35","null","","","","","","","null","","","","","","","",""
"image-selector-fb","477","1303576","0.0-46.36-0.36","1275","pics2/FR3.jpg,pics2/SA6.jpg","","","","","","","true","1","","","heartS.png","","",""
"image-slider-2AFC","478","1305026","0.0-46.36-1.36","1449","","","","42","","","","","","","","heartS.png","1004","42",""
"html-keyboard-response","479","1305882","0.0-46.36-2.36","null","","","","","","","null","","","","","","","",""
"image-selector-fb","480","1308894","0.0-46.37-0.37","null","pics2/FR4.jpg,pics2/VE2.jpg","","","","","","","false","null","","","noS.png","","",""
"image-slider-2AFC","481","1311591","0.0-46.37-1.37","2696","","","","56","","","","","","","","sizeS.png","2188","56",""
"html-keyboard-response","482","1312295","0.0-46.37-2.37","null","","","","","","","null","","","","","","","",""
"image-selector-fb","483","1315307","0.0-46.38-0.38","null","pics2/SA2.jpg,pics2/FR6.jpg","","","","","","","false","null","","","noS.png","","",""
"image-slider-2AFC","484","1317757","0.0-46.38-1.38","2449","","","","50","","","","","","","","heartS.png","1951","50",""
"html-keyboard-response","485","1318508","0.0-46.38-2.38","null","","","","","","","null","","","","","","","",""
"image-selector-fb","486","1321523","0.0-46.39-0.39","null","pics2/VE1.jpg,pics2/FR4.jpg","","","","","","","false","null","","","noS.png","","",""
"image-slider-2AFC","487","1324459","0.0-46.39-1.39","2934","","","","72","","","","","","","","heartS.png","2187","72",""
"html-keyboard-response","488","1325169","0.0-46.39-2.39","null","","","","","","","null","","","","","","","",""
"image-selector-fb","489","1328182","0.0-46.40-0.40","null","pics2/VE1.jpg,pics2/FR6.jpg","","","","","","","false","null","","","noS.png","","",""
"image-slider-2AFC","490","1331095","0.0-46.40-1.40","2912","","","","-81","","","","","","","","sizeS.png","2458","-81",""
"html-keyboard-response","491","1331797","0.0-46.40-2.40","null","","","","","","","null","","","","","","","",""
"image-selector-fb","492","1333135","0.0-46.41-0.41","836","pics2/SW4.jpg,pics2/VE2.jpg","","","","","","","false","0","","","heartS.png","","",""
"image-slider-2AFC","493","1335876","0.0-46.41-1.41","2741","","","","41","","","","","","","","sizeS.png","2362","41",""
"html-keyboard-response","494","1336640","0.0-46.41-2.41","null","","","","","","","null","","","","","","","",""
"image-selector-fb","495","1339652","0.0-46.42-0.42","null","pics2/VE1.jpg,pics2/SA2.jpg","","","","","","","false","null","","","noS.png","","",""
"image-slider-2AFC","496","1342235","0.0-46.42-1.42","2582","","","","-53","","","","","","","","sizeS.png","2022","-53",""
"html-keyboard-response","497","1343090","0.0-46.42-2.42","null","","","","","","","null","","","","","","","",""
"image-selector-fb","498","1344724","0.0-46.43-0.43","1133","pics2/SW4.jpg,pics2/FR4.jpg","","","","","","","false","0","","","heartS.png","","",""
"image-slider-2AFC","499","1347243","0.0-46.43-1.43","2518","","","","-12","","","","","","","","sizeS.png","2191","-12",""
"html-keyboard-response","500","1348045","0.0-46.43-2.43","null","","","","","","","null","","","","","","","",""
"image-selector-fb","501","1350410","0.0-46.44-0.44","1864","pics2/VE4.jpg,pics2/SA2.jpg","","","","","","","false","0","","","sizeS.png","","",""
"image-slider-2AFC","502","1352095","0.0-46.44-1.44","1683","","","","-83","","","","","","","","heartS.png","1151","-83",""
"html-keyboard-response","503","1352955","0.0-46.44-2.44","null","","","","","","","null","","","","","","","",""
"image-selector-fb","504","1354708","0.0-46.45-0.45","1250","pics2/SW1.jpg,pics2/FR3.jpg","","","","","","","false","0","","","sizeS.png","","",""
"image-slider-2AFC","505","1356624","0.0-46.45-1.45","1914","","","","-94","","","","","","","","sizeS.png","1093","-94",""
"html-keyboard-response","506","1357378","0.0-46.45-2.45","null","","","","","","","null","","","","","","","",""
"image-selector-fb","507","1360388","0.0-46.46-0.46","null","pics2/VE4.jpg,pics2/SW1.jpg","","","","","","","false","null","","","noS.png","","",""
"image-slider-2AFC","508","1364379","0.0-46.46-1.46","3991","","","","-67","","","","","","","","heartS.png","3016","-67",""
"html-keyboard-response","509","1365196","0.0-46.46-2.46","null","","","","","","","null","","","","","","","",""
"image-selector-fb","510","1366929","0.0-46.47-0.47","1221","pics2/VE4.jpg,pics2/FR4.jpg","","","","","","","false","0","","","heartS.png","","",""
"image-slider-2AFC","511","1369611","0.0-46.47-1.47","2682","","","","-100","","","","","","","","heartS.png","2004","-100",""
"html-keyboard-response","512","1370313","0.0-46.47-2.47","null","","","","","","","null","","","","","","","",""
"image-selector-fb","513","1371786","0.0-46.48-0.48","971","pics2/VE1.jpg,pics2/SA2.jpg","","","","","","","false","0","","","heartS.png","","",""
"image-slider-2AFC","514","1373922","0.0-46.48-1.48","2134","","","","-53","","","","","","","","sizeS.png","1711","-53",""
"html-keyboard-response","515","1374626","0.0-46.48-2.48","null","","","","","","","null","","","","","","","",""
"image-selector-fb","516","1377640","0.0-46.49-0.49","null","pics2/SW4.jpg,pics2/SA6.jpg","","","","","","","false","null","","","noS.png","","",""
"image-slider-2AFC","517","1381100","0.0-46.49-1.49","3460","","","","-53","","","","","","","","sizeS.png","2995","-53",""
"html-keyboard-response","518","1381920","0.0-46.49-2.49","null","","","","","","","null","","","","","","","",""
"image-selector-fb","519","1383335","0.0-46.50-0.50","914","pics2/FR3.jpg,pics2/VE4.jpg","","","","","","","true","1","","","heartS.png","","",""
"image-slider-2AFC","520","1385759","0.0-46.50-1.50","2423","","","","100","","","","","","","","heartS.png","875,1378","1,100",""
"html-keyboard-response","521","1386465","0.0-46.50-2.50","null","","","","","","","null","","","","","","","",""
"image-selector-fb","522","1388127","0.0-46.51-0.51","1160","pics2/FR6.jpg,pics2/FR3.jpg","","","","","","","true","1","","","sizeS.png","","",""
"image-slider-2AFC","523","1389684","0.0-46.51-1.51","1557","","","","34","","","","","","","","sizeS.png","1035","34",""
"html-keyboard-response","524","1390387","0.0-46.51-2.51","null","","","","","","","null","","","","","","","",""
"image-selector-fb","525","1392859","0.0-46.52-0.52","1971","pics2/FR3.jpg,pics2/FR6.jpg","","","","","","","true","1","","","heartS.png","","",""
"image-slider-2AFC","526","1395111","0.0-46.52-1.52","2252","","","","-37","","","","","","","","sizeS.png","1758","-37",""
"html-keyboard-response","527","1395821","0.0-46.52-2.52","null","","","","","","","null","","","","","","","",""
"image-selector-fb","528","1397313","0.0-46.53-0.53","989","pics2/FR6.jpg,pics2/FR4.jpg","","","","","","","true","1","","","heartS.png","","",""
"image-slider-2AFC","529","1399180","0.0-46.53-1.53","1867","","","","100","","","","","","","","heartS.png","1296","100",""
"html-keyboard-response","530","1400031","0.0-46.53-2.53","null","","","","","","","null","","","","","","","",""
"image-selector-fb","531","1401473","0.0-46.54-0.54","927","pics2/SA1.jpg,pics2/VE1.jpg","","","","","","","true","1","","","sizeS.png","","",""
"image-slider-2AFC","532","1406089","0.0-46.54-1.54","4615","","","","6","","","","","","","","sizeS.png","3258,4360","18,6",""
"html-keyboard-response","533","1406956","0.0-46.54-2.54","null","","","","","","","null","","","","","","","",""
"image-selector-fb","534","1409968","0.0-46.55-0.55","null","pics2/SA4.jpg,pics2/VE2.jpg","","","","","","","false","null","","","noS.png","","",""
"image-slider-2AFC","535","1413114","0.0-46.55-1.55","3144","","","","-90","","","","","","","","heartS.png","2488","-90",""
"html-keyboard-response","536","1413966","0.0-46.55-2.55","null","","","","","","","null","","","","","","","",""
"image-selector-fb","537","1416098","0.0-46.56-0.56","1630","pics2/FR4.jpg,pics2/SA2.jpg","","","","","","","false","0","","","sizeS.png","","",""
"image-slider-2AFC","538","1418546","0.0-46.56-1.56","2446","","","","-58","","","","","","","","sizeS.png","1591","-58",""
"html-keyboard-response","539","1419311","0.0-46.56-2.56","null","","","","","","","null","","","","","","","",""
"image-selector-fb","540","1420836","0.0-46.57-0.57","1023","pics2/SW1.jpg,pics2/SA2.jpg","","","","","","","false","0","","","sizeS.png","","",""
"image-slider-2AFC","541","1423021","0.0-46.57-1.57","2183","","","","-54","","","","","","","","heartS.png","1622","-54",""
"html-keyboard-response","542","1423731","0.0-46.57-2.57","null","","","","","","","null","","","","","","","",""
"image-selector-fb","543","1425150","0.0-46.58-0.58","918","pics2/SA2.jpg,pics2/VE2.jpg","","","","","","","true","1","","","heartS.png","","",""
"image-slider-2AFC","544","1427522","0.0-46.58-1.58","2370","","","","48","","","","","","","","sizeS.png","1598","48",""
"html-keyboard-response","545","1428273","0.0-46.58-2.58","null","","","","","","","null","","","","","","","",""
"image-selector-fb","546","1430075","0.0-46.59-0.59","1299","pics2/SA2.jpg,pics2/SA1.jpg","","","","","","","true","1","","","heartS.png","","",""
"image-slider-2AFC","547","1432100","0.0-46.59-1.59","2025","","","","76","","","","","","","","heartS.png","1477","76",""
"html-keyboard-response","548","1432966","0.0-46.59-2.59","null","","","","","","","null","","","","","","","",""
"image-selector-fb","549","1434531","0.0-46.60-0.60","1064","pics2/SA4.jpg,pics2/VE2.jpg","","","","","","","false","0","","","heartS.png","","",""
"image-slider-2AFC","550","1436409","0.0-46.60-1.60","1876","","","","50","","","","","","","","sizeS.png","1239","50",""
"html-keyboard-response","551","1437115","0.0-46.60-2.60","null","","","","","","","null","","","","","","","",""
"image-selector-fb","552","1440127","0.0-46.61-0.61","null","pics2/SA1.jpg,pics2/SW4.jpg","","","","","","","false","null","","","noS.png","","",""
"image-slider-2AFC","553","1442782","0.0-46.61-1.61","2654","","","","-57","","","","","","","","sizeS.png","1708","-57",""
"html-keyboard-response","554","1443583","0.0-46.61-2.61","null","","","","","","","null","","","","","","","",""
"image-selector-fb","555","1446600","0.0-46.62-0.62","null","pics2/FR3.jpg,pics2/SA6.jpg","","","","","","","false","null","","","noS.png","","",""
"image-slider-2AFC","556","1449152","0.0-46.62-1.62","2551","","","","53","","","","","","","","heartS.png","1469,2131","-44,53",""
"html-keyboard-response","557","1449856","0.0-46.62-2.62","null","","","","","","","null","","","","","","","",""
"image-selector-fb","558","1451923","0.0-46.63-0.63","1551","pics2/SA2.jpg,pics2/SA6.jpg","","","","","","","false","0","","","sizeS.png","","",""
"image-slider-2AFC","559","1453825","0.0-46.63-1.63","1900","","","","70","","","","","","","","heartS.png","1225","70",""
"html-keyboard-response","560","1454648","0.0-46.63-2.63","null","","","","","","","null","","","","","","","",""
"image-selector-fb","561","1455942","0.0-46.64-0.64","791","pics2/FR3.jpg,pics2/FR4.jpg","","","","","","","true","1","","","heartS.png","","",""
"image-slider-2AFC","562","1458120","0.0-46.64-1.64","2177","","","","43","","","","","","","","sizeS.png","1645","43",""
"html-keyboard-response","563","1458985","0.0-46.64-2.64","null","","","","","","","null","","","","","","","",""
"image-selector-fb","564","1461987","0.0-46.65-0.65","null","pics2/SA1.jpg,pics2/FR3.jpg","","","","","","","false","null","","","noS.png","","",""
"image-slider-2AFC","565","1464607","0.0-46.65-1.65","2619","","","","42","","","","","","","","heartS.png","2179","42",""
"html-keyboard-response","566","1465421","0.0-46.65-2.65","null","","","","","","","null","","","","","","","",""
"pavlovia","567","1465431","0.0-47.0","","","","","","","","","","","","","","","",""
"html-keyboard-response","568","1470439","0.0-48.0","null","<div style='width: 700px;'> <font size=6><b>SHORT BREAK</font></b><br><br><i> Please wait 5 seconds to continue</i></div> ","","","","","","null","","","","","","","",""
"pavlovia","569","1470440","0.0-49.0","","","","","","","","","","","","","","","",""
"html-button-response","570","1476723","0.0-50.0","6283","<div style='width: 700px;'> <font size=6><b>BLOCK 3</font></b><br><br>Press the button whenever you feel ready to start the third and final block</div>","0","","","","","","","","","","","","",""
"image-selector-fb","571","1479116","0.0-51.0-0.0","1891","pics2/SW4.jpg,pics2/FR3.jpg","","","","","","","true","1","","","sizeS.png","","",""
"image-slider-2AFC","572","1481036","0.0-51.0-1.0","1920","","","","-59","","","","","","","","heartS.png","1367","-59",""
"html-keyboard-response","573","1481738","0.0-51.0-2.0","null","","","","","","","null","","","","","","","",""
"image-selector-fb","574","1484748","0.0-51.1-0.1","null","pics2/FR4.jpg,pics2/FR3.jpg","","","","","","","false","null","","","noS.png","","",""
"image-slider-2AFC","575","1488060","0.0-51.1-1.1","3311","","","","46","","","","","","","","sizeS.png","2258","46",""
"html-keyboard-response","576","1488789","0.0-51.1-2.1","null","","","","","","","null","","","","","","","",""
"image-selector-fb","577","1491796","0.0-51.2-0.2","null","pics2/SA4.jpg,pics2/FR6.jpg","","","","","","","false","null","","","noS.png","","",""
"image-slider-2AFC","578","1493670","0.0-51.2-1.2","1873","","","","-49","","","","","","","","heartS.png","1370","-49",""
"html-keyboard-response","579","1494388","0.0-51.2-2.2","null","","","","","","","null","","","","","","","",""
"image-selector-fb","580","1496276","0.0-51.3-0.3","1386","pics2/SA1.jpg,pics2/SA6.jpg","","","","","","","false","0","","","sizeS.png","","",""
"image-slider-2AFC","581","1498364","0.0-51.3-1.3","2086","","","","-63","","","","","","","","sizeS.png","1547","-63",""
"html-keyboard-response","582","1499130","0.0-51.3-2.3","null","","","","","","","null","","","","","","","",""
"image-selector-fb","583","1501322","0.0-51.4-0.4","1690","pics2/VE4.jpg,pics2/SW1.jpg","","","","","","","false","0","","","heartS.png","","",""
"image-slider-2AFC","584","1503219","0.0-51.4-1.4","1896","","","","-55","","","","","","","","heartS.png","1082","-55",""
"html-keyboard-response","585","1503971","0.0-51.4-2.4","null","","","","","","","null","","","","","","","",""
"image-selector-fb","586","1505327","0.0-51.5-0.5","854","pics2/FR4.jpg,pics2/FR6.jpg","","","","","","","false","0","","","sizeS.png","","",""
"image-slider-2AFC","587","1508326","0.0-51.5-1.5","2998","","","","-41","","","","","","","","sizeS.png","2489","-41",""
"html-keyboard-response","588","1509138","0.0-51.5-2.5","null","","","","","","","null","","","","","","","",""
"image-selector-fb","589","1510949","0.0-51.6-0.6","1308","pics2/SW1.jpg,pics2/SW4.jpg","","","","","","","false","0","","","sizeS.png","","",""
"image-slider-2AFC","590","1512656","0.0-51.6-1.6","1706","","","","-39","","","","","","","","heartS.png","1171","-39",""
"html-keyboard-response","591","1513417","0.0-51.6-2.6","null","","","","","","","null","","","","","","","",""
"image-selector-fb","592","1516437","0.0-51.7-0.7","null","pics2/VE4.jpg,pics2/SA6.jpg","","","","","","","false","null","","","noS.png","","",""
"image-slider-2AFC","593","1518273","0.0-51.7-1.7","1835","","","","-60","","","","","","","","heartS.png","1283","-60",""
"html-keyboard-response","594","1519049","0.0-51.7-2.7","null","","","","","","","null","","","","","","","",""
"image-selector-fb","595","1522027","0.0-51.8-0.8","2476","pics2/SA4.jpg,pics2/SA2.jpg","","","","","","","false","0","","","sizeS.png","","",""
"image-slider-2AFC","596","1523171","0.0-51.8-1.8","1142","","","","-3","","","","","","","","sizeS.png","831","-3",""
"html-keyboard-response","597","1523931","0.0-51.8-2.8","null","","","","","","","null","","","","","","","",""
"image-selector-fb","598","1526937","0.0-51.9-0.9","null","pics2/VE4.jpg,pics2/FR4.jpg","","","","","","","false","null","","","noS.png","","",""
"image-slider-2AFC","599","1530775","0.0-51.9-1.9","3838","","","","-68","","","","","","","","heartS.png","3250","-68",""
"html-keyboard-response","600","1531536","0.0-51.9-2.9","null","","","","","","","null","","","","","","","",""
"image-selector-fb","601","1533049","0.0-51.10-0.10","1001","pics2/SA2.jpg,pics2/SA4.jpg","","","","","","","true","1","","","heartS.png","","",""
"image-slider-2AFC","602","1535173","0.0-51.10-1.10","2124","","","","46","","","","","","","","heartS.png","1666","46",""
"html-keyboard-response","603","1536034","0.0-51.10-2.10","null","","","","","","","null","","","","","","","",""
"image-selector-fb","604","1539039","0.0-51.11-0.11","null","pics2/SW4.jpg,pics2/FR4.jpg","","","","","","","false","null","","","noS.png","","",""
"image-slider-2AFC","605","1541926","0.0-51.11-1.11","2887","","","","-25","","","","","","","","sizeS.png","2236","-25",""
"html-keyboard-response","606","1542790","0.0-51.11-2.11","null","","","","","","","null","","","","","","","",""
"image-selector-fb","607","1545803","0.0-51.12-0.12","null","pics2/SA1.jpg,pics2/FR6.jpg","","","","","","","false","null","","","noS.png","","",""
"image-slider-2AFC","608","1548434","0.0-51.12-1.12","2630","","","","37","","","","","","","","heartS.png","2193","37",""
"html-keyboard-response","609","1549156","0.0-51.12-2.12","null","","","","","","","null","","","","","","","",""
"image-selector-fb","610","1551343","0.0-51.13-0.13","1686","pics2/FR4.jpg,pics2/VE1.jpg","","","","","","","true","1","","","sizeS.png","","",""
"image-slider-2AFC","611","1553148","0.0-51.13-1.13","1805","","","","47","","","","","","","","heartS.png","1365","47",""
"html-keyboard-response","612","1553854","0.0-51.13-2.13","null","","","","","","","null","","","","","","","",""
"image-selector-fb","613","1556866","0.0-51.14-0.14","null","pics2/VE4.jpg,pics2/FR6.jpg","","","","","","","false","null","","","noS.png","","",""
"image-slider-2AFC","614","1559789","0.0-51.14-1.14","2923","","","","-41","","","","","","","","sizeS.png","2452","-41",""
"html-keyboard-response","615","1560659","0.0-51.14-2.14","null","","","","","","","null","","","","","","","",""
"image-selector-fb","616","1562154","0.0-51.15-0.15","984","pics2/SW4.jpg,pics2/SA6.jpg","","","","","","","false","0","","","heartS.png","","",""
"image-slider-2AFC","617","1563779","0.0-51.15-1.15","1624","","","","-65","","","","","","","","heartS.png","1100","-65",""
"html-keyboard-response","618","1564547","0.0-51.15-2.15","null","","","","","","","null","","","","","","","",""
"image-selector-fb","619","1567552","0.0-51.16-0.16","null","pics2/SW4.jpg,pics2/VE2.jpg","","","","","","","false","null","","","noS.png","","",""
"image-slider-2AFC","620","1570829","0.0-51.16-1.16","3276","","","","59","","","","","","","","heartS.png","2795","59",""
"html-keyboard-response","621","1571546","0.0-51.16-2.16","null","","","","","","","null","","","","","","","",""
"image-selector-fb","622","1574562","0.0-51.17-0.17","null","pics2/VE1.jpg,pics2/SW1.jpg","","","","","","","false","null","","","noS.png","","",""
"image-slider-2AFC","623","1577111","0.0-51.17-1.17","2548","","","","36","","","","","","","","heartS.png","1896","36",""
"html-keyboard-response","624","1577817","0.0-51.17-2.17","null","","","","","","","null","","","","","","","",""
"image-selector-fb","625","1580705","0.0-51.18-0.18","2387","pics2/VE2.jpg,pics2/VE4.jpg","","","","","","","false","0","","","sizeS.png","","",""
"image-slider-2AFC","626","1582725","0.0-51.18-1.18","2019","","","","-58","","","","","","","","sizeS.png","1404","-58",""
"html-keyboard-response","627","1583588","0.0-51.18-2.18","null","","","","","","","null","","","","","","","",""
"image-selector-fb","628","1585064","0.0-51.19-0.19","973","pics2/SW1.jpg,pics2/SA6.jpg","","","","","","","false","0","","","sizeS.png","","",""
"image-slider-2AFC","629","1587119","0.0-51.19-1.19","2055","","","","-75","","","","","","","","sizeS.png","1263","-75",""
"html-keyboard-response","630","1587833","0.0-51.19-2.19","null","","","","","","","null","","","","","","","",""
"image-selector-fb","631","1590845","0.0-51.20-0.20","null","pics2/SW1.jpg,pics2/FR3.jpg","","","","","","","false","null","","","noS.png","","",""
"image-slider-2AFC","632","1593625","0.0-51.20-1.20","2779","","","","-74","","","","","","","","heartS.png","2108","-74",""
"html-keyboard-response","633","1594377","0.0-51.20-2.20","null","","","","","","","null","","","","","","","",""
"image-selector-fb","634","1596556","0.0-51.21-0.21","1677","pics2/FR4.jpg,pics2/SA6.jpg","","","","","","","true","1","","","sizeS.png","","",""
"image-slider-2AFC","635","1598911","0.0-51.21-1.21","2355","","","","78","","","","","","","","heartS.png","1639","78",""
"html-keyboard-response","636","1599629","0.0-51.21-2.21","null","","","","","","","null","","","","","","","",""
"image-selector-fb","637","1602645","0.0-51.22-0.22","null","pics2/SA2.jpg,pics2/FR4.jpg","","","","","","","false","null","","","noS.png","","",""
"image-slider-2AFC","638","1604980","0.0-51.22-1.22","2334","","","","43","","","","","","","","sizeS.png","1876","43",""
"html-keyboard-response","639","1605745","0.0-51.22-2.22","null","","","","","","","null","","","","","","","",""
"image-selector-fb","640","1607350","0.0-51.23-0.23","1104","pics2/FR6.jpg,pics2/VE2.jpg","","","","","","","true","1","","","heartS.png","","",""
"image-slider-2AFC","641","1608773","0.0-51.23-1.23","1422","","","","20","","","","","","","","heartS.png","983","20",""
"html-keyboard-response","642","1609534","0.0-51.23-2.23","null","","","","","","","null","","","","","","","",""
"image-selector-fb","643","1612545","0.0-51.24-0.24","null","pics2/FR6.jpg,pics2/SW1.jpg","","","","","","","false","null","","","noS.png","","",""
"image-slider-2AFC","644","1614404","0.0-51.24-1.24","1858","","","","51","","","","","","","","heartS.png","1392","51",""
"html-keyboard-response","645","1615273","0.0-51.24-2.24","null","","","","","","","null","","","","","","","",""
"image-selector-fb","646","1616474","0.0-51.25-0.25","699","pics2/FR6.jpg,pics2/VE4.jpg","","","","","","","true","1","","","heartS.png","","",""
"image-slider-2AFC","647","1618560","0.0-51.25-1.25","2085","","","","40","","","","","","","","sizeS.png","1641","40",""
"html-keyboard-response","648","1619327","0.0-51.25-2.25","null","","","","","","","null","","","","","","","",""
"image-selector-fb","649","1622341","0.0-51.26-0.26","null","pics2/SA4.jpg,pics2/FR4.jpg","","","","","","","false","null","","","noS.png","","",""
"image-slider-2AFC","650","1625900","0.0-51.26-1.26","3559","","","","55","","","","","","","","sizeS.png","3049","55",""
"html-keyboard-response","651","1626702","0.0-51.26-2.26","null","","","","","","","null","","","","","","","",""
"image-selector-fb","652","1628006","0.0-51.27-0.27","795","pics2/SA1.jpg,pics2/VE4.jpg","","","","","","","true","1","","","sizeS.png","","",""
"image-slider-2AFC","653","1632227","0.0-51.27-1.27","4221","","","","-28","","","","","","","","sizeS.png","3283","-28",""
"html-keyboard-response","654","1632993","0.0-51.27-2.27","null","","","","","","","null","","","","","","","",""
"image-selector-fb","655","1636004","0.0-51.28-0.28","null","pics2/SA1.jpg,pics2/VE4.jpg","","","","","","","false","null","","","noS.png","","",""
"image-slider-2AFC","656","1638791","0.0-51.28-1.28","2786","","","","-54","","","","","","","","sizeS.png","2249","-54",""
"html-keyboard-response","657","1639493","0.0-51.28-2.28","null","","","","","","","null","","","","","","","",""
"image-selector-fb","658","1640933","0.0-51.29-0.29","939","pics2/VE4.jpg,pics2/SA4.jpg","","","","","","","false","0","","","heartS.png","","",""
"image-slider-2AFC","659","1644010","0.0-51.29-1.29","3077","","","","-32","","","","","","","","sizeS.png","2511","-32",""
"html-keyboard-response","660","1644865","0.0-51.29-2.29","null","","","","","","","null","","","","","","","",""
"image-selector-fb","661","1647889","0.0-51.30-0.30","2510","pics2/SA2.jpg,pics2/SW1.jpg","","","","","","","true","1","","","heartS.png","","",""
"image-slider-2AFC","662","1649993","0.0-51.30-1.30","2103","","","","78","","","","","","","","sizeS.png","1650","78",""
"html-keyboard-response","663","1650804","0.0-51.30-2.30","null","","","","","","","null","","","","","","","",""
"image-selector-fb","664","1653292","0.0-51.31-0.31","1985","pics2/VE2.jpg,pics2/SW1.jpg","","","","","","","true","1","","","sizeS.png","","",""
"image-slider-2AFC","665","1655100","0.0-51.31-1.31","1807","","","","64","","","","","","","","heartS.png","1233","64",""
"html-keyboard-response","666","1655911","0.0-51.31-2.31","null","","","","","","","null","","","","","","","",""
"image-selector-fb","667","1657267","0.0-51.32-0.32","853","pics2/FR4.jpg,pics2/VE4.jpg","","","","","","","true","1","","","sizeS.png","","",""
"image-slider-2AFC","668","1659833","0.0-51.32-1.32","2565","","","","55","","","","","","","","heartS.png","1538","55",""
"html-keyboard-response","669","1660599","0.0-51.32-2.32","null","","","","","","","null","","","","","","","",""
"image-selector-fb","670","1663611","0.0-51.33-0.33","null","pics2/FR4.jpg,pics2/SA6.jpg","","","","","","","false","null","","","noS.png","","",""
"image-slider-2AFC","671","1666282","0.0-51.33-1.33","2670","","","","23","","","","","","","","heartS.png","2292","23",""
"html-keyboard-response","672","1666994","0.0-51.33-2.33","null","","","","","","","null","","","","","","","",""
"image-selector-fb","673","1668413","0.0-51.34-0.34","906","pics2/FR3.jpg,pics2/SW4.jpg","","","","","","","true","1","","","heartS.png","","",""
"image-slider-2AFC","674","1671578","0.0-51.34-1.34","3164","","","","-21","","","","","","","","sizeS.png","2576,2663","-21,-21",""
"html-keyboard-response","675","1672441","0.0-51.34-2.34","null","","","","","","","null","","","","","","","",""
"image-selector-fb","676","1675457","0.0-51.35-0.35","null","pics2/SW4.jpg,pics2/FR3.jpg","","","","","","","false","null","","","noS.png","","",""
"image-slider-2AFC","677","1678122","0.0-51.35-1.35","2665","","","","-68","","","","","","","","heartS.png","2103","-68",""
"html-keyboard-response","678","1678837","0.0-51.35-2.35","null","","","","","","","null","","","","","","","",""
"image-selector-fb","679","1680499","0.0-51.36-0.36","1160","pics2/VE1.jpg,pics2/FR4.jpg","","","","","","","false","0","","","heartS.png","","",""
"image-slider-2AFC","680","1682726","0.0-51.36-1.36","2227","","","","-40","","","","","","","","sizeS.png","1593","-40",""
"html-keyboard-response","681","1683493","0.0-51.36-2.36","null","","","","","","","null","","","","","","","",""
"image-selector-fb","682","1685833","0.0-51.37-0.37","1838","pics2/SA2.jpg,pics2/VE1.jpg","","","","","","","true","1","","","sizeS.png","","",""
"image-slider-2AFC","683","1687560","0.0-51.37-1.37","1726","","","","50","","","","","","","","heartS.png","1224","50",""
"html-keyboard-response","684","1688263","0.0-51.37-2.37","null","","","","","","","null","","","","","","","",""
"image-selector-fb","685","1689544","0.0-51.38-0.38","780","pics2/SA6.jpg,pics2/VE4.jpg","","","","","","","true","1","","","heartS.png","","",""
"image-slider-2AFC","686","1692472","0.0-51.38-1.38","2928","","","","28","","","","","","","","sizeS.png","2598","28",""
"html-keyboard-response","687","1693334","0.0-51.38-2.38","null","","","","","","","null","","","","","","","",""
"image-selector-fb","688","1694812","0.0-51.39-0.39","976","pics2/SA6.jpg,pics2/FR4.jpg","","","","","","","false","0","","","heartS.png","","",""
"image-slider-2AFC","689","1696112","0.0-51.39-1.39","1299","","","","-15","","","","","","","","heartS.png","957","-15",""
"html-keyboard-response","690","1696888","0.0-51.39-2.39","null","","","","","","","null","","","","","","","",""
"image-selector-fb","691","1698707","0.0-51.40-0.40","1312","pics2/SA4.jpg,pics2/VE1.jpg","","","","","","","true","1","","","sizeS.png","","",""
"image-slider-2AFC","692","1700243","0.0-51.40-1.40","1536","","","","-44","","","","","","","","heartS.png","1003","-44",""
"html-keyboard-response","693","1701045","0.0-51.40-2.40","null","","","","","","","null","","","","","","","",""
"image-selector-fb","694","1702582","0.0-51.41-0.41","1035","pics2/FR6.jpg,pics2/SW4.jpg","","","","","","","true","1","","","sizeS.png","","",""
"image-slider-2AFC","695","1704210","0.0-51.41-1.41","1628","","","","61","","","","","","","","heartS.png","1150","61",""
"html-keyboard-response","696","1705018","0.0-51.41-2.41","null","","","","","","","null","","","","","","","",""
"image-selector-fb","697","1707225","0.0-51.42-0.42","1704","pics2/SA4.jpg,pics2/SW4.jpg","","","","","","","true","1","","","sizeS.png","","",""
"image-slider-2AFC","698","1709985","0.0-51.42-1.42","2760","","","","66","","","","","","","","sizeS.png","2108","66",""
"html-keyboard-response","699","1710737","0.0-51.42-2.42","null","","","","","","","null","","","","","","","",""
"image-selector-fb","700","1712187","0.0-51.43-0.43","947","pics2/SA1.jpg,pics2/SA4.jpg","","","","","","","false","0","","","sizeS.png","","",""
"image-slider-2AFC","701","1714111","0.0-51.43-1.43","1924","","","","-92","","","","","","","","sizeS.png","1176","-92",""
"html-keyboard-response","702","1714886","0.0-51.43-2.43","null","","","","","","","null","","","","","","","",""
"image-selector-fb","703","1717904","0.0-51.44-0.44","null","pics2/SA4.jpg,pics2/SA6.jpg","","","","","","","false","null","","","noS.png","","",""
"image-slider-2AFC","704","1720872","0.0-51.44-1.44","2967","","","","21","","","","","","","","sizeS.png","2650","21",""
"html-keyboard-response","705","1721731","0.0-51.44-2.44","null","","","","","","","null","","","","","","","",""
"image-selector-fb","706","1724733","0.0-51.45-0.45","null","pics2/SA2.jpg,pics2/SW4.jpg","","","","","","","false","null","","","noS.png","","",""
"image-slider-2AFC","707","1727139","0.0-51.45-1.45","2404","","","","37","","","","","","","","sizeS.png","1996","37",""
"html-keyboard-response","708","1728000","0.0-51.45-2.45","null","","","","","","","null","","","","","","","",""
