"trial_type","trial_index","time_elapsed","internal_node_id","rt","stimulus","button_pressed","success","response","cat","value","key_press","correct","image_click","first_click_rt","first_click_val","symbol","all_click_rt","all_click_val","view_history"
"pavlovia","0","7","0.0-0.0","","","","","","","","","","","","","","","",""
"html-button-response","1","14297","0.0-1.0","14287","<div style='width: 700px; font-size: 150%'><font size='40'>  Welcome to our study!</font><br><br><br> <small> Our experiment is about <i>decision making</i>. You will choose and rate different food items, such as these: <br><br> <div><img src='food_combo2.png', height = '400px'></img></div>","0","","","","","","","","","","","","",""
"html-button-response","2","26690","0.0-2.0","12390","<div style='width: 700px; font-size: 150%'><br><br><br><small> <u><i>This is a multi-part study.</i></u><br><br> In the first part you will rate 24 food items twice.<br><br><div><img src=""rat1.png"" style=""width: 25%""></img></div><br>In the second part (longest) you will make repeated choices and judgements concerning the food items.<br><br><div><img src=""mainx.png"" style=""width: 50%""></img></div><br>In the third and final part, you will rate the items again and answer few short questionnaires.<br><br><div><img src=""rat2.png"" style=""width: 50%""></img></div><br><br>","0","","","","","","","","","","","","",""
"fullscreen","3","32442","0.0-3.0","","","","true","","","","","","","","","","","",""
"html-button-response","4","95486","0.0-4.0","63042","<div style='width: 900px; font-size: 150%;' <font size='20%'> In the first part of the task you will use the mouse to rate food items on <i>2 scales</i> </font></div><br><br><div style='width: 900px'><div style='float: left; width: 50%; margin-right:2.5em'><img src='heartS.png'></img><p class='small' style='text-align: justify'>When you see the heart cue you will rate food items in terms of how much like them/would like to eat them <i>right now</i>. You will rate them on a continuous scale from left (strong dislike) to right (strong liking). Before submitting your rating, try imagining how the item tastes and how much you desire it.<br><br></p></div><div ><img src='sizeS.png'></img><p class='small' style='text-align: justify'>When you see the size cue, you will rate the same food items in terms of their size. The scale goes from left (tiny) to right (very large). You should assess picture size <i><u>relative</i></u> to the white background. <b>Remember:</b> rate the size of the picture, <u>not</u> the size of the item in real life. </p></div><div style='width: 900px'><br><br><b><i>Notice:</b> by starting the rating you agree that your sumbission might be rejected at an early stage and the experiment might end, if your size ratings are not at least modestly related to objective sizes, or if you repeat the same value ratings too many times. If you don't agree, please exit by closing the browser window. </i><br><br><br>","0","","","","","","","","","","","","",""
"html-button-response","5","118165","0.0-5.0","22676","<div><img src='heartS.png'></img></div><br><div style='text-align: justify; width: 700px'>Using the mouse, rate the <b><i>likeness</b></i> of the food items (how much you like them/would like to eat them <i>right now</i>). Far right-end of the scale indicates an item you <i>like a lot</i>. Far left-end indicates an item you <i>dislike a lot</i>. Think about each answer.   <ul><li>Try <b><i>not</b></i> to give identical rating to different items.</li><li>Use the whole scale, and <b><i>not</b></i> just the extremes</ul></div><br>","0","","","","","","","","","","","","",""
"image-slider-response","6","136879","0.0-6.0-0.0-0.0","18710","pics2/SA5.jpg","","","61","SA","","","","","","","","","",""
"image-slider-response","7","141526","0.0-6.0-0.0-0.1","4444","pics2/FR3.jpg","","","89","FR","","","","","","","","","",""
"image-slider-response","8","151584","0.0-6.0-0.0-0.2","9855","pics2/FR1.jpg","","","72","FR","","","","","","","","","",""
"image-slider-response","9","155934","0.0-6.0-0.0-0.3","4146","pics2/FR4.jpg","","","73","FR","","","","","","","","","",""
"image-slider-response","10","160863","0.0-6.0-0.0-0.4","4725","pics2/FR5.jpg","","","78","FR","","","","","","","","","",""
"image-slider-response","11","167948","0.0-6.0-0.0-0.5","6882","pics2/VE4.jpg","","","55","VE","","","","","","","","","",""
"image-slider-response","12","173503","0.0-6.0-0.0-0.6","5353","pics2/SA3.jpg","","","97","SA","","","","","","","","","",""
"image-slider-response","13","181116","0.0-6.0-0.0-0.7","7409","pics2/SW6.jpg","","","83","SW","","","","","","","","","",""
"image-slider-response","14","189772","0.0-6.0-0.0-0.8","8453","pics2/FR2.jpg","","","78","FR","","","","","","","","","",""
"image-slider-response","15","193055","0.0-6.0-0.0-0.9","3081","pics2/SW4.jpg","","","94","SW","","","","","","","","","",""
"image-slider-response","16","199087","0.0-6.0-0.0-0.10","5829","pics2/VE1.jpg","","","55","VE","","","","","","","","","",""
"image-slider-response","17","206462","0.0-6.0-0.0-0.11","7172","pics2/SW5.jpg","","","83","SW","","","","","","","","","",""
"image-slider-response","18","211033","0.0-6.0-0.0-0.12","4368","pics2/SA2.jpg","","","92","SA","","","","","","","","","",""
"image-slider-response","19","216285","0.0-6.0-0.0-0.13","5049","pics2/SW3.jpg","","","98","SW","","","","","","","","","",""
"image-slider-response","20","227740","0.0-6.0-0.0-0.14","11251","pics2/VE6.jpg","","","55","VE","","","","","","","","","",""
"image-slider-response","21","234788","0.0-6.0-0.0-0.15","6846","pics2/VE2.jpg","","","43","VE","","","","","","","","","",""
"image-slider-response","22","240481","0.0-6.0-0.0-0.16","5491","pics2/SW1.jpg","","","100","SW","","","","","","","","","",""
"image-slider-response","23","244632","0.0-6.0-0.0-0.17","3948","pics2/VE5.jpg","","","48","VE","","","","","","","","","",""
"image-slider-response","24","252081","0.0-6.0-0.0-0.18","7246","pics2/SA4.jpg","","","95","SA","","","","","","","","","",""
"image-slider-response","25","258362","0.0-6.0-0.0-0.19","6077","pics2/SA1.jpg","","","26","SA","","","","","","","","","",""
"image-slider-response","26","262598","0.0-6.0-0.0-0.20","4033","pics2/SA6.jpg","","","1","SA","","","","","","","","","",""
"image-slider-response","27","268208","0.0-6.0-0.0-0.21","5407","pics2/VE3.jpg","","","10","VE","","","","","","","","","",""
"image-slider-response","28","272453","0.0-6.0-0.0-0.22","4042","pics2/SW2.jpg","","","81","SW","","","","","","","","","",""
"image-slider-response","29","278035","0.0-6.0-0.0-0.23","5380","pics2/FR6.jpg","","","84","FR","","","","","","","","","",""
"html-button-response","30","280188","0.0-7.0","1949","<div style='width: 900px;'> <font size = 6><b> End of the first rating</b><br><br>","0","","","","","","","","","","","","",""
"html-button-response","31","399985","0.0-9.0","119795","<div ><img src='sizeS.png'></img></div><br><div style='text-align: justify; width: 700px'> Using the mouse, rate the <b><i>size</b></i> of the food items <b><i> relative to the white background.</b></i> Right-end of the scale indicates a <i>very large item</i>, which covers a large portion of the white rectangle. Left-end indicates a <i>very tiny</i> item which covers a tiny portion of the white rectangle.<br><br><i><u>Remember</i></u>: everything that is not the white background also contributes to item size (e.g. packing, plates, ect.)<br><br> Please keep in mind that if the accuracy of ratings do not allign well with actual sizes, the experiment will end.  As a result it will be consider incomplete and therefore no payment would be made. Good luck!<br><br></div><br>","0","","","","","","","","","","","","",""
"html-button-response","32","420659","0.0-10.0","20672","<div ><img src='sizeS.png'></img></div><br><b><font size=6>Examples of items that you might encounter</b><br><div style='width: 750px;'><div style='width: 33.33%; float:left'><br><br><br><i>Large Item</i><br><br><img src='large.jpg', width=200px></img></div><div style='float:right'><br><br><br><i>Small Item</i><br><br><img src='small.jpg', width=200px></img></div><div ><br><br><br><i>Medium Item</i><br><br><img src='med.jpg', width=200px></img></div></div><br><br>","0","","","","","","","","","","","","",""
"image-slider-response","33","465729","0.0-11.0-0.0-0.0","45067","pics2/FR6.jpg","","","52","null","","","","","","","","","",""
"image-slider-response","34","490905","0.0-11.0-0.0-0.1","24973","pics2/FR1.jpg","","","68","null","","","","","","","","","",""
"image-slider-response","35","505961","0.0-11.0-0.0-0.2","14852","pics2/FR5.jpg","","","55","null","","","","","","","","","",""
"image-slider-response","36","527798","0.0-11.0-0.0-0.3","21634","pics2/FR2.jpg","","","66","null","","","","","","","","","",""
"image-slider-response","37","537667","0.0-11.0-0.0-0.4","9666","pics2/VE3.jpg","","","75","null","","","","","","","","","",""
"image-slider-response","38","549740","0.0-11.0-0.0-0.5","11870","pics2/VE4.jpg","","","75","null","","","","","","","","","",""
"image-slider-response","39","558629","0.0-11.0-0.0-0.6","8685","pics2/VE6.jpg","","","50","null","","","","","","","","","",""
"image-slider-response","40","569368","0.0-11.0-0.0-0.7","10537","pics2/VE1.jpg","","","50","null","","","","","","","","","",""
"image-slider-response","41","585006","0.0-11.0-0.0-0.8","15434","pics2/SA1.jpg","","","86","null","","","","","","","","","",""
"image-slider-response","42","589937","0.0-11.0-0.0-0.9","4727","pics2/SW1.jpg","","","90","null","","","","","","","","","",""
"image-slider-response","43","601393","0.0-11.0-0.0-0.10","11254","pics2/FR3.jpg","","","54","null","","","","","","","","","",""
"image-slider-response","44","611291","0.0-11.0-0.0-0.11","9695","pics2/FR4.jpg","","","74","null","","","","","","","","","",""
"image-slider-response","45","627095","0.0-11.0-0.0-0.12","15600","pics2/SA3.jpg","","","70","null","","","","","","","","","",""
"image-slider-response","46","631689","0.0-11.0-0.0-0.13","4391","pics2/VE2.jpg","","","68","null","","","","","","","","","",""
"image-slider-response","47","637944","0.0-11.0-0.0-0.14","6053","pics2/SA4.jpg","","","50","null","","","","","","","","","",""
"image-slider-response","48","648071","0.0-11.0-0.0-0.15","9924","pics2/SA5.jpg","","","50","null","","","","","","","","","",""
"image-slider-response","49","659026","0.0-11.0-0.0-0.16","10751","pics2/SW4.jpg","","","61","null","","","","","","","","","",""
"image-slider-response","50","669714","0.0-11.0-0.0-0.17","10484","pics2/SA2.jpg","","","50","null","","","","","","","","","",""
"image-slider-response","51","674542","0.0-11.0-0.0-0.18","4626","pics2/SW3.jpg","","","55","null","","","","","","","","","",""
"image-slider-response","52","680609","0.0-11.0-0.0-0.19","5864","pics2/SA6.jpg","","","53","null","","","","","","","","","",""
"image-slider-response","53","685087","0.0-11.0-0.0-0.20","4275","pics2/SW6.jpg","","","50","null","","","","","","","","","",""
"image-slider-response","54","689863","0.0-11.0-0.0-0.21","4573","pics2/VE5.jpg","","","50","null","","","","","","","","","",""
"image-slider-response","55","696324","0.0-11.0-0.0-0.22","6259","pics2/SW2.jpg","","","91","null","","","","","","","","","",""
"image-slider-response","56","703159","0.0-11.0-0.0-0.23","6632","pics2/SW5.jpg","","","91","null","","","","","","","","","",""
"html-button-response","57","705342","0.0-12.0","1981","<div style='width: 900px;'> <font size = 6><b> End of the second rating</b><br><br>","0","","","","","","","","","","","","",""
"html-button-response","58","712579","0.0-13.0","7235","<div style='width: 900px;'>Now please rate the items for the second time. <br><br>This is not a memory test - you don't need to be consistent with your previous ratings. Just as before, try to make accurate judgements.<br><br>","0","","","","","","","","","","","","",""
"html-button-response","59","724555","0.0-14.0","11975","<div><img src='heartS.png'></img></div><br><div style='text-align: justify; width: 700px'>Using the mouse, rate the <b><i>likeness</b></i> of the food items (how much you like them/would like to eat them <i>right now</i>). Far right-end of the scale indicates an item you <i>like a lot</i>. Far left-end indicates an item you <i>dislike a lot</i>. Think about each answer.   <ul><li>Try <b><i>not</b></i> to give identical rating to different items.</li><li>Use the whole scale, and <b><i>not</b></i> just the extremes</ul></div><br>","0","","","","","","","","","","","","",""
"image-slider-response","60","729972","0.0-15.0-0.0-0.0","5415","pics2/FR3.jpg","","","98","FR","","","","","","","","","",""
"image-slider-response","61","734571","0.0-15.0-0.0-0.1","4395","pics2/SW2.jpg","","","92","SW","","","","","","","","","",""
"image-slider-response","62","739017","0.0-15.0-0.0-0.2","4244","pics2/VE6.jpg","","","50","VE","","","","","","","","","",""
"image-slider-response","63","744027","0.0-15.0-0.0-0.3","4807","pics2/SW4.jpg","","","98","SW","","","","","","","","","",""
"image-slider-response","64","747118","0.0-15.0-0.0-0.4","2888","pics2/FR4.jpg","","","75","FR","","","","","","","","","",""
"image-slider-response","65","750376","0.0-15.0-0.0-0.5","3055","pics2/VE1.jpg","","","50","VE","","","","","","","","","",""
"image-slider-response","66","754915","0.0-15.0-0.0-0.6","4336","pics2/SA6.jpg","","","8","SA","","","","","","","","","",""
"image-slider-response","67","759150","0.0-15.0-0.0-0.7","4033","pics2/SA1.jpg","","","15","SA","","","","","","","","","",""
"image-slider-response","68","762575","0.0-15.0-0.0-0.8","3221","pics2/VE3.jpg","","","17","VE","","","","","","","","","",""
"image-slider-response","69","767434","0.0-15.0-0.0-0.9","4657","pics2/SA4.jpg","","","87","SA","","","","","","","","","",""
"image-slider-response","70","773313","0.0-15.0-0.0-0.10","5677","pics2/FR6.jpg","","","92","FR","","","","","","","","","",""
"image-slider-response","71","777184","0.0-15.0-0.0-0.11","3667","pics2/FR1.jpg","","","73","FR","","","","","","","","","",""
"image-slider-response","72","781929","0.0-15.0-0.0-0.12","4542","pics2/SA5.jpg","","","50","SA","","","","","","","","","",""
"image-slider-response","73","786634","0.0-15.0-0.0-0.13","4503","pics2/VE2.jpg","","","15","VE","","","","","","","","","",""
"image-slider-response","74","794077","0.0-15.0-0.0-0.14","7239","pics2/SW3.jpg","","","99","SW","","","","","","","","","",""
"image-slider-response","75","797834","0.0-15.0-0.0-0.15","3553","pics2/SW6.jpg","","","74","SW","","","","","","","","","",""
"image-slider-response","76","801591","0.0-15.0-0.0-0.16","3555","pics2/SA2.jpg","","","98","SA","","","","","","","","","",""
"image-slider-response","77","805734","0.0-15.0-0.0-0.17","3940","pics2/SW5.jpg","","","88","SW","","","","","","","","","",""
"image-slider-response","78","810965","0.0-15.0-0.0-0.18","5029","pics2/SA3.jpg","","","99","SA","","","","","","","","","",""
"image-slider-response","79","814369","0.0-15.0-0.0-0.19","3200","pics2/FR2.jpg","","","79","FR","","","","","","","","","",""
"image-slider-response","80","817588","0.0-15.0-0.0-0.20","3017","pics2/SW1.jpg","","","99","SW","","","","","","","","","",""
"image-slider-response","81","821525","0.0-15.0-0.0-0.21","3735","pics2/VE5.jpg","","","50","VE","","","","","","","","","",""
"image-slider-response","82","824665","0.0-15.0-0.0-0.22","2936","pics2/FR5.jpg","","","66","FR","","","","","","","","","",""
"image-slider-response","83","829552","0.0-15.0-0.0-0.23","4685","pics2/VE4.jpg","","","56","VE","","","","","","","","","",""
"call-function","84","829764","0.0-16.0","","","","","","","","","","","","","","","",""
"call-function","85","829767","0.0-17.0","","","","","","","","","","","","","","","",""
"html-button-response","86","831462","0.0-18.0","1693","<div style='width: 900px;'> <font size = 6><b> End of the first rating</b><br><br>","0","","","","","","","","","","","","",""
"html-button-response","87","836257","0.0-19.0","4794","<div ><img src='sizeS.png'></img></div><br><div style='text-align: justify; width: 700px'> Using the mouse, rate the <b><i>size</b></i> of the food items <b><i> relative to the white background.</b></i> Right-end of the scale indicates a <i>very large item</i>, which covers a large portion of the white rectangle. Left-end indicates a <i>very tiny</i> item which covers a tiny portion of the white rectangle.<br><br><i><u>Remember</i></u>: everything that is not the white background also contributes to item size (e.g. packing, plates, ect.)<br><br> Please keep in mind that if the accuracy of ratings do not allign well with actual sizes, the experiment will end.  As a result it will be consider incomplete and therefore no payment would be made. Good luck!<br><br></div><br>","0","","","","","","","","","","","","",""
"image-slider-response","88","850029","0.0-20.0-0.0-0.0","13769","pics2/VE2.jpg","","","72","null","","","","","","","","","",""
"image-slider-response","89","854582","0.0-20.0-0.0-0.1","4350","pics2/FR6.jpg","","","55","null","","","","","","","","","",""
"image-slider-response","90","859431","0.0-20.0-0.0-0.2","4647","pics2/SW4.jpg","","","53","null","","","","","","","","","",""
"image-slider-response","91","870615","0.0-20.0-0.0-0.3","10981","pics2/FR5.jpg","","","61","null","","","","","","","","","",""
"image-slider-response","92","876848","0.0-20.0-0.0-0.4","6030","pics2/VE1.jpg","","","50","null","","","","","","","","","",""
"image-slider-response","93","881189","0.0-20.0-0.0-0.5","4139","pics2/SA6.jpg","","","50","null","","","","","","","","","",""
"image-slider-response","94","896050","0.0-20.0-0.0-0.6","14659","pics2/VE5.jpg","","","50","null","","","","","","","","","",""
"image-slider-response","95","906561","0.0-20.0-0.0-0.7","10307","pics2/FR2.jpg","","","59","null","","","","","","","","","",""
"image-slider-response","96","910996","0.0-20.0-0.0-0.8","4232","pics2/VE4.jpg","","","50","null","","","","","","","","","",""
"image-slider-response","97","919274","0.0-20.0-0.0-0.9","8075","pics2/SA4.jpg","","","45","null","","","","","","","","","",""
"image-slider-response","98","924389","0.0-20.0-0.0-0.10","4911","pics2/SW3.jpg","","","57","null","","","","","","","","","",""
"image-slider-response","99","931593","0.0-20.0-0.0-0.11","7002","pics2/SW6.jpg","","","50","null","","","","","","","","","",""
"image-slider-response","100","954968","0.0-20.0-0.0-0.12","23171","pics2/SA2.jpg","","","48","null","","","","","","","","","",""
"image-slider-response","101","962958","0.0-20.0-0.0-0.13","7787","pics2/SW1.jpg","","","90","null","","","","","","","","","",""
"image-slider-response","102","966656","0.0-20.0-0.0-0.14","3496","pics2/SW2.jpg","","","92","null","","","","","","","","","",""
"image-slider-response","103","970134","0.0-20.0-0.0-0.15","3274","pics2/VE6.jpg","","","50","null","","","","","","","","","",""
"image-slider-response","104","976080","0.0-20.0-0.0-0.16","5743","pics2/VE3.jpg","","","61","null","","","","","","","","","",""
"image-slider-response","105","979976","0.0-20.0-0.0-0.17","3694","pics2/FR1.jpg","","","60","null","","","","","","","","","",""
"image-slider-response","106","983881","0.0-20.0-0.0-0.18","3702","pics2/SA1.jpg","","","72","null","","","","","","","","","",""
"image-slider-response","107","991148","0.0-20.0-0.0-0.19","7063","pics2/SA5.jpg","","","50","null","","","","","","","","","",""
"image-slider-response","108","999290","0.0-20.0-0.0-0.20","7939","pics2/FR4.jpg","","","63","null","","","","","","","","","",""
"image-slider-response","109","1006798","0.0-20.0-0.0-0.21","7301","pics2/FR3.jpg","","","77","null","","","","","","","","","",""
"image-slider-response","110","1009851","0.0-20.0-0.0-0.22","2849","pics2/SA3.jpg","","","74","null","","","","","","","","","",""
"image-slider-response","111","1013809","0.0-20.0-0.0-0.23","3756","pics2/SW5.jpg","","","78","null","","","","","","","","","",""
"call-function","112","1014015","0.0-21.0","","","","","","","","","","","","","","","",""
"html-button-response","113","1015423","0.0-22.0","1408","<div style='width: 900px;'> <font size = 6><b> End of the second rating</b><br><br>","0","","","","","","","","","","","","",""
"pavlovia","114","1015432","0.0-23.0","","","","","","","","","","","","","","","",""
"html-keyboard-response","115","1020434","0.0-24.0","null","<div style='width: 700px;'> <font size=6><b>SHORT BREAK</font></b><br><br><i> Please wait 5 seconds to continue</i></div> ","","","","","","null","","","","","","","",""
"pavlovia","116","1020436","0.0-25.0","","","","","","","","","","","","","","","",""
"html-button-response","117","1065180","0.0-26.0","44742","<div style='width: 700px;'>In the main part of the study, you will be choosing between 2 items. When it's time to choose,  this symbol will appear: <br><br><img src='chooseS.png'></img><br><br>Below, a cue will signify the type of choice: </div><br><div style='width: 700px;'><div style='float: left; width: 50%'><img src='heartS.png'></img><p class='small'>Heart cue means you should choose the item you <b><i>prefer</b></i> more.</p></div><div class='float: right; width:50%'><img src='sizeS.png'></img><p class='small'>Size cue means you should choose the <b><i>larger</b></i> item. </p></div></div><br><div style='width: 700px;'>When you click, a green square will appear around the item you chose.<br></div><div><br>","0","","","","","","","","","","","","",""
"image-selector-fb-tut","118","1076758","0.0-27.0","10574","0232.jpg,0123.jpg","","","","","","","false","0","","","","","",""
"image-selector-fb-tut","119","1087046","0.0-28.0","9285","0232.jpg,0123.jpg","","","","","","","true","1","","","","","",""
"html-button-response","120","1098477","0.0-29.0","11429","<div style='width: 900px;'>Your choices should be both <b><i>fast and accurate</b></i>. <br><br>You will have <i>4 seconds</i> to make each choice, which should be enough consider the options and click on one of the items.<br><br>","0","","","","","","","","","","","","",""
"html-button-response","121","1110133","0.0-30.0","11654","<div style='width: 900px;'>Additionally, on some choice trials you will see the <b><i>no-choice cue</b></i>: <br><br><img src='noS.png'></img> <br><br>This cue means you can't make any choice. You can examine the items, but  can't click on any of them. Just wait patiently for the cue to dissapear.<br><br>","0","","","","","","","","","","","","",""
"image-selector-fb-tut","122","1112138","0.0-31.0","null","0232.jpg,0123.jpg","","","","","","","false","null","","","","","",""
"html-button-response","123","1165450","0.0-32.0","53310","<div style='width: 900px;'>After each choice the items will remain on the screen and you will see this symbol: <br><br><img src='judgeS.png'></img> <br><br>This means you should rate<b> the magnitude of the difference</b> between the items using a scale: </div><br><div style='width: 900px; '><div style='float: left; width: 50%; margin-right: 2.5em; align-self:left'><img src='heartS.png'></img><p class='small' style = 'text-align: justify;'>Heart cue means you should rate <b>how much you prefer</b> one of the items over the other. Moving the scale indicator to the left means you prefer the left one; moving it to the right - right one. The more you prefer one of them, the more towards that side you should move the scale indicator. </p></div><div class='float: right; width: 50%; margin-left: 2.5em;'><img src='sizeS.png'></img><p class='small' style='text-align: justify'>Size cue means you should rate <b>how much larger</b> is one of the items over the other. Moving the scale indicator to the left means you think the left is larger; moving it to the right - right one. The greater the difference in size, the more towards that side you should move the scale indicator.</div><br>","0","","","","","","","","","","","","",""
"image-slider-2AFC-tut","124","1175593","0.0-33.0","10140","","","","82","","","","","","5567","82","","","",""
"image-slider-2AFC-tut","125","1181269","0.0-34.0","5674","","","","21","","","","","","3923","21","","","",""
"html-button-response","126","1205913","0.0-35.0","24642","<br><br><font size = 36><b> Examples </b></font><br><br><i> 1) I would like to eat some croissants a <b>lot more</b> than doritos right now:</i><br><img src='ex1.PNG', width='62%'></img><br><br><br><i> 2) I would like to eat some doritos a <b>bit more</b> than croissants right now, but just slightly:</i><br><img src='ex2.PNG' width='62%'></img>","0","","","","","","","","","","","","",""
"html-button-response","127","1210733","0.0-36.0","4819","<div style='width: 900px;'><i>Now you know everything you need to do the task!</i> <br><br>Let's start by doing a <b>short training</b>, so you'll get used to how it works. </div><br>","0","","","","","","","","","","","","",""
"image-selector-fb","128","1213739","0.0-37.0-0.0","null","pics2/FR4.jpg,pics2/VE4.jpg","","","","","","","false","null","","","noS.png","","",""
"image-slider-2AFC","129","1218742","0.0-37.0-1.0","null","","","","null","","","","","","","","sizeS.png","4001","22",""
"html-keyboard-response","130","1219445","0.0-37.0-2.0","null","","","","","","","null","","","","","","","",""
"image-selector-fb","131","1222451","0.0-37.1-0.1","null","pics2/VE4.jpg,pics2/VE6.jpg","","","","","","","false","null","","","noS.png","","",""
"image-slider-2AFC","132","1224662","0.0-37.1-1.1","2209","","","","-17","","","","","","","","sizeS.png","1055","-17",""
"html-keyboard-response","133","1225514","0.0-37.1-2.1","null","","","","","","","null","","","","","","","",""
"image-selector-fb","134","1228519","0.0-37.2-0.2","null","pics2/FR1.jpg,pics2/FR4.jpg","","","","","","","false","null","","","noS.png","","",""
"image-slider-2AFC","135","1231409","0.0-37.2-1.2","2887","","","","16","","","","","","","","heartS.png","1685","16",""
"html-keyboard-response","136","1232261","0.0-37.2-2.2","null","","","","","","","null","","","","","","","",""
"image-selector-fb","137","1235266","0.0-37.3-0.3","null","pics2/FR1.jpg,pics2/VE6.jpg","","","","","","","false","null","","","noS.png","","",""
"image-slider-2AFC","138","1237931","0.0-37.3-1.3","2662","","","","-32","","","","","","","","sizeS.png","1576","-32",""
"html-keyboard-response","139","1238633","0.0-37.3-2.3","null","","","","","","","null","","","","","","","",""
"image-selector-fb","140","1243137","0.0-37.4-0.4","null","pics2/SA1.jpg,pics2/FR4.jpg","","","","","","","false","null","","","heartS.png","","",""
"image-slider-2AFC","141","1243137","0.0-37.4-1.4","null","","","","null","","","","","","","","heartS.png","","",""
"html-keyboard-response","142","1243889","0.0-37.4-2.4","null","","","","","","","null","","","","","","","",""
"image-selector-fb","143","1248393","0.0-37.5-0.5","null","pics2/SA5.jpg,pics2/FR4.jpg","","","","","","","false","null","","","sizeS.png","","",""
"image-slider-2AFC","144","1248393","0.0-37.5-1.5","null","","","","null","","","","","","","","heartS.png","","",""
"html-keyboard-response","145","1249145","0.0-37.5-2.5","null","","","","","","","null","","","","","","","",""
"image-selector-fb","146","1253649","0.0-37.6-0.6","null","pics2/SA6.jpg,pics2/VE6.jpg","","","","","","","false","null","","","heartS.png","","",""
"image-slider-2AFC","147","1253649","0.0-37.6-1.6","null","","","","null","","","","","","","","heartS.png","","",""
"html-keyboard-response","148","1254402","0.0-37.6-2.6","null","","","","","","","null","","","","","","","",""
"image-selector-fb","149","1257708","0.0-37.7-0.7","2802","pics2/VE1.jpg,pics2/FR4.jpg","","","","","","","false","0","","","sizeS.png","","",""
"image-slider-2AFC","150","1262711","0.0-37.7-1.7","null","","","","null","","","","","","","","heartS.png","3788","37",""
"html-keyboard-response","151","1263414","0.0-37.7-2.7","null","","","","","","","null","","","","","","","",""
"image-selector-fb","152","1266419","0.0-37.8-0.8","null","pics2/VE5.jpg,pics2/FR5.jpg","","","","","","","false","null","","","noS.png","","",""
"image-slider-2AFC","153","1270120","0.0-37.8-1.8","3700","","","","37","","","","","","","","sizeS.png","2429","37",""
"html-keyboard-response","154","1270823","0.0-37.8-2.8","null","","","","","","","null","","","","","","","",""
"image-selector-fb","155","1273827","0.0-37.9-0.9","null","pics2/VE4.jpg,pics2/FR5.jpg","","","","","","","false","null","","","noS.png","","",""
"image-slider-2AFC","156","1276368","0.0-37.9-1.9","2539","","","","45","","","","","","","","heartS.png","1541","45",""
"html-keyboard-response","157","1277221","0.0-37.9-2.9","null","","","","","","","null","","","","","","","",""
"image-selector-fb","158","1281724","0.0-37.10-0.10","null","pics2/VE1.jpg,pics2/FR1.jpg","","","","","","","false","null","","","sizeS.png","","",""
"image-slider-2AFC","159","1281725","0.0-37.10-1.10","null","","","","null","","","","","","","","sizeS.png","","",""
"html-keyboard-response","160","1282577","0.0-37.10-2.10","null","","","","","","","null","","","","","","","",""
"image-selector-fb","161","1285582","0.0-37.11-0.11","null","pics2/FR1.jpg,pics2/VE5.jpg","","","","","","","false","null","","","noS.png","","",""
"image-slider-2AFC","162","1290585","0.0-37.11-1.11","null","","","","null","","","","","","","","sizeS.png","4044","-36",""
"html-keyboard-response","163","1291288","0.0-37.11-2.11","null","","","","","","","null","","","","","","","",""
"html-button-response","164","1297743","0.0-38.0","6453","<i><font size=10>Good job!</font></i> <br><br>Before we begin, you have a chance to review the rules, in case something was not clear.<br><br>","0","","","","","","","","","","","","",""
"instructions","165","1334063","0.0-39.0","36319","","","","","","","","","","","","","","","[{""page_index"":0,""viewing_time"":13627},{""page_index"":1,""viewing_time"":3083},{""page_index"":2,""viewing_time"":19608}]"
"html-button-response","166","3689663","0.0-40.0","2355598","<div style='width: 900px;'> <font size='40'>Great! Now you're ready to begin</font><br><br>The main part of the experiment will consist of <u>3 blocks</u>. Each block consists of 66 decisions and judgements. You will have time for a short break between blocks.<br><br><br><i><u>Do your best to respond within the time limit.</u></i><br><br><i> Press the button to start the experiment<br><br></i>","0","","","","","","","","","","","","",""
"image-selector-fb","167","3692670","0.0-41.0-0.0","null","pics2/SA4.jpg,pics2/SW4.jpg","","","","","","","false","null","","","noS.png","","",""
"image-slider-2AFC","168","3696648","0.0-41.0-1.0","3975","","","","45","","","","","","","","heartS.png","2994","45",""
"html-keyboard-response","169","3697452","0.0-41.0-2.0","null","","","","","","","null","","","","","","","",""
"image-selector-fb","170","3701957","0.0-41.1-0.1","null","pics2/FR3.jpg,pics2/SW6.jpg","","","","","","","false","null","","","sizeS.png","","",""
"image-slider-2AFC","171","3701958","0.0-41.1-1.1","null","","","","null","","","","","","","","heartS.png","","",""
"html-keyboard-response","172","3702810","0.0-41.1-2.1","null","","","","","","","null","","","","","","","",""
"image-selector-fb","173","3705816","0.0-41.2-0.2","null","pics2/SA4.jpg,pics2/SW6.jpg","","","","","","","false","null","","","noS.png","","",""
"image-slider-2AFC","174","3707909","0.0-41.2-1.2","2089","","","","-59","","","","","","","","heartS.png","889","-59",""
"html-keyboard-response","175","3708712","0.0-41.2-2.2","null","","","","","","","null","","","","","","","",""
"image-selector-fb","176","3711702","0.0-41.3-0.3","2485","pics2/SW3.jpg,pics2/SW2.jpg","","","","","","","false","0","","","heartS.png","","",""
"image-slider-2AFC","177","3714286","0.0-41.3-1.3","2580","","","","-46","","","","","","","","heartS.png","1732","-46",""
"html-keyboard-response","178","3715089","0.0-41.3-2.3","null","","","","","","","null","","","","","","","",""
"image-selector-fb","179","3719593","0.0-41.4-0.4","null","pics2/SW4.jpg,pics2/FR2.jpg","","","","","","","false","null","","","heartS.png","","",""
"image-slider-2AFC","180","3719594","0.0-41.4-1.4","null","","","","null","","","","","","","","sizeS.png","","",""
"html-keyboard-response","181","3720347","0.0-41.4-2.4","null","","","","","","","null","","","","","","","",""
"image-selector-fb","182","3724201","0.0-41.5-0.5","3347","pics2/SA2.jpg,pics2/SW6.jpg","","","","","","","true","1","","","sizeS.png","","",""
"image-slider-2AFC","183","3727326","0.0-41.5-1.5","3122","","","","52","","","","","","","","sizeS.png","1932","52",""
"html-keyboard-response","184","3728079","0.0-41.5-2.5","null","","","","","","","null","","","","","","","",""
"image-selector-fb","185","3732214","0.0-41.6-0.6","3629","pics2/FR2.jpg,pics2/SW4.jpg","","","","","","","false","0","","","sizeS.png","","",""
"image-slider-2AFC","186","3735530","0.0-41.6-1.6","3313","","","","42","","","","","","","","heartS.png","2504","42",""
"html-keyboard-response","187","3736233","0.0-41.6-2.6","null","","","","","","","null","","","","","","","",""
"image-selector-fb","188","3739239","0.0-41.7-0.7","null","pics2/SA4.jpg,pics2/SW1.jpg","","","","","","","false","null","","","noS.png","","",""
"image-slider-2AFC","189","3742847","0.0-41.7-1.7","3604","","","","62","","","","","","","","heartS.png","2560","62",""
"html-keyboard-response","190","3743650","0.0-41.7-2.7","null","","","","","","","null","","","","","","","",""
"image-selector-fb","191","3746840","0.0-41.8-0.8","2684","pics2/FR3.jpg,pics2/SA4.jpg","","","","","","","false","0","","","heartS.png","","",""
"image-slider-2AFC","192","3748663","0.0-41.8-1.8","1819","","","","-49","","","","","","","","sizeS.png","931","-49",""
"html-keyboard-response","193","3749418","0.0-41.8-2.8","null","","","","","","","null","","","","","","","",""
"image-selector-fb","194","3751499","0.0-41.9-0.9","1574","pics2/SA3.jpg,pics2/FR6.jpg","","","","","","","false","0","","","heartS.png","","",""
"image-slider-2AFC","195","3753596","0.0-41.9-1.9","2094","","","","-39","","","","","","","","heartS.png","1196","-39",""
"html-keyboard-response","196","3754299","0.0-41.9-2.9","null","","","","","","","null","","","","","","","",""
"image-selector-fb","197","3758002","0.0-41.10-0.10","3199","pics2/SW3.jpg,pics2/FR3.jpg","","","","","","","true","1","","","sizeS.png","","",""
"image-slider-2AFC","198","3762327","0.0-41.10-1.10","4322","","","","48","","","","","","","","heartS.png","3325","48",""
"html-keyboard-response","199","3763029","0.0-41.10-2.10","null","","","","","","","null","","","","","","","",""
"image-selector-fb","200","3766143","0.0-41.11-0.11","2611","pics2/FR2.jpg,pics2/SA2.jpg","","","","","","","false","0","","","sizeS.png","","",""
"image-slider-2AFC","201","3770253","0.0-41.11-1.11","4107","","","","-36","","","","","","","","sizeS.png","2995","-36",""
"html-keyboard-response","202","3771055","0.0-41.11-2.11","null","","","","","","","null","","","","","","","",""
"image-selector-fb","203","3774060","0.0-41.12-0.12","null","pics2/SW4.jpg,pics2/SA2.jpg","","","","","","","false","null","","","noS.png","","",""
"image-slider-2AFC","204","3777710","0.0-41.12-1.12","3648","","","","-53","","","","","","","","heartS.png","1780","-53",""
"html-keyboard-response","205","3778463","0.0-41.12-2.12","null","","","","","","","null","","","","","","","",""
"image-selector-fb","206","3780697","0.0-41.13-0.13","1729","pics2/SW2.jpg,pics2/SA4.jpg","","","","","","","false","0","","","sizeS.png","","",""
"image-slider-2AFC","207","3784561","0.0-41.13-1.13","3863","","","","59","","","","","","","","heartS.png","3054","59",""
"html-keyboard-response","208","3785314","0.0-41.13-2.13","null","","","","","","","null","","","","","","","",""
"image-selector-fb","209","3787236","0.0-41.14-0.14","1417","pics2/SW4.jpg,pics2/SA4.jpg","","","","","","","false","0","","","heartS.png","","",""
"image-slider-2AFC","210","3789706","0.0-41.14-1.14","2467","","","","-48","","","","","","","","heartS.png","1472","-48",""
"html-keyboard-response","211","3790459","0.0-41.14-2.14","null","","","","","","","null","","","","","","","",""
"image-selector-fb","212","3792360","0.0-41.15-0.15","1396","pics2/SW2.jpg,pics2/SW1.jpg","","","","","","","true","1","","","heartS.png","","",""
"image-slider-2AFC","213","3795023","0.0-41.15-1.15","2660","","","","51","","","","","","","","heartS.png","1802","51",""
"html-keyboard-response","214","3795826","0.0-41.15-2.15","null","","","","","","","null","","","","","","","",""
"image-selector-fb","215","3798831","0.0-41.16-0.16","null","pics2/FR3.jpg,pics2/SW1.jpg","","","","","","","false","null","","","noS.png","","",""
"image-slider-2AFC","216","3801965","0.0-41.16-1.16","3132","","","","55","","","","","","","","heartS.png","2008","55",""
"html-keyboard-response","217","3802668","0.0-41.16-2.16","null","","","","","","","null","","","","","","","",""
"image-selector-fb","218","3805674","0.0-41.17-0.17","null","pics2/FR6.jpg,pics2/SA3.jpg","","","","","","","false","null","","","noS.png","","",""
"image-slider-2AFC","219","3808606","0.0-41.17-1.17","2930","","","","54","","","","","","","","heartS.png","2062","54",""
"html-keyboard-response","220","3809359","0.0-41.17-2.17","null","","","","","","","null","","","","","","","",""
"image-selector-fb","221","3811954","0.0-41.18-0.18","2090","pics2/SW1.jpg,pics2/SW6.jpg","","","","","","","false","0","","","sizeS.png","","",""
"image-slider-2AFC","222","3815429","0.0-41.18-1.18","3472","","","","-45","","","","","","","","heartS.png","2008","-45",""
"html-keyboard-response","223","3816281","0.0-41.18-2.18","null","","","","","","","null","","","","","","","",""
"image-selector-fb","224","3820263","0.0-41.19-0.19","3477","pics2/SA4.jpg,pics2/SW6.jpg","","","","","","","true","1","","","sizeS.png","","",""
"image-slider-2AFC","225","3825268","0.0-41.19-1.19","null","","","","null","","","","","","","","heartS.png","2914","-69",""
"html-keyboard-response","226","3825971","0.0-41.19-2.19","null","","","","","","","null","","","","","","","",""
"image-selector-fb","227","3829255","0.0-41.20-0.20","2778","pics2/SA2.jpg,pics2/SA4.jpg","","","","","","","true","1","","","heartS.png","","",""
"image-slider-2AFC","228","3833001","0.0-41.20-1.20","3742","","","","45","","","","","","","","heartS.png","2718","45",""
"html-keyboard-response","229","3833704","0.0-41.20-2.20","null","","","","","","","null","","","","","","","",""
"image-selector-fb","230","3836033","0.0-41.21-0.21","1823","pics2/SW3.jpg,pics2/FR6.jpg","","","","","","","false","0","","","sizeS.png","","",""
"image-slider-2AFC","231","3839874","0.0-41.21-1.21","3838","","","","-38","","","","","","","","sizeS.png","2882","-38",""
"html-keyboard-response","232","3840577","0.0-41.21-2.21","null","","","","","","","null","","","","","","","",""
"image-selector-fb","233","3843653","0.0-41.22-0.22","2570","pics2/SA3.jpg,pics2/SW3.jpg","","","","","","","true","1","","","heartS.png","","",""
"image-slider-2AFC","234","3848657","0.0-41.22-1.22","null","","","","null","","","","","","","","sizeS.png","3675","52",""
"html-keyboard-response","235","3849410","0.0-41.22-2.22","null","","","","","","","null","","","","","","","",""
"image-selector-fb","236","3852416","0.0-41.23-0.23","null","pics2/SW2.jpg,pics2/SA3.jpg","","","","","","","false","null","","","noS.png","","",""
"image-slider-2AFC","237","3855390","0.0-41.23-1.23","2971","","","","56","","","","","","","","sizeS.png","2104","56",""
"html-keyboard-response","238","3856243","0.0-41.23-2.23","null","","","","","","","null","","","","","","","",""
"image-selector-fb","239","3859251","0.0-41.24-0.24","null","pics2/SW4.jpg,pics2/SW6.jpg","","","","","","","false","null","","","noS.png","","",""
"image-slider-2AFC","240","3862775","0.0-41.24-1.24","3521","","","","-36","","","","","","","","sizeS.png","2536","-36",""
"html-keyboard-response","241","3863527","0.0-41.24-2.24","null","","","","","","","null","","","","","","","",""
"image-selector-fb","242","3867795","0.0-41.25-0.25","3764","pics2/SW3.jpg,pics2/SW4.jpg","","","","","","","false","0","","","sizeS.png","","",""
"image-slider-2AFC","243","3871293","0.0-41.25-1.25","3495","","","","-45","","","","","","","","heartS.png","2461","-45",""
"html-keyboard-response","244","3872045","0.0-41.25-2.25","null","","","","","","","null","","","","","","","",""
"image-selector-fb","245","3874172","0.0-41.26-0.26","1624","pics2/SA3.jpg,pics2/SA4.jpg","","","","","","","false","0","","","heartS.png","","",""
"image-slider-2AFC","246","3876233","0.0-41.26-1.26","2058","","","","-38","","","","","","","","heartS.png","993","-38",""
"html-keyboard-response","247","3876936","0.0-41.26-2.26","null","","","","","","","null","","","","","","","",""
"image-selector-fb","248","3879940","0.0-41.27-0.27","null","pics2/SW5.jpg,pics2/SW6.jpg","","","","","","","false","null","","","noS.png","","",""
"image-slider-2AFC","249","3882984","0.0-41.27-1.27","3041","","","","-66","","","","","","","","sizeS.png","1967","-66",""
"html-keyboard-response","250","3883736","0.0-41.27-2.27","null","","","","","","","null","","","","","","","",""
"image-selector-fb","251","3886739","0.0-41.28-0.28","2498","pics2/SW4.jpg,pics2/SA3.jpg","","","","","","","false","0","","","sizeS.png","","",""
"image-slider-2AFC","252","3891742","0.0-41.28-1.28","null","","","","null","","","","","","","","heartS.png","2126","-51",""
"html-keyboard-response","253","3892594","0.0-41.28-2.28","null","","","","","","","null","","","","","","","",""
"image-selector-fb","254","3895064","0.0-41.29-0.29","1965","pics2/SW3.jpg,pics2/SW6.jpg","","","","","","","false","0","","","sizeS.png","","",""
"image-slider-2AFC","255","3897856","0.0-41.29-1.29","2789","","","","-15","","","","","","","","heartS.png","1646","-15",""
"html-keyboard-response","256","3898658","0.0-41.29-2.29","null","","","","","","","null","","","","","","","",""
"image-selector-fb","257","3901664","0.0-41.30-0.30","null","pics2/SW4.jpg,pics2/FR6.jpg","","","","","","","false","null","","","noS.png","","",""
"image-slider-2AFC","258","3905976","0.0-41.30-1.30","4309","","","","-25","","","","","","","","sizeS.png","2697","-25",""
"html-keyboard-response","259","3906779","0.0-41.30-2.30","null","","","","","","","null","","","","","","","",""
"image-selector-fb","260","3908774","0.0-41.31-0.31","1489","pics2/SW4.jpg,pics2/SW1.jpg","","","","","","","true","1","","","heartS.png","","",""
"image-slider-2AFC","261","3911075","0.0-41.31-1.31","2298","","","","62","","","","","","","","heartS.png","1313","62",""
"html-keyboard-response","262","3911929","0.0-41.31-2.31","null","","","","","","","null","","","","","","","",""
"image-selector-fb","263","3914935","0.0-41.32-0.32","null","pics2/FR3.jpg,pics2/SA2.jpg","","","","","","","false","null","","","noS.png","","",""
"image-slider-2AFC","264","3917738","0.0-41.32-1.32","2800","","","","-11","","","","","","","","sizeS.png","1854","-11",""
"html-keyboard-response","265","3918540","0.0-41.32-2.32","null","","","","","","","null","","","","","","","",""
"image-selector-fb","266","3920959","0.0-41.33-0.33","1912","pics2/SA4.jpg,pics2/SW5.jpg","","","","","","","false","0","","","heartS.png","","",""
"image-slider-2AFC","267","3924656","0.0-41.33-1.33","3694","","","","44","","","","","","","","sizeS.png","2601","44",""
"html-keyboard-response","268","3925409","0.0-41.33-2.33","null","","","","","","","null","","","","","","","",""
"image-selector-fb","269","3928415","0.0-41.34-0.34","null","pics2/SW5.jpg,pics2/SA3.jpg","","","","","","","false","null","","","noS.png","","",""
"image-slider-2AFC","270","3931085","0.0-41.34-1.34","2667","","","","49","","","","","","","","heartS.png","1846","49",""
"html-keyboard-response","271","3931788","0.0-41.34-2.34","null","","","","","","","null","","","","","","","",""
"image-selector-fb","272","3934794","0.0-41.35-0.35","null","pics2/SA2.jpg,pics2/FR2.jpg","","","","","","","false","null","","","noS.png","","",""
"image-slider-2AFC","273","3937791","0.0-41.35-1.35","2994","","","","-19","","","","","","","","heartS.png","2018","-19",""
"html-keyboard-response","274","3938644","0.0-41.35-2.35","null","","","","","","","null","","","","","","","",""
"image-selector-fb","275","3940585","0.0-41.36-0.36","1435","pics2/SW2.jpg,pics2/SA3.jpg","","","","","","","false","0","","","sizeS.png","","",""
"image-slider-2AFC","276","3943493","0.0-41.36-1.36","2905","","","","25","","","","","","","","heartS.png","1949","25",""
"html-keyboard-response","277","3944197","0.0-41.36-2.36","null","","","","","","","null","","","","","","","",""
"image-selector-fb","278","3946979","0.0-41.37-0.37","2277","pics2/SA2.jpg,pics2/SA3.jpg","","","","","","","true","1","","","sizeS.png","","",""
"image-slider-2AFC","279","3950103","0.0-41.37-1.37","3121","","","","26","","","","","","","","heartS.png","2272","26",""
"html-keyboard-response","280","3950857","0.0-41.37-2.37","null","","","","","","","null","","","","","","","",""
"image-selector-fb","281","3953863","0.0-41.38-0.38","null","pics2/SW4.jpg,pics2/SW1.jpg","","","","","","","false","null","","","noS.png","","",""
"image-slider-2AFC","282","3956421","0.0-41.38-1.38","2554","","","","8","","","","","","","","sizeS.png","1724","8",""
"html-keyboard-response","283","3957124","0.0-41.38-2.38","null","","","","","","","null","","","","","","","",""
"image-selector-fb","284","3959074","0.0-41.39-0.39","1443","pics2/FR3.jpg,pics2/FR6.jpg","","","","","","","false","0","","","sizeS.png","","",""
"image-slider-2AFC","285","3962480","0.0-41.39-1.39","3403","","","","-8","","","","","","","","sizeS.png","2661","-8",""
"html-keyboard-response","286","3963183","0.0-41.39-2.39","null","","","","","","","null","","","","","","","",""
"image-selector-fb","287","3966188","0.0-41.40-0.40","null","pics2/FR3.jpg,pics2/SW4.jpg","","","","","","","false","null","","","noS.png","","",""
"image-slider-2AFC","288","3968639","0.0-41.40-1.40","2449","","","","-10","","","","","","","","heartS.png","1659","-10",""
"html-keyboard-response","289","3969391","0.0-41.40-2.40","null","","","","","","","null","","","","","","","",""
"image-selector-fb","290","3972396","0.0-41.41-0.41","null","pics2/SW5.jpg,pics2/FR2.jpg","","","","","","","false","null","","","noS.png","","",""
"image-slider-2AFC","291","3974918","0.0-41.41-1.41","2520","","","","-4","","","","","","","","heartS.png","1397","-4",""
"html-keyboard-response","292","3975771","0.0-41.41-2.41","null","","","","","","","null","","","","","","","",""
"image-selector-fb","293","3978775","0.0-41.42-0.42","null","pics2/SW3.jpg,pics2/SA3.jpg","","","","","","","false","null","","","noS.png","","",""
"image-slider-2AFC","294","3981841","0.0-41.42-1.42","3063","","","","-5","","","","","","","","sizeS.png","2274","-5",""
"html-keyboard-response","295","3982593","0.0-41.42-2.42","null","","","","","","","null","","","","","","","",""
"image-selector-fb","296","3985317","0.0-41.43-0.43","2218","pics2/FR3.jpg,pics2/FR2.jpg","","","","","","","false","0","","","heartS.png","","",""
"image-slider-2AFC","297","3987135","0.0-41.43-1.43","1815","","","","-6","","","","","","","","heartS.png","944","-6",""
"html-keyboard-response","298","3987837","0.0-41.43-2.43","null","","","","","","","null","","","","","","","",""
"image-selector-fb","299","3989980","0.0-41.44-0.44","1639","pics2/SA3.jpg,pics2/SW4.jpg","","","","","","","false","0","","","heartS.png","","",""
"image-slider-2AFC","300","3993337","0.0-41.44-1.44","3354","","","","-7","","","","","","","","sizeS.png","2585","-7",""
"html-keyboard-response","301","3994140","0.0-41.44-2.44","null","","","","","","","null","","","","","","","",""
"image-selector-fb","302","3996627","0.0-41.45-0.45","1983","pics2/SA3.jpg,pics2/SA2.jpg","","","","","","","false","0","","","heartS.png","","",""
"image-slider-2AFC","303","3999271","0.0-41.45-1.45","2642","","","","-9","","","","","","","","heartS.png","1831","-9",""
"html-keyboard-response","304","4000124","0.0-41.45-2.45","null","","","","","","","null","","","","","","","",""
"image-selector-fb","305","4001838","0.0-41.46-0.46","1210","pics2/SA2.jpg,pics2/SW1.jpg","","","","","","","true","1","","","heartS.png","","",""
"image-slider-2AFC","306","4004036","0.0-41.46-1.46","2195","","","","40","","","","","","","","heartS.png","1218","40",""
"html-keyboard-response","307","4004838","0.0-41.46-2.46","null","","","","","","","null","","","","","","","",""
"image-selector-fb","308","4007648","0.0-41.47-0.47","2305","pics2/FR2.jpg,pics2/SW5.jpg","","","","","","","true","1","","","sizeS.png","","",""
"image-slider-2AFC","309","4010283","0.0-41.47-1.47","2632","","","","4","","","","","","","","sizeS.png","1304","4",""
"html-keyboard-response","310","4010986","0.0-41.47-2.47","null","","","","","","","null","","","","","","","",""
"image-selector-fb","311","4012807","0.0-41.48-0.48","1317","pics2/SW1.jpg,pics2/FR2.jpg","","","","","","","false","0","","","heartS.png","","",""
"image-slider-2AFC","312","4014943","0.0-41.48-1.48","2133","","","","-5","","","","","","","","heartS.png","1303","-5",""
"html-keyboard-response","313","4015695","0.0-41.48-2.48","null","","","","","","","null","","","","","","","",""
"image-selector-fb","314","4018701","0.0-41.49-0.49","null","pics2/SA4.jpg,pics2/SA3.jpg","","","","","","","false","null","","","noS.png","","",""
"image-slider-2AFC","315","4021821","0.0-41.49-1.49","3118","","","","-7","","","","","","","","sizeS.png","1781","-7",""
"html-keyboard-response","316","4022674","0.0-41.49-2.49","null","","","","","","","null","","","","","","","",""
"image-selector-fb","317","4024779","0.0-41.50-0.50","1599","pics2/SA4.jpg,pics2/SA3.jpg","","","","","","","true","1","","","sizeS.png","","",""
"image-slider-2AFC","318","4027875","0.0-41.50-1.50","3093","","","","3","","","","","","","","sizeS.png","1980","3",""
"html-keyboard-response","319","4028727","0.0-41.50-2.50","null","","","","","","","null","","","","","","","",""
"image-selector-fb","320","4031097","0.0-41.51-0.51","1864","pics2/SW1.jpg,pics2/SW4.jpg","","","","","","","false","0","","","sizeS.png","","",""
"image-slider-2AFC","321","4033424","0.0-41.51-1.51","2325","","","","-6","","","","","","","","heartS.png","1572","-6",""
"html-keyboard-response","322","4034127","0.0-41.51-2.51","null","","","","","","","null","","","","","","","",""
"image-selector-fb","323","4036661","0.0-41.52-0.52","2028","pics2/SA3.jpg,pics2/SW5.jpg","","","","","","","false","0","","","heartS.png","","",""
"image-slider-2AFC","324","4038964","0.0-41.52-1.52","2297","","","","-4","","","","","","","","heartS.png","1517","-4",""
"html-keyboard-response","325","4039767","0.0-41.52-2.52","null","","","","","","","null","","","","","","","",""
"image-selector-fb","326","4041762","0.0-41.53-0.53","1489","pics2/SW1.jpg,pics2/SA4.jpg","","","","","","","false","0","","","sizeS.png","","",""
"image-slider-2AFC","327","4044612","0.0-41.53-1.53","2846","","","","-9","","","","","","","","sizeS.png","2035","-9",""
"html-keyboard-response","328","4045464","0.0-41.53-2.53","null","","","","","","","null","","","","","","","",""
"image-selector-fb","329","4047170","0.0-41.54-0.54","1200","pics2/SW4.jpg,pics2/FR6.jpg","","","","","","","false","0","","","sizeS.png","","",""
"image-slider-2AFC","330","4049598","0.0-41.54-1.54","2425","","","","-8","","","","","","","","heartS.png","1126","-8",""
"html-keyboard-response","331","4050301","0.0-41.54-2.54","null","","","","","","","null","","","","","","","",""
"image-selector-fb","332","4051825","0.0-41.55-0.55","1019","pics2/SW5.jpg,pics2/FR3.jpg","","","","","","","false","0","","","sizeS.png","","",""
"image-slider-2AFC","333","4056032","0.0-41.55-1.55","4203","","","","-8","","","","","","","","sizeS.png","3414","-8",""
"html-keyboard-response","334","4056735","0.0-41.55-2.55","null","","","","","","","null","","","","","","","",""
"image-selector-fb","335","4059148","0.0-41.56-0.56","1906","pics2/FR2.jpg,pics2/SA4.jpg","","","","","","","false","0","","","sizeS.png","","",""
"image-slider-2AFC","336","4061274","0.0-41.56-1.56","2122","","","","-7","","","","","","","","sizeS.png","1341","-7",""
"html-keyboard-response","337","4062127","0.0-41.56-2.56","null","","","","","","","null","","","","","","","",""
"image-selector-fb","338","4065132","0.0-41.57-0.57","null","pics2/SW5.jpg,pics2/FR6.jpg","","","","","","","false","null","","","noS.png","","",""
"image-slider-2AFC","339","4067490","0.0-41.57-1.57","2355","","","","-6","","","","","","","","sizeS.png","1613","-6",""
"html-keyboard-response","340","4068292","0.0-41.57-2.57","null","","","","","","","null","","","","","","","",""
"image-selector-fb","341","4071297","0.0-41.58-0.58","null","pics2/SA4.jpg,pics2/SW3.jpg","","","","","","","false","null","","","noS.png","","",""
"image-slider-2AFC","342","4074498","0.0-41.58-1.58","3199","","","","24","","","","","","","","heartS.png","2429","24",""
"html-keyboard-response","343","4075351","0.0-41.58-2.58","null","","","","","","","null","","","","","","","",""
"image-selector-fb","344","4077543","0.0-41.59-0.59","1688","pics2/SW3.jpg,pics2/SW1.jpg","","","","","","","true","1","","","heartS.png","","",""
"image-slider-2AFC","345","4079211","0.0-41.59-1.59","1666","","","","14","","","","","","","","sizeS.png","855","14",""
"html-keyboard-response","346","4080013","0.0-41.59-2.59","null","","","","","","","null","","","","","","","",""
"image-selector-fb","347","4083018","0.0-41.60-0.60","null","pics2/SW3.jpg,pics2/FR2.jpg","","","","","","","false","null","","","noS.png","","",""
"image-slider-2AFC","348","4087127","0.0-41.60-1.60","4107","","","","-4","","","","","","","","sizeS.png","3210","-4",""
"html-keyboard-response","349","4087979","0.0-41.60-2.60","null","","","","","","","null","","","","","","","",""
"image-selector-fb","350","4090984","0.0-41.61-0.61","null","pics2/FR6.jpg,pics2/SW6.jpg","","","","","","","false","null","","","noS.png","","",""
"image-slider-2AFC","351","4093543","0.0-41.61-1.61","2556","","","","-6","","","","","","","","sizeS.png","1659","-6",""
"html-keyboard-response","352","4094296","0.0-41.61-2.61","null","","","","","","","null","","","","","","","",""
"image-selector-fb","353","4097301","0.0-41.62-0.62","null","pics2/FR6.jpg,pics2/SA2.jpg","","","","","","","false","null","","","noS.png","","",""
"image-slider-2AFC","354","4100389","0.0-41.62-1.62","3085","","","","16","","","","","","","","heartS.png","2334","16",""
"html-keyboard-response","355","4101141","0.0-41.62-2.62","null","","","","","","","null","","","","","","","",""
"image-selector-fb","356","4104146","0.0-41.63-0.63","null","pics2/FR3.jpg,pics2/FR6.jpg","","","","","","","false","null","","","noS.png","","",""
"image-slider-2AFC","357","4107101","0.0-41.63-1.63","2952","","","","4","","","","","","","","heartS.png","2111","4",""
"html-keyboard-response","358","4107803","0.0-41.63-2.63","null","","","","","","","null","","","","","","","",""
"image-selector-fb","359","4112308","0.0-41.64-0.64","null","pics2/FR2.jpg,pics2/SA3.jpg","","","","","","","false","null","","","sizeS.png","","",""
"image-slider-2AFC","360","4112308","0.0-41.64-1.64","null","","","","null","","","","","","","","sizeS.png","","",""
"html-keyboard-response","361","4113110","0.0-41.64-2.64","null","","","","","","","null","","","","","","","",""
"image-selector-fb","362","4114167","0.0-41.65-0.65","552","pics2/FR3.jpg,pics2/SA3.jpg","","","","","","","true","1","","","sizeS.png","","",""
"image-slider-2AFC","363","4117018","0.0-41.65-1.65","2850","","","","4","","","","","","","","sizeS.png","2069","4",""
"html-keyboard-response","364","4117771","0.0-41.65-2.65","null","","","","","","","null","","","","","","","",""
"pavlovia","365","4117792","0.0-42.0","","","","","","","","","","","","","","","",""
"html-keyboard-response","366","4122794","0.0-43.0","null","<div style='width: 700px;'> <font size=6><b>SHORT BREAK</font></b><br><br><i> Please wait 5 seconds to continue</i></div> ","","","","","","null","","","","","","","",""
"pavlovia","367","4122796","0.0-44.0","","","","","","","","","","","","","","","",""
"html-button-response","368","4130077","0.0-45.0","7279","<div style='width: 700px;'> <font size=6><b>BLOCK 2</font></b><br><br>Press the button whenever you feel ready to start the second block (there are 3 in total)</div>","0","","","","","","","","","","","","",""
"image-selector-fb","369","4134582","0.0-46.0-0.0","null","pics2/SA2.jpg,pics2/SW2.jpg","","","","","","","false","null","","","heartS.png","","",""
"image-slider-2AFC","370","4134583","0.0-46.0-1.0","null","","","","null","","","","","","","","sizeS.png","","",""
"html-keyboard-response","371","4135285","0.0-46.0-2.0","null","","","","","","","null","","","","","","","",""
"image-selector-fb","372","4137626","0.0-46.1-0.1","1835","pics2/SW1.jpg,pics2/SA3.jpg","","","","","","","false","0","","","sizeS.png","","",""
"image-slider-2AFC","373","4139675","0.0-46.1-1.1","2046","","","","-18","","","","","","","","sizeS.png","1304","-18",""
"html-keyboard-response","374","4140477","0.0-46.1-2.1","null","","","","","","","null","","","","","","","",""
"image-selector-fb","375","4143484","0.0-46.2-0.2","null","pics2/SW3.jpg,pics2/SW6.jpg","","","","","","","false","null","","","noS.png","","",""
"image-slider-2AFC","376","4146269","0.0-46.2-1.2","2782","","","","-11","","","","","","","","heartS.png","2070","-11",""
"html-keyboard-response","377","4147072","0.0-46.2-2.2","null","","","","","","","null","","","","","","","",""
"image-selector-fb","378","4149220","0.0-46.3-0.3","1643","pics2/SA2.jpg,pics2/SW3.jpg","","","","","","","true","1","","","heartS.png","","",""
"image-slider-2AFC","379","4153264","0.0-46.3-1.3","4041","","","","5","","","","","","","","sizeS.png","3115","5",""
"html-keyboard-response","380","4154117","0.0-46.3-2.3","null","","","","","","","null","","","","","","","",""
"image-selector-fb","381","4156382","0.0-46.4-0.4","1760","pics2/SW2.jpg,pics2/SW5.jpg","","","","","","","false","0","","","sizeS.png","","",""
"image-slider-2AFC","382","4160147","0.0-46.4-1.4","3762","","","","-3","","","","","","","","heartS.png","2991","-3",""
"html-keyboard-response","383","4160900","0.0-46.4-2.4","null","","","","","","","null","","","","","","","",""
"image-selector-fb","384","4162506","0.0-46.5-0.5","1099","pics2/FR3.jpg,pics2/SW1.jpg","","","","","","","true","1","","","heartS.png","","",""
"image-slider-2AFC","385","4165042","0.0-46.5-1.5","2534","","","","12","","","","","","","","sizeS.png","1821","12",""
"html-keyboard-response","386","4165795","0.0-46.5-2.5","null","","","","","","","null","","","","","","","",""
"image-selector-fb","387","4168802","0.0-46.6-0.6","null","pics2/SW3.jpg,pics2/FR6.jpg","","","","","","","false","null","","","noS.png","","",""
"image-slider-2AFC","388","4171763","0.0-46.6-1.6","2958","","","","-21","","","","","","","","heartS.png","2168","-21",""
"html-keyboard-response","389","4172517","0.0-46.6-2.6","null","","","","","","","null","","","","","","","",""
"image-selector-fb","390","4174305","0.0-46.7-0.7","1281","pics2/SW3.jpg,pics2/SA3.jpg","","","","","","","true","1","","","sizeS.png","","",""
"image-slider-2AFC","391","4179309","0.0-46.7-1.7","null","","","","null","","","","","","","","sizeS.png","2133,3940,4937","8,-7,-14",""
"html-keyboard-response","392","4180063","0.0-46.7-2.7","null","","","","","","","null","","","","","","","",""
"image-selector-fb","393","4183069","0.0-46.8-0.8","null","pics2/SW3.jpg,pics2/SW2.jpg","","","","","","","false","null","","","noS.png","","",""
"image-slider-2AFC","394","4185820","0.0-46.8-1.8","2746","","","","10","","","","","","","","sizeS.png","2055","10",""
"html-keyboard-response","395","4186523","0.0-46.8-2.8","null","","","","","","","null","","","","","","","",""
"image-selector-fb","396","4189529","0.0-46.9-0.9","null","pics2/SA2.jpg,pics2/SA3.jpg","","","","","","","false","null","","","noS.png","","",""
"image-slider-2AFC","397","4192409","0.0-46.9-1.9","2878","","","","7","","","","","","","","heartS.png","1814","7",""
"html-keyboard-response","398","4193111","0.0-46.9-2.9","null","","","","","","","null","","","","","","","",""
"image-selector-fb","399","4196116","0.0-46.10-0.10","null","pics2/SA3.jpg,pics2/SW1.jpg","","","","","","","false","null","","","noS.png","","",""
"image-slider-2AFC","400","4199060","0.0-46.10-1.10","2941","","","","7","","","","","","","","heartS.png","1545","7",""
"html-keyboard-response","401","4199762","0.0-46.10-2.10","null","","","","","","","null","","","","","","","",""
"image-selector-fb","402","4202766","0.0-46.11-0.11","null","pics2/SW5.jpg,pics2/SA2.jpg","","","","","","","false","null","","","noS.png","","",""
"image-slider-2AFC","403","4206075","0.0-46.11-1.11","3308","","","","5","","","","","","","","heartS.png","2352","5",""
"html-keyboard-response","404","4206778","0.0-46.11-2.11","null","","","","","","","null","","","","","","","",""
"image-selector-fb","405","4209580","0.0-46.12-0.12","2298","pics2/SW5.jpg,pics2/SW3.jpg","","","","","","","true","1","","","sizeS.png","","",""
"image-slider-2AFC","406","4212332","0.0-46.12-1.12","2751","","","","8","","","","","","","","sizeS.png","1941","8",""
"html-keyboard-response","407","4213035","0.0-46.12-2.12","null","","","","","","","null","","","","","","","",""
"image-selector-fb","408","4215651","0.0-46.13-0.13","2112","pics2/SW5.jpg,pics2/SA2.jpg","","","","","","","false","0","","","sizeS.png","","",""
"image-slider-2AFC","409","4218240","0.0-46.13-1.13","2586","","","","3","","","","","","","","heartS.png","1639","3",""
"html-keyboard-response","410","4219043","0.0-46.13-2.13","null","","","","","","","null","","","","","","","",""
"image-selector-fb","411","4222048","0.0-46.14-0.14","null","pics2/FR3.jpg,pics2/SW5.jpg","","","","","","","false","null","","","noS.png","","",""
"image-slider-2AFC","412","4224736","0.0-46.14-1.14","2686","","","","-12","","","","","","","","sizeS.png","1718","-12",""
"html-keyboard-response","413","4225589","0.0-46.14-2.14","null","","","","","","","null","","","","","","","",""
"image-selector-fb","414","4228595","0.0-46.15-0.15","null","pics2/FR3.jpg,pics2/FR2.jpg","","","","","","","false","null","","","noS.png","","",""
"image-slider-2AFC","415","4233598","0.0-46.15-1.15","null","","","","null","","","","","","","","sizeS.png","4063","-6",""
"html-keyboard-response","416","4234401","0.0-46.15-2.15","null","","","","","","","null","","","","","","","",""
"image-selector-fb","417","4237407","0.0-46.16-0.16","null","pics2/SW2.jpg,pics2/SW6.jpg","","","","","","","false","null","","","noS.png","","",""
"image-slider-2AFC","418","4240300","0.0-46.16-1.16","2891","","","","-7","","","","","","","","heartS.png","1571","-7",""
"html-keyboard-response","419","4241153","0.0-46.16-2.16","null","","","","","","","null","","","","","","","",""
"image-selector-fb","420","4243168","0.0-46.17-0.17","1510","pics2/SW6.jpg,pics2/SW4.jpg","","","","","","","true","1","","","heartS.png","","",""
"image-slider-2AFC","421","4245402","0.0-46.17-1.17","2232","","","","10","","","","","","","","sizeS.png","1509","10",""
"html-keyboard-response","422","4246105","0.0-46.17-2.17","null","","","","","","","null","","","","","","","",""
"image-selector-fb","423","4248121","0.0-46.18-0.18","1511","pics2/SW5.jpg,pics2/FR2.jpg","","","","","","","true","1","","","heartS.png","","",""
"image-slider-2AFC","424","4250150","0.0-46.18-1.18","2027","","","","4","","","","","","","","sizeS.png","1274","4",""
"html-keyboard-response","425","4250853","0.0-46.18-2.18","null","","","","","","","null","","","","","","","",""
"image-selector-fb","426","4252714","0.0-46.19-0.19","1356","pics2/SW5.jpg,pics2/SW4.jpg","","","","","","","true","1","","","sizeS.png","","",""
"image-slider-2AFC","427","4255838","0.0-46.19-1.19","3121","","","","-4","","","","","","","","sizeS.png","2390","-4",""
"html-keyboard-response","428","4256690","0.0-46.19-2.19","null","","","","","","","null","","","","","","","",""
"image-selector-fb","429","4259300","0.0-46.20-0.20","2104","pics2/FR6.jpg,pics2/SW6.jpg","","","","","","","false","0","","","sizeS.png","","",""
"image-slider-2AFC","430","4261671","0.0-46.20-1.20","2368","","","","-9","","","","","","","","heartS.png","1597","-9",""
"html-keyboard-response","431","4262374","0.0-46.20-2.20","null","","","","","","","null","","","","","","","",""
"image-selector-fb","432","4264329","0.0-46.21-0.21","1450","pics2/SA2.jpg,pics2/SW5.jpg","","","","","","","true","1","","","heartS.png","","",""
"image-slider-2AFC","433","4268609","0.0-46.21-1.21","4277","","","","-9","","","","","","","","heartS.png","2978,3046","-9,-9",""
"html-keyboard-response","434","4269463","0.0-46.21-2.21","null","","","","","","","null","","","","","","","",""
"image-selector-fb","435","4271471","0.0-46.22-0.22","1502","pics2/SW2.jpg,pics2/FR3.jpg","","","","","","","false","0","","","sizeS.png","","",""
"image-slider-2AFC","436","4274695","0.0-46.22-1.22","3221","","","","-13","","","","","","","","sizeS.png","2011","-13",""
"html-keyboard-response","437","4275548","0.0-46.22-2.22","null","","","","","","","null","","","","","","","",""
"image-selector-fb","438","4277823","0.0-46.23-0.23","1769","pics2/SW6.jpg,pics2/SA3.jpg","","","","","","","true","1","","","sizeS.png","","",""
"image-slider-2AFC","439","4280479","0.0-46.23-1.23","2652","","","","15","","","","","","","","heartS.png","1735","15",""
"html-keyboard-response","440","4281232","0.0-46.23-2.23","null","","","","","","","null","","","","","","","",""
"image-selector-fb","441","4283564","0.0-46.24-0.24","1826","pics2/FR3.jpg,pics2/SW4.jpg","","","","","","","true","1","","","heartS.png","","",""
"image-slider-2AFC","442","4285788","0.0-46.24-1.24","2221","","","","13","","","","","","","","heartS.png","1177","13",""
"html-keyboard-response","443","4286491","0.0-46.24-2.24","null","","","","","","","null","","","","","","","",""
"image-selector-fb","444","4288972","0.0-46.25-0.25","1975","pics2/SA4.jpg,pics2/FR2.jpg","","","","","","","true","1","","","heartS.png","","",""
"image-slider-2AFC","445","4292351","0.0-46.25-1.25","3374","","","","-19","","","","","","","","heartS.png","2398","-19",""
"html-keyboard-response","446","4293154","0.0-46.25-2.25","null","","","","","","","null","","","","","","","",""
"image-selector-fb","447","4294791","0.0-46.26-0.26","1131","pics2/SW1.jpg,pics2/FR6.jpg","","","","","","","false","0","","","sizeS.png","","",""
"image-slider-2AFC","448","4296936","0.0-46.26-1.26","2141","","","","-8","","","","","","","","sizeS.png","1195","-8",""
"html-keyboard-response","449","4297738","0.0-46.26-2.26","null","","","","","","","null","","","","","","","",""
"image-selector-fb","450","4300742","0.0-46.27-0.27","null","pics2/SA2.jpg,pics2/SW1.jpg","","","","","","","false","null","","","noS.png","","",""
"image-slider-2AFC","451","4303987","0.0-46.27-1.27","3243","","","","15","","","","","","","","sizeS.png","2217","15",""
"html-keyboard-response","452","4304839","0.0-46.27-2.27","null","","","","","","","null","","","","","","","",""
"image-selector-fb","453","4307844","0.0-46.28-0.28","null","pics2/SW4.jpg,pics2/SW3.jpg","","","","","","","false","null","","","noS.png","","",""
"image-slider-2AFC","454","4311941","0.0-46.28-1.28","4094","","","","6","","","","","","","","sizeS.png","3305","6",""
"html-keyboard-response","455","4312793","0.0-46.28-2.28","null","","","","","","","null","","","","","","","",""
"image-selector-fb","456","4314709","0.0-46.29-0.29","1412","pics2/FR6.jpg,pics2/SW5.jpg","","","","","","","true","1","","","heartS.png","","",""
"image-slider-2AFC","457","4319712","0.0-46.29-1.29","null","","","","null","","","","","","","","sizeS.png","","",""
"html-keyboard-response","458","4320514","0.0-46.29-2.29","null","","","","","","","null","","","","","","","",""
"image-selector-fb","459","4322674","0.0-46.30-0.30","1656","pics2/SA2.jpg,pics2/FR3.jpg","","","","","","","true","1","","","sizeS.png","","",""
"image-slider-2AFC","460","4324634","0.0-46.30-1.30","1957","","","","5","","","","","","","","sizeS.png","1205","5",""
"html-keyboard-response","461","4325336","0.0-46.30-2.30","null","","","","","","","null","","","","","","","",""
"image-selector-fb","462","4327311","0.0-46.31-0.31","1472","pics2/SW4.jpg,pics2/SW3.jpg","","","","","","","true","1","","","heartS.png","","",""
"image-slider-2AFC","463","4329940","0.0-46.31-1.31","2626","","","","4","","","","","","","","sizeS.png","1845","4",""
"html-keyboard-response","464","4330693","0.0-46.31-2.31","null","","","","","","","null","","","","","","","",""
"image-selector-fb","465","4333698","0.0-46.32-0.32","null","pics2/SA4.jpg,pics2/SW2.jpg","","","","","","","false","null","","","noS.png","","",""
"image-slider-2AFC","466","4337679","0.0-46.32-1.32","3979","","","","12","","","","","","","","sizeS.png","970,2161,3041","-12,-6,12",""
"html-keyboard-response","467","4338432","0.0-46.32-2.32","null","","","","","","","null","","","","","","","",""
"image-selector-fb","468","4341437","0.0-46.33-0.33","null","pics2/SW3.jpg,pics2/SW1.jpg","","","","","","","false","null","","","noS.png","","",""
"image-slider-2AFC","469","4343952","0.0-46.33-1.33","2513","","","","9","","","","","","","","heartS.png","1622","9",""
"html-keyboard-response","470","4344655","0.0-46.33-2.33","null","","","","","","","null","","","","","","","",""
"image-selector-fb","471","4346614","0.0-46.34-0.34","1453","pics2/SA4.jpg,pics2/SW4.jpg","","","","","","","true","1","","","sizeS.png","","",""
"image-slider-2AFC","472","4349512","0.0-46.34-1.34","2896","","","","10","","","","","","","","heartS.png","1645","10",""
"html-keyboard-response","473","4350265","0.0-46.34-2.34","null","","","","","","","null","","","","","","","",""
"image-selector-fb","474","4352040","0.0-46.35-0.35","1269","pics2/SW2.jpg,pics2/FR2.jpg","","","","","","","false","0","","","heartS.png","","",""
"image-slider-2AFC","475","4354420","0.0-46.35-1.35","2379","","","","-18","","","","","","","","sizeS.png","1353","-18",""
"html-keyboard-response","476","4355223","0.0-46.35-2.35","null","","","","","","","null","","","","","","","",""
"image-selector-fb","477","4357165","0.0-46.36-0.36","1436","pics2/SW5.jpg,pics2/SW6.jpg","","","","","","","false","0","","","sizeS.png","","",""
"image-slider-2AFC","478","4360885","0.0-46.36-1.36","3717","","","","-14","","","","","","","","sizeS.png","2859","-14",""
"html-keyboard-response","479","4361638","0.0-46.36-2.36","null","","","","","","","null","","","","","","","",""
"image-selector-fb","480","4364768","0.0-46.37-0.37","2626","pics2/SW5.jpg,pics2/SA3.jpg","","","","","","","false","0","","","sizeS.png","","",""
"image-slider-2AFC","481","4367980","0.0-46.37-1.37","3209","","","","13","","","","","","","","heartS.png","1805","13",""
"html-keyboard-response","482","4368783","0.0-46.37-2.37","null","","","","","","","null","","","","","","","",""
"image-selector-fb","483","4370768","0.0-46.38-0.38","1481","pics2/SW2.jpg,pics2/FR6.jpg","","","","","","","false","0","","","sizeS.png","","",""
"image-slider-2AFC","484","4374234","0.0-46.38-1.38","3463","","","","3","","","","","","","","heartS.png","2642","3",""
"html-keyboard-response","485","4374988","0.0-46.38-2.38","null","","","","","","","null","","","","","","","",""
"image-selector-fb","486","4377588","0.0-46.39-0.39","2095","pics2/SA2.jpg,pics2/FR6.jpg","","","","","","","true","1","","","sizeS.png","","",""
"image-slider-2AFC","487","4380212","0.0-46.39-1.39","2621","","","","-8","","","","","","","","heartS.png","1822","-8",""
"html-keyboard-response","488","4381065","0.0-46.39-2.39","null","","","","","","","null","","","","","","","",""
"image-selector-fb","489","4383942","0.0-46.40-0.40","2372","pics2/SW6.jpg,pics2/FR2.jpg","","","","","","","false","0","","","heartS.png","","",""
"image-slider-2AFC","490","4387417","0.0-46.40-1.40","3472","","","","10","","","","","","","","sizeS.png","2662","10",""
"html-keyboard-response","491","4388170","0.0-46.40-2.40","null","","","","","","","null","","","","","","","",""
"image-selector-fb","492","4390017","0.0-46.41-0.41","1340","pics2/FR3.jpg,pics2/SA2.jpg","","","","","","","false","0","","","heartS.png","","",""
"image-slider-2AFC","493","4393022","0.0-46.41-1.41","3002","","","","-15","","","","","","","","sizeS.png","2162","-15",""
"html-keyboard-response","494","4393725","0.0-46.41-2.41","null","","","","","","","null","","","","","","","",""
"image-selector-fb","495","4395859","0.0-46.42-0.42","1628","pics2/FR6.jpg,pics2/SA2.jpg","","","","","","","false","0","","","heartS.png","","",""
"image-slider-2AFC","496","4398288","0.0-46.42-1.42","2425","","","","-6","","","","","","","","sizeS.png","1566","-6",""
"html-keyboard-response","497","4399041","0.0-46.42-2.42","null","","","","","","","null","","","","","","","",""
"image-selector-fb","498","4400637","0.0-46.43-0.43","1090","pics2/SW1.jpg,pics2/SA2.jpg","","","","","","","false","0","","","sizeS.png","","",""
"image-slider-2AFC","499","4402646","0.0-46.43-1.43","2005","","","","-7","","","","","","","","sizeS.png","1215","-7",""
"html-keyboard-response","500","4403399","0.0-46.43-2.43","null","","","","","","","null","","","","","","","",""
"image-selector-fb","501","4406405","0.0-46.44-0.44","null","pics2/SW2.jpg,pics2/FR2.jpg","","","","","","","false","null","","","noS.png","","",""
"image-slider-2AFC","502","4408480","0.0-46.44-1.44","2072","","","","-20","","","","","","","","sizeS.png","1239","-20",""
"html-keyboard-response","503","4409332","0.0-46.44-2.44","null","","","","","","","null","","","","","","","",""
"image-selector-fb","504","4412337","0.0-46.45-0.45","null","pics2/FR3.jpg,pics2/SW6.jpg","","","","","","","false","null","","","noS.png","","",""
"image-slider-2AFC","505","4415517","0.0-46.45-1.45","3179","","","","-13","","","","","","","","heartS.png","2427","-13",""
"html-keyboard-response","506","4416269","0.0-46.45-2.45","null","","","","","","","null","","","","","","","",""
"image-selector-fb","507","4417791","0.0-46.46-0.46","1017","pics2/SW1.jpg,pics2/FR3.jpg","","","","","","","false","0","","","sizeS.png","","",""
"image-slider-2AFC","508","4420106","0.0-46.46-1.46","2314","","","","-23","","","","","","","","heartS.png","1581","-23",""
"html-keyboard-response","509","4420959","0.0-46.46-2.46","null","","","","","","","null","","","","","","","",""
"image-selector-fb","510","4422582","0.0-46.47-0.47","1118","pics2/SW5.jpg,pics2/SA4.jpg","","","","","","","false","0","","","sizeS.png","","",""
"image-slider-2AFC","511","4425481","0.0-46.47-1.47","2896","","","","7","","","","","","","","heartS.png","2027","7",""
"html-keyboard-response","512","4426284","0.0-46.47-2.47","null","","","","","","","null","","","","","","","",""
"image-selector-fb","513","4429288","0.0-46.48-0.48","null","pics2/FR3.jpg,pics2/SW2.jpg","","","","","","","false","null","","","noS.png","","",""
"image-slider-2AFC","514","4432388","0.0-46.48-1.48","3098","","","","7","","","","","","","","sizeS.png","1651","7",""
"html-keyboard-response","515","4433191","0.0-46.48-2.48","null","","","","","","","null","","","","","","","",""
"image-selector-fb","516","4434967","0.0-46.49-0.49","1271","pics2/SW4.jpg,pics2/SA2.jpg","","","","","","","false","0","","","sizeS.png","","",""
"image-slider-2AFC","517","4438865","0.0-46.49-1.49","3896","","","","-8","","","","","","","","heartS.png","2968","-8",""
"html-keyboard-response","518","4439617","0.0-46.49-2.49","null","","","","","","","null","","","","","","","",""
"image-selector-fb","519","4442622","0.0-46.50-0.50","null","pics2/SW5.jpg,pics2/SW1.jpg","","","","","","","false","null","","","noS.png","","",""
"image-slider-2AFC","520","4445354","0.0-46.50-1.50","2729","","","","9","","","","","","","","sizeS.png","2035","9",""
"html-keyboard-response","521","4446157","0.0-46.50-2.50","null","","","","","","","null","","","","","","","",""
"image-selector-fb","522","4449162","0.0-46.51-0.51","null","pics2/SW6.jpg,pics2/SW1.jpg","","","","","","","false","null","","","noS.png","","",""
"image-slider-2AFC","523","4451226","0.0-46.51-1.51","2061","","","","4","","","","","","","","heartS.png","1211","4",""
"html-keyboard-response","524","4451978","0.0-46.51-2.51","null","","","","","","","null","","","","","","","",""
"image-selector-fb","525","4454256","0.0-46.52-0.52","1772","pics2/SW2.jpg,pics2/SW3.jpg","","","","","","","true","1","","","sizeS.png","","",""
"image-slider-2AFC","526","4457529","0.0-46.52-1.52","3271","","","","-15","","","","","","","","sizeS.png","2195","-15",""
"html-keyboard-response","527","4458283","0.0-46.52-2.52","null","","","","","","","null","","","","","","","",""
"image-selector-fb","528","4461067","0.0-46.53-0.53","2279","pics2/SW6.jpg,pics2/SW3.jpg","","","","","","","true","1","","","heartS.png","","",""
"image-slider-2AFC","529","4463401","0.0-46.53-1.53","2331","","","","18","","","","","","","","sizeS.png","1413","18",""
"html-keyboard-response","530","4464253","0.0-46.53-2.53","null","","","","","","","null","","","","","","","",""
"image-selector-fb","531","4466506","0.0-46.54-0.54","1747","pics2/FR6.jpg,pics2/SA4.jpg","","","","","","","false","0","","","heartS.png","","",""
"image-slider-2AFC","532","4469473","0.0-46.54-1.54","2964","","","","-9","","","","","","","","sizeS.png","2066","-9",""
"html-keyboard-response","533","4470325","0.0-46.54-2.54","null","","","","","","","null","","","","","","","",""
"image-selector-fb","534","4472179","0.0-46.55-0.55","1348","pics2/SW6.jpg,pics2/SW1.jpg","","","","","","","true","1","","","heartS.png","","",""
"image-slider-2AFC","535","4474285","0.0-46.55-1.55","2104","","","","16","","","","","","","","heartS.png","1383","16",""
"html-keyboard-response","536","4474988","0.0-46.55-2.55","null","","","","","","","null","","","","","","","",""
"image-selector-fb","537","4476839","0.0-46.56-0.56","1346","pics2/SA2.jpg,pics2/SW4.jpg","","","","","","","true","1","","","heartS.png","","",""
"image-slider-2AFC","538","4478663","0.0-46.56-1.56","1821","","","","4","","","","","","","","sizeS.png","1060","4",""
"html-keyboard-response","539","4479415","0.0-46.56-2.56","null","","","","","","","null","","","","","","","",""
"image-selector-fb","540","4482421","0.0-46.57-0.57","null","pics2/SW4.jpg,pics2/SW2.jpg","","","","","","","false","null","","","noS.png","","",""
"image-slider-2AFC","541","4484451","0.0-46.57-1.57","2026","","","","-11","","","","","","","","heartS.png","1207","-11",""
"html-keyboard-response","542","4485303","0.0-46.57-2.57","null","","","","","","","null","","","","","","","",""
"image-selector-fb","543","4488310","0.0-46.58-0.58","null","pics2/FR6.jpg,pics2/FR2.jpg","","","","","","","false","null","","","noS.png","","",""
"image-slider-2AFC","544","4491397","0.0-46.58-1.58","3084","","","","-9","","","","","","","","heartS.png","1776","-9",""
"html-keyboard-response","545","4492200","0.0-46.58-2.58","null","","","","","","","null","","","","","","","",""
"image-selector-fb","546","4494707","0.0-46.59-0.59","2000","pics2/SA4.jpg,pics2/FR6.jpg","","","","","","","false","0","","","sizeS.png","","",""
"image-slider-2AFC","547","4497667","0.0-46.59-1.59","2957","","","","9","","","","","","","","sizeS.png","2263","9",""
"html-keyboard-response","548","4498469","0.0-46.59-2.59","null","","","","","","","null","","","","","","","",""
"image-selector-fb","549","4501024","0.0-46.60-0.60","2050","pics2/SA3.jpg,pics2/FR3.jpg","","","","","","","false","0","","","heartS.png","","",""
"image-slider-2AFC","550","4503430","0.0-46.60-1.60","2403","","","","-7","","","","","","","","sizeS.png","1525","-7",""
"html-keyboard-response","551","4504233","0.0-46.60-2.60","null","","","","","","","null","","","","","","","",""
"image-selector-fb","552","4506146","0.0-46.61-0.61","1406","pics2/FR6.jpg,pics2/SA3.jpg","","","","","","","true","1","","","sizeS.png","","",""
"image-slider-2AFC","553","4508212","0.0-46.61-1.61","2063","","","","12","","","","","","","","sizeS.png","1243","12",""
"html-keyboard-response","554","4508966","0.0-46.61-2.61","null","","","","","","","null","","","","","","","",""
"image-selector-fb","555","4511974","0.0-46.62-0.62","null","pics2/SW4.jpg,pics2/SA3.jpg","","","","","","","false","null","","","noS.png","","",""
"image-slider-2AFC","556","4514299","0.0-46.62-1.62","2322","","","","8","","","","","","","","heartS.png","1326","8",""
"html-keyboard-response","557","4515102","0.0-46.62-2.62","null","","","","","","","null","","","","","","","",""
"image-selector-fb","558","4516817","0.0-46.63-0.63","1210","pics2/SW5.jpg,pics2/SW2.jpg","","","","","","","true","1","","","heartS.png","","",""
"image-slider-2AFC","559","4518564","0.0-46.63-1.63","1745","","","","8","","","","","","","","sizeS.png","973","8",""
"html-keyboard-response","560","4519266","0.0-46.63-2.63","null","","","","","","","null","","","","","","","",""
"image-selector-fb","561","4521927","0.0-46.64-0.64","2157","pics2/SW2.jpg,pics2/SW4.jpg","","","","","","","false","0","","","sizeS.png","","",""
"image-slider-2AFC","562","4525374","0.0-46.64-1.64","3444","","","","-12","","","","","","","","sizeS.png","2497","-12",""
"html-keyboard-response","563","4526226","0.0-46.64-2.64","null","","","","","","","null","","","","","","","",""
"image-selector-fb","564","4528859","0.0-46.65-0.65","2128","pics2/FR2.jpg,pics2/FR3.jpg","","","","","","","true","1","","","sizeS.png","","",""
"image-slider-2AFC","565","4531716","0.0-46.65-1.65","2854","","","","5","","","","","","","","heartS.png","2052","5",""
"html-keyboard-response","566","4532568","0.0-46.65-2.65","null","","","","","","","null","","","","","","","",""
"pavlovia","567","4532595","0.0-47.0","","","","","","","","","","","","","","","",""
"html-keyboard-response","568","4537597","0.0-48.0","null","<div style='width: 700px;'> <font size=6><b>SHORT BREAK</font></b><br><br><i> Please wait 5 seconds to continue</i></div> ","","","","","","null","","","","","","","",""
"pavlovia","569","4537599","0.0-49.0","","","","","","","","","","","","","","","",""
"html-button-response","570","4542299","0.0-50.0","4698","<div style='width: 700px;'> <font size=6><b>BLOCK 3</font></b><br><br>Press the button whenever you feel ready to start the third and final block</div>","0","","","","","","","","","","","","",""
"image-selector-fb","571","4544403","0.0-51.0-0.0","1599","pics2/SW4.jpg,pics2/SW5.jpg","","","","","","","false","0","","","heartS.png","","",""
"image-slider-2AFC","572","4547057","0.0-51.0-1.0","2651","","","","-10","","","","","","","","heartS.png","1197","-10",""
"html-keyboard-response","573","4547909","0.0-51.0-2.0","null","","","","","","","null","","","","","","","",""
"image-selector-fb","574","4549600","0.0-51.1-0.1","1186","pics2/SW1.jpg,pics2/SW3.jpg","","","","","","","false","0","","","sizeS.png","","",""
"image-slider-2AFC","575","4551668","0.0-51.1-1.1","2065","","","","-9","","","","","","","","heartS.png","1344","-9",""
"html-keyboard-response","576","4552421","0.0-51.1-2.1","null","","","","","","","null","","","","","","","",""
"image-selector-fb","577","4555426","0.0-51.2-0.2","null","pics2/SA4.jpg,pics2/SW5.jpg","","","","","","","false","null","","","noS.png","","",""
"image-slider-2AFC","578","4557292","0.0-51.2-1.2","1863","","","","-9","","","","","","","","sizeS.png","1181","-9",""
"html-keyboard-response","579","4558144","0.0-51.2-2.2","null","","","","","","","null","","","","","","","",""
"image-selector-fb","580","4560471","0.0-51.3-0.3","1822","pics2/FR6.jpg,pics2/FR2.jpg","","","","","","","false","0","","","heartS.png","","",""
"image-slider-2AFC","581","4563281","0.0-51.3-1.3","2808","","","","-6","","","","","","","","heartS.png","2057","-6",""
"html-keyboard-response","582","4563985","0.0-51.3-2.3","null","","","","","","","null","","","","","","","",""
"image-selector-fb","583","4567457","0.0-51.4-0.4","2967","pics2/SA2.jpg,pics2/FR2.jpg","","","","","","","false","0","","","heartS.png","","",""
"image-slider-2AFC","584","4569984","0.0-51.4-1.4","2524","","","","-10","","","","","","","","sizeS.png","1519","-10",""
"html-keyboard-response","585","4570786","0.0-51.4-2.4","null","","","","","","","null","","","","","","","",""
"image-selector-fb","586","4573791","0.0-51.5-0.5","null","pics2/SA3.jpg,pics2/FR2.jpg","","","","","","","false","null","","","noS.png","","",""
"image-slider-2AFC","587","4576893","0.0-51.5-1.5","3098","","","","-8","","","","","","","","sizeS.png","2288","-8",""
"html-keyboard-response","588","4577746","0.0-51.5-2.5","null","","","","","","","null","","","","","","","",""
"image-selector-fb","589","4580752","0.0-51.6-0.6","null","pics2/SW3.jpg,pics2/SA2.jpg","","","","","","","false","null","","","noS.png","","",""
"image-slider-2AFC","590","4583101","0.0-51.6-1.6","2345","","","","-7","","","","","","","","sizeS.png","1515","-7",""
"html-keyboard-response","591","4583804","0.0-51.6-2.6","null","","","","","","","null","","","","","","","",""
"image-selector-fb","592","4587114","0.0-51.7-0.7","2805","pics2/FR2.jpg,pics2/SW6.jpg","","","","","","","false","0","","","sizeS.png","","",""
"image-slider-2AFC","593","4589729","0.0-51.7-1.7","2612","","","","-13","","","","","","","","heartS.png","1694","-13",""
"html-keyboard-response","594","4590532","0.0-51.7-2.7","null","","","","","","","null","","","","","","","",""
"image-selector-fb","595","4592330","0.0-51.8-0.8","1292","pics2/SA3.jpg,pics2/SW2.jpg","","","","","","","false","0","","","heartS.png","","",""
"image-slider-2AFC","596","4595642","0.0-51.8-1.8","3309","","","","5","","","","","","","","sizeS.png","2409","5",""
"html-keyboard-response","597","4596345","0.0-51.8-2.8","null","","","","","","","null","","","","","","","",""
"image-selector-fb","598","4598855","0.0-51.9-0.9","2004","pics2/SW5.jpg,pics2/FR6.jpg","","","","","","","false","0","","","sizeS.png","","",""
"image-slider-2AFC","599","4601430","0.0-51.9-1.9","2572","","","","-5","","","","","","","","heartS.png","1822","-5",""
"html-keyboard-response","600","4602133","0.0-51.9-2.9","null","","","","","","","null","","","","","","","",""
"image-selector-fb","601","4605140","0.0-51.10-0.10","null","pics2/SW4.jpg,pics2/SW5.jpg","","","","","","","false","null","","","noS.png","","",""
"image-slider-2AFC","602","4610144","0.0-51.10-1.10","null","","","","null","","","","","","","","heartS.png","4746","-5",""
"html-keyboard-response","603","4610897","0.0-51.10-2.10","null","","","","","","","null","","","","","","","",""
"image-selector-fb","604","4613903","0.0-51.11-0.11","null","pics2/SA4.jpg,pics2/FR2.jpg","","","","","","","false","null","","","noS.png","","",""
"image-slider-2AFC","605","4615839","0.0-51.11-1.11","1933","","","","-5","","","","","","","","sizeS.png","1103","-5",""
"html-keyboard-response","606","4616642","0.0-51.11-2.11","null","","","","","","","null","","","","","","","",""
"image-selector-fb","607","4619871","0.0-51.12-0.12","2723","pics2/FR2.jpg,pics2/FR6.jpg","","","","","","","false","0","","","sizeS.png","","",""
"image-slider-2AFC","608","4621998","0.0-51.12-1.12","2123","","","","-6","","","","","","","","sizeS.png","1243","-6",""
"html-keyboard-response","609","4622701","0.0-51.12-2.12","null","","","","","","","null","","","","","","","",""
"image-selector-fb","610","4625707","0.0-51.13-0.13","null","pics2/SW2.jpg,pics2/SW1.jpg","","","","","","","false","null","","","noS.png","","",""
"image-slider-2AFC","611","4628266","0.0-51.13-1.13","2556","","","","3","","","","","","","","heartS.png","1814","3",""
"html-keyboard-response","612","4629019","0.0-51.13-2.13","null","","","","","","","null","","","","","","","",""
"image-selector-fb","613","4632542","0.0-51.14-0.14","3018","pics2/SW6.jpg,pics2/SA4.jpg","","","","","","","true","1","","","heartS.png","","",""
"image-slider-2AFC","614","4634453","0.0-51.14-1.14","1910","","","","4","","","","","","","","heartS.png","1139","4",""
"html-keyboard-response","615","4635155","0.0-51.14-2.14","null","","","","","","","null","","","","","","","",""
"image-selector-fb","616","4636844","0.0-51.15-0.15","1185","pics2/SW1.jpg,pics2/SW5.jpg","","","","","","","false","0","","","sizeS.png","","",""
"image-slider-2AFC","617","4638934","0.0-51.15-1.15","2088","","","","-5","","","","","","","","sizeS.png","1298","-5",""
"html-keyboard-response","618","4639686","0.0-51.15-2.15","null","","","","","","","null","","","","","","","",""
"image-selector-fb","619","4641272","0.0-51.16-0.16","1082","pics2/SW6.jpg,pics2/FR3.jpg","","","","","","","true","1","","","heartS.png","","",""
"image-slider-2AFC","620","4643272","0.0-51.16-1.16","1997","","","","8","","","","","","","","sizeS.png","1002","8",""
"html-keyboard-response","621","4643974","0.0-51.16-2.16","null","","","","","","","null","","","","","","","",""
"image-selector-fb","622","4646978","0.0-51.17-0.17","null","pics2/SA4.jpg,pics2/SA2.jpg","","","","","","","false","null","","","noS.png","","",""
"image-slider-2AFC","623","4650239","0.0-51.17-1.17","3259","","","","2","","","","","","","","sizeS.png","2282","2",""
"html-keyboard-response","624","4650942","0.0-51.17-2.17","null","","","","","","","null","","","","","","","",""
"image-selector-fb","625","4653947","0.0-51.18-0.18","null","pics2/SW1.jpg,pics2/FR2.jpg","","","","","","","false","null","","","noS.png","","",""
"image-slider-2AFC","626","4657032","0.0-51.18-1.18","3082","","","","-3","","","","","","","","heartS.png","2302","-3",""
"html-keyboard-response","627","4657735","0.0-51.18-2.18","null","","","","","","","null","","","","","","","",""
"image-selector-fb","628","4659576","0.0-51.19-0.19","1337","pics2/FR6.jpg,pics2/SW4.jpg","","","","","","","true","1","","","heartS.png","","",""
"image-slider-2AFC","629","4661780","0.0-51.19-1.19","2201","","","","8","","","","","","","","heartS.png","1217","8",""
"html-keyboard-response","630","4662582","0.0-51.19-2.19","null","","","","","","","null","","","","","","","",""
"image-selector-fb","631","4664210","0.0-51.20-0.20","1123","pics2/FR6.jpg,pics2/SW3.jpg","","","","","","","true","1","","","heartS.png","","",""
"image-slider-2AFC","632","4665987","0.0-51.20-1.20","1774","","","","16","","","","","","","","heartS.png","867","16",""
"html-keyboard-response","633","4666839","0.0-51.20-2.20","null","","","","","","","null","","","","","","","",""
"image-selector-fb","634","4669845","0.0-51.21-0.21","null","pics2/SW6.jpg,pics2/SA3.jpg","","","","","","","false","null","","","noS.png","","",""
"image-slider-2AFC","635","4672406","0.0-51.21-1.21","2558","","","","6","","","","","","","","sizeS.png","1807","6",""
"html-keyboard-response","636","4673158","0.0-51.21-2.21","null","","","","","","","null","","","","","","","",""
"image-selector-fb","637","4676163","0.0-51.22-0.22","null","pics2/SW2.jpg,pics2/FR6.jpg","","","","","","","false","null","","","noS.png","","",""
"image-slider-2AFC","638","4678365","0.0-51.22-1.22","2199","","","","-9","","","","","","","","heartS.png","1291","-9",""
"html-keyboard-response","639","4679218","0.0-51.22-2.22","null","","","","","","","null","","","","","","","",""
"image-selector-fb","640","4682224","0.0-51.23-0.23","null","pics2/FR3.jpg,pics2/SA3.jpg","","","","","","","false","null","","","noS.png","","",""
"image-slider-2AFC","641","4686356","0.0-51.23-1.23","4129","","","","-6","","","","","","","","sizeS.png","3387","-6",""
"html-keyboard-response","642","4687158","0.0-51.23-2.23","null","","","","","","","null","","","","","","","",""
"image-selector-fb","643","4688968","0.0-51.24-0.24","1305","pics2/SW1.jpg,pics2/SW2.jpg","","","","","","","false","0","","","sizeS.png","","",""
"image-slider-2AFC","644","4691661","0.0-51.24-1.24","2690","","","","-3","","","","","","","","heartS.png","1782","-3",""
"html-keyboard-response","645","4692414","0.0-51.24-2.24","null","","","","","","","null","","","","","","","",""
"image-selector-fb","646","4695547","0.0-51.25-0.25","2627","pics2/FR6.jpg,pics2/FR3.jpg","","","","","","","true","1","","","heartS.png","","",""
"image-slider-2AFC","647","4698318","0.0-51.25-1.25","2768","","","","7","","","","","","","","heartS.png","1987","7",""
"html-keyboard-response","648","4699021","0.0-51.25-2.25","null","","","","","","","null","","","","","","","",""
"image-selector-fb","649","4700793","0.0-51.26-0.26","1265","pics2/SW3.jpg,pics2/FR2.jpg","","","","","","","false","0","","","heartS.png","","",""
"image-slider-2AFC","650","4702792","0.0-51.26-1.26","1996","","","","-11","","","","","","","","heartS.png","1166","-11",""
"html-keyboard-response","651","4703595","0.0-51.26-2.26","null","","","","","","","null","","","","","","","",""
"image-selector-fb","652","4706924","0.0-51.27-0.27","2823","pics2/SA4.jpg,pics2/SA2.jpg","","","","","","","true","1","","","sizeS.png","","",""
"image-slider-2AFC","653","4709499","0.0-51.27-1.27","2572","","","","2","","","","","","","","sizeS.png","1713","2",""
"html-keyboard-response","654","4710352","0.0-51.27-2.27","null","","","","","","","null","","","","","","","",""
"image-selector-fb","655","4712595","0.0-51.28-0.28","1739","pics2/FR3.jpg,pics2/SW2.jpg","","","","","","","false","0","","","heartS.png","","",""
"image-slider-2AFC","656","4714939","0.0-51.28-1.28","2340","","","","3","","","","","","","","heartS.png","1558","3",""
"html-keyboard-response","657","4715692","0.0-51.28-2.28","null","","","","","","","null","","","","","","","",""
"image-selector-fb","658","4718698","0.0-51.29-0.29","null","pics2/FR3.jpg,pics2/SA4.jpg","","","","","","","false","null","","","noS.png","","",""
"image-slider-2AFC","659","4722113","0.0-51.29-1.29","3412","","","","-3","","","","","","","","sizeS.png","2661","-3",""
"html-keyboard-response","660","4722966","0.0-51.29-2.29","null","","","","","","","null","","","","","","","",""
"image-selector-fb","661","4725366","0.0-51.30-0.30","1893","pics2/SW6.jpg,pics2/FR6.jpg","","","","","","","true","1","","","heartS.png","","",""
"image-slider-2AFC","662","4730323","0.0-51.30-1.30","4954","","","","-5","","","","","","","","heartS.png","3520","-5",""
"html-keyboard-response","663","4731126","0.0-51.30-2.30","null","","","","","","","null","","","","","","","",""
"image-selector-fb","664","4734133","0.0-51.31-0.31","null","pics2/SW2.jpg,pics2/SA2.jpg","","","","","","","false","null","","","noS.png","","",""
"image-slider-2AFC","665","4737057","0.0-51.31-1.31","2921","","","","-3","","","","","","","","sizeS.png","2150","-3",""
"html-keyboard-response","666","4737910","0.0-51.31-2.31","null","","","","","","","null","","","","","","","",""
"image-selector-fb","667","4740608","0.0-51.32-0.32","2190","pics2/SA3.jpg,pics2/SW1.jpg","","","","","","","true","1","","","heartS.png","","",""
"image-slider-2AFC","668","4745611","0.0-51.32-1.32","null","","","","null","","","","","","","","heartS.png","4434","7",""
"html-keyboard-response","669","4746313","0.0-51.32-2.32","null","","","","","","","null","","","","","","","",""
"image-selector-fb","670","4748485","0.0-51.33-0.33","1667","pics2/SW3.jpg,pics2/SW5.jpg","","","","","","","false","0","","","heartS.png","","",""
"image-slider-2AFC","671","4750728","0.0-51.33-1.33","2242","","","","-4","","","","","","","","sizeS.png","1431","-4",""
"html-keyboard-response","672","4751580","0.0-51.33-2.33","null","","","","","","","null","","","","","","","",""
"image-selector-fb","673","4755072","0.0-51.34-0.34","2987","pics2/FR2.jpg,pics2/SW3.jpg","","","","","","","true","1","","","sizeS.png","","",""
"image-slider-2AFC","674","4757461","0.0-51.34-1.34","2387","","","","4","","","","","","","","heartS.png","1597","4",""
"html-keyboard-response","675","4758263","0.0-51.34-2.34","null","","","","","","","null","","","","","","","",""
"image-selector-fb","676","4760431","0.0-51.35-0.35","1664","pics2/FR6.jpg,pics2/SW2.jpg","","","","","","","true","1","","","heartS.png","","",""
"image-slider-2AFC","677","4763162","0.0-51.35-1.35","2729","","","","9","","","","","","","","heartS.png","1519","9",""
"html-keyboard-response","678","4763964","0.0-51.35-2.35","null","","","","","","","null","","","","","","","",""
"image-selector-fb","679","4765509","0.0-51.36-0.36","1040","pics2/FR6.jpg,pics2/SW1.jpg","","","","","","","true","1","","","heartS.png","","",""
"image-slider-2AFC","680","4767693","0.0-51.36-1.36","2182","","","","14","","","","","","","","sizeS.png","1265","14",""
"html-keyboard-response","681","4768495","0.0-51.36-2.36","null","","","","","","","null","","","","","","","",""
"image-selector-fb","682","4771500","0.0-51.37-0.37","null","pics2/SA4.jpg,pics2/FR6.jpg","","","","","","","false","null","","","noS.png","","",""
"image-slider-2AFC","683","4773910","0.0-51.37-1.37","2407","","","","-12","","","","","","","","heartS.png","1471","-12",""
"html-keyboard-response","684","4774762","0.0-51.37-2.37","null","","","","","","","null","","","","","","","",""
"image-selector-fb","685","4777768","0.0-51.38-0.38","null","pics2/FR3.jpg,pics2/SW3.jpg","","","","","","","false","null","","","noS.png","","",""
"image-slider-2AFC","686","4780456","0.0-51.38-1.38","2686","","","","19","","","","","","","","heartS.png","1943","19",""
"html-keyboard-response","687","4781309","0.0-51.38-2.38","null","","","","","","","null","","","","","","","",""
"image-selector-fb","688","4783190","0.0-51.39-0.39","1376","pics2/SW3.jpg,pics2/SA4.jpg","","","","","","","false","0","","","sizeS.png","","",""
"image-slider-2AFC","689","4786830","0.0-51.39-1.39","3637","","","","-7","","","","","","","","sizeS.png","2827","-7",""
"html-keyboard-response","690","4787683","0.0-51.39-2.39","null","","","","","","","null","","","","","","","",""
"image-selector-fb","691","4790688","0.0-51.40-0.40","null","pics2/SW5.jpg,pics2/SW2.jpg","","","","","","","false","null","","","noS.png","","",""
"image-slider-2AFC","692","4792900","0.0-51.40-1.40","2209","","","","8","","","","","","","","heartS.png","1331","8",""
"html-keyboard-response","693","4793752","0.0-51.40-2.40","null","","","","","","","null","","","","","","","",""
"image-selector-fb","694","4796829","0.0-51.41-0.41","2573","pics2/FR3.jpg,pics2/SW5.jpg","","","","","","","false","0","","","heartS.png","","",""
"image-slider-2AFC","695","4800333","0.0-51.41-1.41","3500","","","","-6","","","","","","","","sizeS.png","2631","-6",""
"html-keyboard-response","696","4801136","0.0-51.41-2.41","null","","","","","","","null","","","","","","","",""
"image-selector-fb","697","4803844","0.0-51.42-0.42","2202","pics2/SW4.jpg,pics2/SW2.jpg","","","","","","","true","1","","","heartS.png","","",""
"image-slider-2AFC","698","4807737","0.0-51.42-1.42","3889","","","","7","","","","","","","","sizeS.png","1722,2942","-6,7",""
"html-keyboard-response","699","4808490","0.0-51.42-2.42","null","","","","","","","null","","","","","","","",""
"image-selector-fb","700","4810294","0.0-51.43-0.43","1299","pics2/SA4.jpg,pics2/SW1.jpg","","","","","","","true","1","","","heartS.png","","",""
"image-slider-2AFC","701","4813146","0.0-51.43-1.43","2849","","","","9","","","","","","","","sizeS.png","1392","9",""
"html-keyboard-response","702","4813849","0.0-51.43-2.43","null","","","","","","","null","","","","","","","",""
"image-selector-fb","703","4816855","0.0-51.44-0.44","null","pics2/SW4.jpg,pics2/FR2.jpg","","","","","","","false","null","","","noS.png","","",""
"image-slider-2AFC","704","4820237","0.0-51.44-1.44","3378","","","","-6","","","","","","","","heartS.png","2599","-6",""
"html-keyboard-response","705","4821040","0.0-51.44-2.44","null","","","","","","","null","","","","","","","",""
"image-selector-fb","706","4823123","0.0-51.45-0.45","1578","pics2/SW4.jpg,pics2/FR3.jpg","","","","","","","false","0","","","sizeS.png","","",""
"image-slider-2AFC","707","4825658","0.0-51.45-1.45","2531","","","","-14","","","","","","","","sizeS.png","1614","-14",""
"html-keyboard-response","708","4826411","0.0-51.45-2.45","null","","","","","","","null","","","","","","","",""
