"trial_type","trial_index","time_elapsed","internal_node_id","rt","stimulus","button_pressed","success","response","cat","value","key_press","correct","image_click","first_click_rt","first_click_val","symbol","all_click_rt","all_click_val","view_history"
"pavlovia","0","7","0.0-0.0","","","","","","","","","","","","","","","",""
"html-button-response","1","3051","0.0-1.0","3038","<div style='width: 700px; font-size: 150%'><font size='40'>  Welcome to our study!</font><br><br><br> <small> Our experiment is about <i>decision making</i>. You will choose and rate different food items, such as these: <br><br> <div><img src='food_combo2.png', height = '400px'></img></div>","0","","","","","","","","","","","","",""
"html-button-response","2","18667","0.0-2.0","15613","<div style='width: 700px; font-size: 150%'><br><br><br><small> <u><i>This is a multi-part study.</i></u><br><br> In the first part you will rate 24 food items twice.<br><br><div><img src=""rat1.png"" style=""width: 25%""></img></div><br>In the second part (longest) you will make repeated choices and judgements concerning the food items.<br><br><div><img src=""mainx.png"" style=""width: 50%""></img></div><br>In the third and final part, you will rate the items again and answer few short questionnaires.<br><br><div><img src=""rat2.png"" style=""width: 50%""></img></div><br><br>","0","","","","","","","","","","","","",""
"fullscreen","3","25042","0.0-3.0","","","","true","","","","","","","","","","","",""
"html-button-response","4","98010","0.0-4.0","72965","<div style='width: 900px; font-size: 150%;' <font size='20%'> In the first part of the task you will use the mouse to rate food items on <i>2 scales</i> </font></div><br><br><div style='width: 900px'><div style='float: left; width: 50%; margin-right:2.5em'><img src='heartS.png'></img><p class='small' style='text-align: justify'>When you see the heart cue you will rate food items in terms of how much like them/would like to eat them <i>right now</i>. You will rate them on a continuous scale from left (strong dislike) to right (strong liking). Before submitting your rating, try imagining how the item tastes and how much you desire it.<br><br></p></div><div ><img src='sizeS.png'></img><p class='small' style='text-align: justify'>When you see the size cue, you will rate the same food items in terms of their size. The scale goes from left (tiny) to right (very large). You should assess picture size <i><u>relative</i></u> to the white background. <b>Remember:</b> rate the size of the picture, <u>not</u> the size of the item in real life. </p></div><div style='width: 900px'><br><br><b><i>Notice:</b> by starting the rating you agree that your sumbission might be rejected at an early stage and the experiment might end, if your size ratings are not at least modestly related to objective sizes, or if you repeat the same value ratings too many times. If you don't agree, please exit by closing the browser window. </i><br><br><br>","0","","","","","","","","","","","","",""
"html-button-response","5","112980","0.0-5.0","14968","<div><img src='heartS.png'></img></div><br><div style='text-align: justify; width: 700px'>Using the mouse, rate the <b><i>likeness</b></i> of the food items (how much you like them/would like to eat them <i>right now</i>). Far right-end of the scale indicates an item you <i>like a lot</i>. Far left-end indicates an item you <i>dislike a lot</i>. Think about each answer.   <ul><li>Try <b><i>not</b></i> to give identical rating to different items.</li><li>Use the whole scale, and <b><i>not</b></i> just the extremes</ul></div><br>","0","","","","","","","","","","","","",""
"image-slider-response","6","116993","0.0-6.0-0.0-0.0","4007","pics2/SW6.jpg","","","73","SW","","","","","","","","","",""
"image-slider-response","7","120901","0.0-6.0-0.0-0.1","3705","pics2/VE6.jpg","","","28","VE","","","","","","","","","",""
"image-slider-response","8","126554","0.0-6.0-0.0-0.2","5447","pics2/SA1.jpg","","","98","SA","","","","","","","","","",""
"image-slider-response","9","130254","0.0-6.0-0.0-0.3","3494","pics2/SW4.jpg","","","100","SW","","","","","","","","","",""
"image-slider-response","10","134107","0.0-6.0-0.0-0.4","3646","pics2/VE1.jpg","","","63","VE","","","","","","","","","",""
"image-slider-response","11","137302","0.0-6.0-0.0-0.5","2989","pics2/SA6.jpg","","","75","SA","","","","","","","","","",""
"image-slider-response","12","140367","0.0-6.0-0.0-0.6","2859","pics2/VE3.jpg","","","62","VE","","","","","","","","","",""
"image-slider-response","13","143467","0.0-6.0-0.0-0.7","2893","pics2/SA2.jpg","","","84","SA","","","","","","","","","",""
"image-slider-response","14","148352","0.0-6.0-0.0-0.8","4682","pics2/VE4.jpg","","","59","VE","","","","","","","","","",""
"image-slider-response","15","151708","0.0-6.0-0.0-0.9","3149","pics2/FR2.jpg","","","90","FR","","","","","","","","","",""
"image-slider-response","16","155482","0.0-6.0-0.0-0.10","3566","pics2/SW3.jpg","","","92","SW","","","","","","","","","",""
"image-slider-response","17","158546","0.0-6.0-0.0-0.11","2856","pics2/FR6.jpg","","","89","FR","","","","","","","","","",""
"image-slider-response","18","162038","0.0-6.0-0.0-0.12","3289","pics2/SW5.jpg","","","100","SW","","","","","","","","","",""
"image-slider-response","19","164602","0.0-6.0-0.0-0.13","2358","pics2/FR5.jpg","","","59","FR","","","","","","","","","",""
"image-slider-response","20","168166","0.0-6.0-0.0-0.14","3357","pics2/SW2.jpg","","","35","SW","","","","","","","","","",""
"image-slider-response","21","172154","0.0-6.0-0.0-0.15","3784","pics2/SA5.jpg","","","56","SA","","","","","","","","","",""
"image-slider-response","22","174867","0.0-6.0-0.0-0.16","2505","pics2/FR4.jpg","","","42","FR","","","","","","","","","",""
"image-slider-response","23","179056","0.0-6.0-0.0-0.17","3982","pics2/VE2.jpg","","","80","VE","","","","","","","","","",""
"image-slider-response","24","181556","0.0-6.0-0.0-0.18","2293","pics2/SA3.jpg","","","72","SA","","","","","","","","","",""
"image-slider-response","25","184408","0.0-6.0-0.0-0.19","2649","pics2/FR3.jpg","","","99","FR","","","","","","","","","",""
"image-slider-response","26","188621","0.0-6.0-0.0-0.20","4008","pics2/VE5.jpg","","","21","VE","","","","","","","","","",""
"image-slider-response","27","191637","0.0-6.0-0.0-0.21","2813","pics2/SW1.jpg","","","63","SW","","","","","","","","","",""
"image-slider-response","28","194251","0.0-6.0-0.0-0.22","2406","pics2/SA4.jpg","","","96","SA","","","","","","","","","",""
"image-slider-response","29","198743","0.0-6.0-0.0-0.23","4287","pics2/FR1.jpg","","","80","FR","","","","","","","","","",""
"html-button-response","30","200764","0.0-7.0","1815","<div style='width: 900px;'> <font size = 6><b> End of the first rating</b><br><br>","0","","","","","","","","","","","","",""
"html-button-response","31","236544","0.0-9.0","35778","<div ><img src='sizeS.png'></img></div><br><div style='text-align: justify; width: 700px'> Using the mouse, rate the <b><i>size</b></i> of the food items <b><i> relative to the white background.</b></i> Right-end of the scale indicates a <i>very large item</i>, which covers a large portion of the white rectangle. Left-end indicates a <i>very tiny</i> item which covers a tiny portion of the white rectangle.<br><br><i><u>Remember</i></u>: everything that is not the white background also contributes to item size (e.g. packing, plates, ect.)<br><br> Please keep in mind that if the accuracy of ratings do not allign well with actual sizes, the experiment will end.  As a result it will be consider incomplete and therefore no payment would be made. Good luck!<br><br></div><br>","0","","","","","","","","","","","","",""
"html-button-response","32","244074","0.0-10.0","7528","<div ><img src='sizeS.png'></img></div><br><b><font size=6>Examples of items that you might encounter</b><br><div style='width: 750px;'><div style='width: 33.33%; float:left'><br><br><br><i>Large Item</i><br><br><img src='large.jpg', width=200px></img></div><div style='float:right'><br><br><br><i>Small Item</i><br><br><img src='small.jpg', width=200px></img></div><div ><br><br><br><i>Medium Item</i><br><br><img src='med.jpg', width=200px></img></div></div><br><br>","0","","","","","","","","","","","","",""
"image-slider-response","33","249190","0.0-11.0-0.0-0.0","5114","pics2/SA3.jpg","","","55","null","","","","","","","","","",""
"image-slider-response","34","254906","0.0-11.0-0.0-0.1","5509","pics2/FR5.jpg","","","53","null","","","","","","","","","",""
"image-slider-response","35","257936","0.0-11.0-0.0-0.2","2821","pics2/SA2.jpg","","","56","null","","","","","","","","","",""
"image-slider-response","36","263721","0.0-11.0-0.0-0.3","5581","pics2/SA4.jpg","","","38","null","","","","","","","","","",""
"image-slider-response","37","267861","0.0-11.0-0.0-0.4","3935","pics2/SW2.jpg","","","84","null","","","","","","","","","",""
"image-slider-response","38","272801","0.0-11.0-0.0-0.5","4735","pics2/FR6.jpg","","","71","null","","","","","","","","","",""
"image-slider-response","39","276197","0.0-11.0-0.0-0.6","3189","pics2/SW6.jpg","","","64","null","","","","","","","","","",""
"image-slider-response","40","280042","0.0-11.0-0.0-0.7","3636","pics2/SA6.jpg","","","79","null","","","","","","","","","",""
"image-slider-response","41","283003","0.0-11.0-0.0-0.8","2754","pics2/VE4.jpg","","","79","null","","","","","","","","","",""
"image-slider-response","42","285927","0.0-11.0-0.0-0.9","2718","pics2/SA1.jpg","","","91","null","","","","","","","","","",""
"image-slider-response","43","288843","0.0-11.0-0.0-0.10","2711","pics2/SW1.jpg","","","89","null","","","","","","","","","",""
"image-slider-response","44","293072","0.0-11.0-0.0-0.11","4027","pics2/VE5.jpg","","","74","null","","","","","","","","","",""
"image-slider-response","45","297845","0.0-11.0-0.0-0.12","4569","pics2/SA5.jpg","","","83","null","","","","","","","","","",""
"image-slider-response","46","301737","0.0-11.0-0.0-0.13","3688","pics2/FR2.jpg","","","86","null","","","","","","","","","",""
"image-slider-response","47","306173","0.0-11.0-0.0-0.14","4229","pics2/SW4.jpg","","","79","null","","","","","","","","","",""
"image-slider-response","48","309795","0.0-11.0-0.0-0.15","3409","pics2/FR3.jpg","","","83","null","","","","","","","","","",""
"image-slider-response","49","312275","0.0-11.0-0.0-0.16","2272","pics2/VE2.jpg","","","84","null","","","","","","","","","",""
"image-slider-response","50","315760","0.0-11.0-0.0-0.17","3281","pics2/FR4.jpg","","","91","null","","","","","","","","","",""
"image-slider-response","51","318356","0.0-11.0-0.0-0.18","2392","pics2/SW5.jpg","","","82","null","","","","","","","","","",""
"image-slider-response","52","320885","0.0-11.0-0.0-0.19","2324","pics2/FR1.jpg","","","83","null","","","","","","","","","",""
"image-slider-response","53","325669","0.0-11.0-0.0-0.20","4581","pics2/SW3.jpg","","","88","null","","","","","","","","","",""
"image-slider-response","54","329914","0.0-11.0-0.0-0.21","4040","pics2/VE6.jpg","","","59","null","","","","","","","","","",""
"image-slider-response","55","332811","0.0-11.0-0.0-0.22","2693","pics2/VE1.jpg","","","89","null","","","","","","","","","",""
"image-slider-response","56","335606","0.0-11.0-0.0-0.23","2588","pics2/VE3.jpg","","","87","null","","","","","","","","","",""
"html-button-response","57","337152","0.0-12.0","1342","<div style='width: 900px;'> <font size = 6><b> End of the second rating</b><br><br>","0","","","","","","","","","","","","",""
"html-button-response","58","340859","0.0-13.0","3706","<div style='width: 900px;'>Now please rate the items for the second time. <br><br>This is not a memory test - you don't need to be consistent with your previous ratings. Just as before, try to make accurate judgements.<br><br>","0","","","","","","","","","","","","",""
"html-button-response","59","343960","0.0-14.0","3099","<div><img src='heartS.png'></img></div><br><div style='text-align: justify; width: 700px'>Using the mouse, rate the <b><i>likeness</b></i> of the food items (how much you like them/would like to eat them <i>right now</i>). Far right-end of the scale indicates an item you <i>like a lot</i>. Far left-end indicates an item you <i>dislike a lot</i>. Think about each answer.   <ul><li>Try <b><i>not</b></i> to give identical rating to different items.</li><li>Use the whole scale, and <b><i>not</b></i> just the extremes</ul></div><br>","0","","","","","","","","","","","","",""
"image-slider-response","60","346861","0.0-15.0-0.0-0.0","2899","pics2/SA5.jpg","","","63","SA","","","","","","","","","",""
"image-slider-response","61","351042","0.0-15.0-0.0-0.1","3977","pics2/FR3.jpg","","","94","FR","","","","","","","","","",""
"image-slider-response","62","353491","0.0-15.0-0.0-0.2","2242","pics2/VE6.jpg","","","38","VE","","","","","","","","","",""
"image-slider-response","63","357800","0.0-15.0-0.0-0.3","4104","pics2/VE2.jpg","","","67","VE","","","","","","","","","",""
"image-slider-response","64","360372","0.0-15.0-0.0-0.4","2365","pics2/SA4.jpg","","","98","SA","","","","","","","","","",""
"image-slider-response","65","363736","0.0-15.0-0.0-0.5","3163","pics2/VE4.jpg","","","41","VE","","","","","","","","","",""
"image-slider-response","66","366882","0.0-15.0-0.0-0.6","2943","pics2/VE1.jpg","","","71","VE","","","","","","","","","",""
"image-slider-response","67","369054","0.0-15.0-0.0-0.7","1965","pics2/SA2.jpg","","","83","SA","","","","","","","","","",""
"image-slider-response","68","372283","0.0-15.0-0.0-0.8","3027","pics2/SA1.jpg","","","96","SA","","","","","","","","","",""
"image-slider-response","69","375308","0.0-15.0-0.0-0.9","2816","pics2/SW4.jpg","","","99","SW","","","","","","","","","",""
"image-slider-response","70","377536","0.0-15.0-0.0-0.10","2024","pics2/FR1.jpg","","","79","FR","","","","","","","","","",""
"image-slider-response","71","381765","0.0-15.0-0.0-0.11","4024","pics2/VE5.jpg","","","29","VE","","","","","","","","","",""
"image-slider-response","72","384455","0.0-15.0-0.0-0.12","2484","pics2/SW3.jpg","","","87","SW","","","","","","","","","",""
"image-slider-response","73","387187","0.0-15.0-0.0-0.13","2525","pics2/FR6.jpg","","","67","FR","","","","","","","","","",""
"image-slider-response","74","389481","0.0-15.0-0.0-0.14","2088","pics2/SW1.jpg","","","73","SW","","","","","","","","","",""
"image-slider-response","75","392088","0.0-15.0-0.0-0.15","2401","pics2/SW2.jpg","","","38","SW","","","","","","","","","",""
"image-slider-response","76","395901","0.0-15.0-0.0-0.16","3608","pics2/SA6.jpg","","","91","SA","","","","","","","","","",""
"image-slider-response","77","398425","0.0-15.0-0.0-0.17","2316","pics2/SA3.jpg","","","70","SA","","","","","","","","","",""
"image-slider-response","78","401410","0.0-15.0-0.0-0.18","2780","pics2/FR5.jpg","","","61","FR","","","","","","","","","",""
"image-slider-response","79","403887","0.0-15.0-0.0-0.19","2274","pics2/SW6.jpg","","","83","SW","","","","","","","","","",""
"image-slider-response","80","406931","0.0-15.0-0.0-0.20","2836","pics2/SW5.jpg","","","90","SW","","","","","","","","","",""
"image-slider-response","81","409588","0.0-15.0-0.0-0.21","2450","pics2/FR2.jpg","","","68","FR","","","","","","","","","",""
"image-slider-response","82","412408","0.0-15.0-0.0-0.22","2613","pics2/FR4.jpg","","","42","FR","","","","","","","","","",""
"image-slider-response","83","414981","0.0-15.0-0.0-0.23","2365","pics2/VE3.jpg","","","72","VE","","","","","","","","","",""
"call-function","84","415193","0.0-16.0","","","","","","","","","","","","","","","",""
"call-function","85","415196","0.0-17.0","","","","","","","","","","","","","","","",""
"html-button-response","86","416517","0.0-18.0","1320","<div style='width: 900px;'> <font size = 6><b> End of the first rating</b><br><br>","0","","","","","","","","","","","","",""
"html-button-response","87","417878","0.0-19.0","1358","<div ><img src='sizeS.png'></img></div><br><div style='text-align: justify; width: 700px'> Using the mouse, rate the <b><i>size</b></i> of the food items <b><i> relative to the white background.</b></i> Right-end of the scale indicates a <i>very large item</i>, which covers a large portion of the white rectangle. Left-end indicates a <i>very tiny</i> item which covers a tiny portion of the white rectangle.<br><br><i><u>Remember</i></u>: everything that is not the white background also contributes to item size (e.g. packing, plates, ect.)<br><br> Please keep in mind that if the accuracy of ratings do not allign well with actual sizes, the experiment will end.  As a result it will be consider incomplete and therefore no payment would be made. Good luck!<br><br></div><br>","0","","","","","","","","","","","","",""
"image-slider-response","88","421034","0.0-20.0-0.0-0.0","3152","pics2/SW1.jpg","","","87","null","","","","","","","","","",""
"image-slider-response","89","424463","0.0-20.0-0.0-0.1","3224","pics2/VE4.jpg","","","85","null","","","","","","","","","",""
"image-slider-response","90","427372","0.0-20.0-0.0-0.2","2705","pics2/VE6.jpg","","","69","null","","","","","","","","","",""
"image-slider-response","91","429740","0.0-20.0-0.0-0.3","2166","pics2/FR5.jpg","","","83","null","","","","","","","","","",""
"image-slider-response","92","432816","0.0-20.0-0.0-0.4","2869","pics2/SW3.jpg","","","87","null","","","","","","","","","",""
"image-slider-response","93","435341","0.0-20.0-0.0-0.5","2316","pics2/FR2.jpg","","","82","null","","","","","","","","","",""
"image-slider-response","94","438062","0.0-20.0-0.0-0.6","2514","pics2/VE1.jpg","","","84","null","","","","","","","","","",""
"image-slider-response","95","441075","0.0-20.0-0.0-0.7","2807","pics2/SA5.jpg","","","82","null","","","","","","","","","",""
"image-slider-response","96","443826","0.0-20.0-0.0-0.8","2544","pics2/VE3.jpg","","","85","null","","","","","","","","","",""
"image-slider-response","97","447630","0.0-20.0-0.0-0.9","3597","pics2/SA3.jpg","","","78","null","","","","","","","","","",""
"image-slider-response","98","449842","0.0-20.0-0.0-0.10","2008","pics2/VE2.jpg","","","81","null","","","","","","","","","",""
"image-slider-response","99","453839","0.0-20.0-0.0-0.11","3794","pics2/SA4.jpg","","","56","null","","","","","","","","","",""
"image-slider-response","100","456748","0.0-20.0-0.0-0.12","2705","pics2/SA1.jpg","","","94","null","","","","","","","","","",""
"image-slider-response","101","459204","0.0-20.0-0.0-0.13","2253","pics2/SW2.jpg","","","88","null","","","","","","","","","",""
"image-slider-response","102","461665","0.0-20.0-0.0-0.14","2257","pics2/FR1.jpg","","","82","null","","","","","","","","","",""
"image-slider-response","103","464170","0.0-20.0-0.0-0.15","2301","pics2/FR6.jpg","","","76","null","","","","","","","","","",""
"image-slider-response","104","467094","0.0-20.0-0.0-0.16","2717","pics2/VE5.jpg","","","82","null","","","","","","","","","",""
"image-slider-response","105","470347","0.0-20.0-0.0-0.17","3050","pics2/SW4.jpg","","","78","null","","","","","","","","","",""
"image-slider-response","106","473084","0.0-20.0-0.0-0.18","2531","pics2/SW5.jpg","","","88","null","","","","","","","","","",""
"image-slider-response","107","476137","0.0-20.0-0.0-0.19","2852","pics2/SW6.jpg","","","78","null","","","","","","","","","",""
"image-slider-response","108","478433","0.0-20.0-0.0-0.20","2094","pics2/FR3.jpg","","","85","null","","","","","","","","","",""
"image-slider-response","109","480919","0.0-20.0-0.0-0.21","2282","pics2/SA6.jpg","","","83","null","","","","","","","","","",""
"image-slider-response","110","485403","0.0-20.0-0.0-0.22","4281","pics2/SA2.jpg","","","86","null","","","","","","","","","",""
"image-slider-response","111","490248","0.0-20.0-0.0-0.23","4637","pics2/FR4.jpg","","","92","null","","","","","","","","","",""
"call-function","112","490457","0.0-21.0","","","","","","","","","","","","","","","",""
"html-button-response","113","491817","0.0-22.0","1359","<div style='width: 900px;'> <font size = 6><b> End of the second rating</b><br><br>","0","","","","","","","","","","","","",""
"pavlovia","114","491828","0.0-23.0","","","","","","","","","","","","","","","",""
"html-keyboard-response","115","496832","0.0-24.0","null","<div style='width: 700px;'> <font size=6><b>SHORT BREAK</font></b><br><br><i> Please wait 5 seconds to continue</i></div> ","","","","","","null","","","","","","","",""
"pavlovia","116","496834","0.0-25.0","","","","","","","","","","","","","","","",""
"html-button-response","117","523944","0.0-26.0","27109","<div style='width: 700px;'>In the main part of the study, you will be choosing between 2 items. When it's time to choose,  this symbol will appear: <br><br><img src='chooseS.png'></img><br><br>Below, a cue will signify the type of choice: </div><br><div style='width: 700px;'><div style='float: left; width: 50%'><img src='heartS.png'></img><p class='small'>Heart cue means you should choose the item you <b><i>prefer</b></i> more.</p></div><div class='float: right; width:50%'><img src='sizeS.png'></img><p class='small'>Size cue means you should choose the <b><i>larger</b></i> item. </p></div></div><br><div style='width: 700px;'>When you click, a green square will appear around the item you chose.<br></div><div><br>","0","","","","","","","","","","","","",""
"image-selector-fb-tut","118","527207","0.0-27.0","2256","0232.jpg,0123.jpg","","","","","","","false","0","","","","","",""
"image-selector-fb-tut","119","530769","0.0-28.0","2557","0232.jpg,0123.jpg","","","","","","","false","0","","","","","",""
"html-button-response","120","536906","0.0-29.0","6136","<div style='width: 900px;'>Your choices should be both <b><i>fast and accurate</b></i>. <br><br>You will have <i>4 seconds</i> to make each choice, which should be enough consider the options and click on one of the items.<br><br>","0","","","","","","","","","","","","",""
"html-button-response","121","543729","0.0-30.0","6822","<div style='width: 900px;'>Additionally, on some choice trials you will see the <b><i>no-choice cue</b></i>: <br><br><img src='noS.png'></img> <br><br>This cue means you can't make any choice. You can examine the items, but  can't click on any of them. Just wait patiently for the cue to dissapear.<br><br>","0","","","","","","","","","","","","",""
"image-selector-fb-tut","122","545734","0.0-31.0","null","0232.jpg,0123.jpg","","","","","","","false","null","","","","","",""
"html-button-response","123","568701","0.0-32.0","22964","<div style='width: 900px;'>After each choice the items will remain on the screen and you will see this symbol: <br><br><img src='judgeS.png'></img> <br><br>This means you should rate<b> the magnitude of the difference</b> between the items using a scale: </div><br><div style='width: 900px; '><div style='float: left; width: 50%; margin-right: 2.5em; align-self:left'><img src='heartS.png'></img><p class='small' style = 'text-align: justify;'>Heart cue means you should rate <b>how much you prefer</b> one of the items over the other. Moving the scale indicator to the left means you prefer the left one; moving it to the right - right one. The more you prefer one of them, the more towards that side you should move the scale indicator. </p></div><div class='float: right; width: 50%; margin-left: 2.5em;'><img src='sizeS.png'></img><p class='small' style='text-align: justify'>Size cue means you should rate <b>how much larger</b> is one of the items over the other. Moving the scale indicator to the left means you think the left is larger; moving it to the right - right one. The greater the difference in size, the more towards that side you should move the scale indicator.</div><br>","0","","","","","","","","","","","","",""
"image-slider-2AFC-tut","124","574186","0.0-33.0","5482","","","","33","","","","","","4235","33","","","",""
"image-slider-2AFC-tut","125","578070","0.0-34.0","3879","","","","22","","","","","","2766","22","","","",""
"html-button-response","126","605415","0.0-35.0","27343","<br><br><font size = 36><b> Examples </b></font><br><br><i> 1) I would like to eat some croissants a <b>lot more</b> than doritos right now:</i><br><img src='ex1.PNG', width='62%'></img><br><br><br><i> 2) I would like to eat some doritos a <b>bit more</b> than croissants right now, but just slightly:</i><br><img src='ex2.PNG' width='62%'></img>","0","","","","","","","","","","","","",""
"html-button-response","127","610236","0.0-36.0","4819","<div style='width: 900px;'><i>Now you know everything you need to do the task!</i> <br><br>Let's start by doing a <b>short training</b>, so you'll get used to how it works. </div><br>","0","","","","","","","","","","","","",""
"image-selector-fb","128","613248","0.0-37.0-0.0","null","pics2/VE3.jpg,pics2/VE2.jpg","","","","","","","false","null","","","noS.png","","",""
"image-slider-2AFC","129","617481","0.0-37.0-1.0","4230","","","","-51","","","","","","","","sizeS.png","3382","-51",""
"html-keyboard-response","130","618240","0.0-37.0-2.0","null","","","","","","","null","","","","","","","",""
"image-selector-fb","131","621256","0.0-37.1-0.1","null","pics2/FR4.jpg,pics2/VE2.jpg","","","","","","","false","null","","","noS.png","","",""
"image-slider-2AFC","132","624149","0.0-37.1-1.1","2890","","","","-65","","","","","","","","sizeS.png","2043","-65",""
"html-keyboard-response","133","624907","0.0-37.1-2.1","null","","","","","","","null","","","","","","","",""
"image-selector-fb","134","629420","0.0-37.2-0.2","null","pics2/FR5.jpg,pics2/VE2.jpg","","","","","","","false","null","","","heartS.png","","",""
"image-slider-2AFC","135","629421","0.0-37.2-1.2","null","","","","null","","","","","","","","sizeS.png","","",""
"html-keyboard-response","136","630274","0.0-37.2-2.2","null","","","","","","","null","","","","","","","",""
"image-selector-fb","137","633288","0.0-37.3-0.3","null","pics2/SA3.jpg,pics2/SW2.jpg","","","","","","","false","null","","","noS.png","","",""
"image-slider-2AFC","138","637677","0.0-37.3-1.3","4387","","","","62","","","","","","","","sizeS.png","3195","62",""
"html-keyboard-response","139","638435","0.0-37.3-2.3","null","","","","","","","null","","","","","","","",""
"image-selector-fb","140","642942","0.0-37.4-0.4","null","pics2/VE4.jpg,pics2/FR5.jpg","","","","","","","false","null","","","sizeS.png","","",""
"image-slider-2AFC","141","642943","0.0-37.4-1.4","null","","","","null","","","","","","","","sizeS.png","","",""
"html-keyboard-response","142","643747","0.0-37.4-2.4","null","","","","","","","null","","","","","","","",""
"image-selector-fb","143","648251","0.0-37.5-0.5","null","pics2/VE1.jpg,pics2/VE5.jpg","","","","","","","false","null","","","sizeS.png","","",""
"image-slider-2AFC","144","648253","0.0-37.5-1.5","null","","","","null","","","","","","","","heartS.png","","",""
"html-keyboard-response","145","648962","0.0-37.5-2.5","null","","","","","","","null","","","","","","","",""
"image-selector-fb","146","652558","0.0-37.6-0.6","3091","pics2/FR5.jpg,pics2/SA5.jpg","","","","","","","false","0","","","heartS.png","","",""
"image-slider-2AFC","147","657561","0.0-37.6-1.6","null","","","","null","","","","","","","","heartS.png","","",""
"html-keyboard-response","148","658314","0.0-37.6-2.6","null","","","","","","","null","","","","","","","",""
"image-selector-fb","149","661521","0.0-37.7-0.7","2701","pics2/VE4.jpg,pics2/SA3.jpg","","","","","","","false","0","","","sizeS.png","","",""
"image-slider-2AFC","150","666527","0.0-37.7-1.7","null","","","","null","","","","","","","","sizeS.png","","",""
"html-keyboard-response","151","667289","0.0-37.7-2.7","null","","","","","","","null","","","","","","","",""
"image-selector-fb","152","671793","0.0-37.8-0.8","null","pics2/VE5.jpg,pics2/VE2.jpg","","","","","","","false","null","","","heartS.png","","",""
"image-slider-2AFC","153","671793","0.0-37.8-1.8","null","","","","null","","","","","","","","sizeS.png","","",""
"html-keyboard-response","154","672547","0.0-37.8-2.8","null","","","","","","","null","","","","","","","",""
"image-selector-fb","155","675561","0.0-37.9-0.9","null","pics2/VE6.jpg,pics2/VE2.jpg","","","","","","","false","null","","","noS.png","","",""
"image-slider-2AFC","156","680566","0.0-37.9-1.9","null","","","","null","","","","","","","","heartS.png","","",""
"html-keyboard-response","157","681322","0.0-37.9-2.9","null","","","","","","","null","","","","","","","",""
"image-selector-fb","158","685751","0.0-37.10-0.10","3922","pics2/VE1.jpg,pics2/VE3.jpg","","","","","","","false","0","","","sizeS.png","","",""
"image-slider-2AFC","159","690050","0.0-37.10-1.10","4297","","","","-50","","","","","","","","sizeS.png","3634","-50",""
"html-keyboard-response","160","690758","0.0-37.10-2.10","null","","","","","","","null","","","","","","","",""
"image-selector-fb","161","693304","0.0-37.11-0.11","2038","pics2/VE4.jpg,pics2/VE1.jpg","","","","","","","true","1","","","sizeS.png","","",""
"image-slider-2AFC","162","696491","0.0-37.11-1.11","3184","","","","63","","","","","","","","sizeS.png","2189","63",""
"html-keyboard-response","163","697301","0.0-37.11-2.11","null","","","","","","","null","","","","","","","",""
"html-button-response","164","700866","0.0-38.0","3564","<i><font size=10>Good job!</font></i> <br><br>Before we begin, you have a chance to review the rules, in case something was not clear.<br><br>","0","","","","","","","","","","","","",""
"instructions","165","791461","0.0-39.0","90594","","","","","","","","","","","","","","","[{""page_index"":0,""viewing_time"":80450},{""page_index"":1,""viewing_time"":1793},{""page_index"":2,""viewing_time"":8351}]"
"html-button-response","166","798164","0.0-40.0","6702","<div style='width: 900px;'> <font size='40'>Great! Now you're ready to begin</font><br><br>The main part of the experiment will consist of <u>3 blocks</u>. Each block consists of 66 decisions and judgements. You will have time for a short break between blocks.<br><br><br><i><u>Do your best to respond within the time limit.</u></i><br><br><i> Press the button to start the experiment<br><br></i>","0","","","","","","","","","","","","",""
"image-selector-fb","167","800932","0.0-41.0-0.0","2263","pics2/SW3.jpg,pics2/SW6.jpg","","","","","","","false","0","","","heartS.png","","",""
"image-slider-2AFC","168","802826","0.0-41.0-1.0","1893","","","","-49","","","","","","","","heartS.png","1065","-49",""
"html-keyboard-response","169","803637","0.0-41.0-2.0","null","","","","","","","null","","","","","","","",""
"image-selector-fb","170","806648","0.0-41.1-0.1","null","pics2/SA4.jpg,pics2/SA6.jpg","","","","","","","false","null","","","noS.png","","",""
"image-slider-2AFC","171","811650","0.0-41.1-1.1","null","","","","null","","","","","","","","sizeS.png","4446,4847","-7,-12",""
"html-keyboard-response","172","812407","0.0-41.1-2.1","null","","","","","","","null","","","","","","","",""
"image-selector-fb","173","814635","0.0-41.2-0.2","1722","pics2/SW5.jpg,pics2/SA1.jpg","","","","","","","false","0","","","heartS.png","","",""
"image-slider-2AFC","174","816756","0.0-41.2-1.2","2120","","","","-35","","","","","","","","heartS.png","1384","-35",""
"html-keyboard-response","175","817459","0.0-41.2-2.2","null","","","","","","","null","","","","","","","",""
"image-selector-fb","176","820476","0.0-41.3-0.3","null","pics2/SA6.jpg,pics2/FR1.jpg","","","","","","","false","null","","","noS.png","","",""
"image-slider-2AFC","177","824348","0.0-41.3-1.3","3870","","","","49","","","","","","","","sizeS.png","3181","49",""
"html-keyboard-response","178","825157","0.0-41.3-2.3","null","","","","","","","null","","","","","","","",""
"image-selector-fb","179","827602","0.0-41.4-0.4","1937","pics2/SW3.jpg,pics2/FR1.jpg","","","","","","","false","0","","","heartS.png","","",""
"image-slider-2AFC","180","830101","0.0-41.4-1.4","2496","","","","-36","","","","","","","","heartS.png","1765","-36",""
"html-keyboard-response","181","830909","0.0-41.4-2.4","null","","","","","","","null","","","","","","","",""
"image-selector-fb","182","832939","0.0-41.5-0.5","1527","pics2/FR3.jpg,pics2/SA6.jpg","","","","","","","false","0","","","heartS.png","","",""
"image-slider-2AFC","183","836498","0.0-41.5-1.5","3557","","","","-41","","","","","","","","sizeS.png","1609","-41",""
"html-keyboard-response","184","837358","0.0-41.5-2.5","null","","","","","","","null","","","","","","","",""
"image-selector-fb","185","839491","0.0-41.6-0.6","1626","pics2/SW5.jpg,pics2/SA6.jpg","","","","","","","false","0","","","heartS.png","","",""
"image-slider-2AFC","186","841630","0.0-41.6-1.6","2137","","","","-48","","","","","","","","heartS.png","1481","-48",""
"html-keyboard-response","187","842390","0.0-41.6-2.6","null","","","","","","","null","","","","","","","",""
"image-selector-fb","188","844408","0.0-41.7-0.7","1514","pics2/SA6.jpg,pics2/SA4.jpg","","","","","","","true","1","","","heartS.png","","",""
"image-slider-2AFC","189","846796","0.0-41.7-1.7","2386","","","","48","","","","","","","","heartS.png","1738","48",""
"html-keyboard-response","190","847650","0.0-41.7-2.7","null","","","","","","","null","","","","","","","",""
"image-selector-fb","191","849927","0.0-41.8-0.8","1773","pics2/SW4.jpg,pics2/SW3.jpg","","","","","","","false","0","","","sizeS.png","","",""
"image-slider-2AFC","192","852445","0.0-41.8-1.8","2514","","","","-58","","","","","","","","heartS.png","1814","-58",""
"html-keyboard-response","193","853203","0.0-41.8-2.8","null","","","","","","","null","","","","","","","",""
"image-selector-fb","194","854958","0.0-41.9-0.9","1250","pics2/FR2.jpg,pics2/SW5.jpg","","","","","","","true","1","","","heartS.png","","",""
"image-slider-2AFC","195","857067","0.0-41.9-1.9","2108","","","","53","","","","","","","","heartS.png","1448","53",""
"html-keyboard-response","196","857869","0.0-41.9-2.9","null","","","","","","","null","","","","","","","",""
"image-selector-fb","197","860879","0.0-41.10-0.10","null","pics2/SW6.jpg,pics2/SA2.jpg","","","","","","","false","null","","","noS.png","","",""
"image-slider-2AFC","198","865378","0.0-41.10-1.10","4496","","","","35","","","","","","","","sizeS.png","3852","35",""
"html-keyboard-response","199","866182","0.0-41.10-2.10","null","","","","","","","null","","","","","","","",""
"image-selector-fb","200","869198","0.0-41.11-0.11","null","pics2/SA6.jpg,pics2/SW5.jpg","","","","","","","false","null","","","noS.png","","",""
"image-slider-2AFC","201","872390","0.0-41.11-1.11","3190","","","","40","","","","","","","","sizeS.png","2615","40",""
"html-keyboard-response","202","873148","0.0-41.11-2.11","null","","","","","","","null","","","","","","","",""
"image-selector-fb","203","876160","0.0-41.12-0.12","null","pics2/FR6.jpg,pics2/FR2.jpg","","","","","","","false","null","","","noS.png","","",""
"image-slider-2AFC","204","879593","0.0-41.12-1.12","3430","","","","45","","","","","","","","sizeS.png","2690","45",""
"html-keyboard-response","205","880354","0.0-41.12-2.12","null","","","","","","","null","","","","","","","",""
"image-selector-fb","206","881971","0.0-41.13-0.13","1109","pics2/FR6.jpg,pics2/SW3.jpg","","","","","","","true","1","","","sizeS.png","","",""
"image-slider-2AFC","207","886183","0.0-41.13-1.13","4211","","","","44","","","","","","","","heartS.png","3275","44",""
"html-keyboard-response","208","886988","0.0-41.13-2.13","null","","","","","","","null","","","","","","","",""
"image-selector-fb","209","890002","0.0-41.14-0.14","null","pics2/SW3.jpg,pics2/SA6.jpg","","","","","","","false","null","","","noS.png","","",""
"image-slider-2AFC","210","893364","0.0-41.14-1.14","3360","","","","-38","","","","","","","","sizeS.png","2553","-38",""
"html-keyboard-response","211","894068","0.0-41.14-2.14","null","","","","","","","null","","","","","","","",""
"image-selector-fb","212","897079","0.0-41.15-0.15","null","pics2/SW3.jpg,pics2/SA2.jpg","","","","","","","false","null","","","noS.png","","",""
"image-slider-2AFC","213","900318","0.0-41.15-1.15","3238","","","","-45","","","","","","","","heartS.png","2587","-45",""
"html-keyboard-response","214","901022","0.0-41.15-2.15","null","","","","","","","null","","","","","","","",""
"image-selector-fb","215","903189","0.0-41.16-0.16","1662","pics2/SA2.jpg,pics2/FR3.jpg","","","","","","","true","1","","","sizeS.png","","",""
"image-slider-2AFC","216","906415","0.0-41.16-1.16","3222","","","","71","","","","","","","","heartS.png","2481","71",""
"html-keyboard-response","217","907223","0.0-41.16-2.16","null","","","","","","","null","","","","","","","",""
"image-selector-fb","218","910559","0.0-41.17-0.17","2831","pics2/SA2.jpg,pics2/SA6.jpg","","","","","","","true","1","","","sizeS.png","","",""
"image-slider-2AFC","219","913561","0.0-41.17-1.17","3000","","","","9","","","","","","","","sizeS.png","2073","9",""
"html-keyboard-response","220","914371","0.0-41.17-2.17","null","","","","","","","null","","","","","","","",""
"image-selector-fb","221","916660","0.0-41.18-0.18","1784","pics2/SW3.jpg,pics2/SA1.jpg","","","","","","","false","0","","","heartS.png","","",""
"image-slider-2AFC","222","920835","0.0-41.18-1.18","4173","","","","-29","","","","","","","","sizeS.png","3345","-29",""
"html-keyboard-response","223","921692","0.0-41.18-2.18","null","","","","","","","null","","","","","","","",""
"image-selector-fb","224","924685","0.0-41.19-0.19","2486","pics2/SW4.jpg,pics2/SA6.jpg","","","","","","","false","0","","","sizeS.png","","",""
"image-slider-2AFC","225","927258","0.0-41.19-1.19","2571","","","","-16","","","","","","","","sizeS.png","1970","-16",""
"html-keyboard-response","226","928016","0.0-41.19-2.19","null","","","","","","","null","","","","","","","",""
"image-selector-fb","227","929681","0.0-41.20-0.20","1160","pics2/SA4.jpg,pics2/FR3.jpg","","","","","","","true","1","","","sizeS.png","","",""
"image-slider-2AFC","228","933238","0.0-41.20-1.20","3555","","","","48","","","","","","","","sizeS.png","2670","48",""
"html-keyboard-response","229","933944","0.0-41.20-2.20","null","","","","","","","null","","","","","","","",""
"image-selector-fb","230","936958","0.0-41.21-0.21","null","pics2/FR1.jpg,pics2/SW5.jpg","","","","","","","false","null","","","noS.png","","",""
"image-slider-2AFC","231","941178","0.0-41.21-1.21","4217","","","","-39","","","","","","","","sizeS.png","3573","-39",""
"html-keyboard-response","232","942035","0.0-41.21-2.21","null","","","","","","","null","","","","","","","",""
"image-selector-fb","233","944115","0.0-41.22-0.22","1575","pics2/FR1.jpg,pics2/FR2.jpg","","","","","","","true","1","","","sizeS.png","","",""
"image-slider-2AFC","234","948155","0.0-41.22-1.22","4038","","","","-49","","","","","","","","heartS.png","3138","-49",""
"html-keyboard-response","235","949015","0.0-41.22-2.22","null","","","","","","","null","","","","","","","",""
"image-selector-fb","236","952084","0.0-41.23-0.23","2565","pics2/SW6.jpg,pics2/SA2.jpg","","","","","","","true","1","","","sizeS.png","","",""
"image-slider-2AFC","237","954259","0.0-41.23-1.23","2172","","","","23","","","","","","","","heartS.png","1573","23",""
"html-keyboard-response","238","954964","0.0-41.23-2.23","null","","","","","","","null","","","","","","","",""
"image-selector-fb","239","957103","0.0-41.24-0.24","1633","pics2/SW5.jpg,pics2/FR6.jpg","","","","","","","false","0","","","heartS.png","","",""
"image-slider-2AFC","240","961862","0.0-41.24-1.24","4756","","","","-37","","","","","","","","sizeS.png","3984","-37",""
"html-keyboard-response","241","962671","0.0-41.24-2.24","null","","","","","","","null","","","","","","","",""
"image-selector-fb","242","965682","0.0-41.25-0.25","null","pics2/SA2.jpg,pics2/FR6.jpg","","","","","","","false","null","","","noS.png","","",""
"image-slider-2AFC","243","970686","0.0-41.25-1.25","null","","","","null","","","","","","","","heartS.png","","",""
"html-keyboard-response","244","971541","0.0-41.25-2.25","null","","","","","","","null","","","","","","","",""
"image-selector-fb","245","973872","0.0-41.26-0.26","1828","pics2/SW4.jpg,pics2/FR1.jpg","","","","","","","false","0","","","heartS.png","","",""
"image-slider-2AFC","246","976670","0.0-41.26-1.26","2796","","","","-41","","","","","","","","heartS.png","1960","-41",""
"html-keyboard-response","247","977525","0.0-41.26-2.26","null","","","","","","","null","","","","","","","",""
"image-selector-fb","248","979116","0.0-41.27-0.27","1087","pics2/FR3.jpg,pics2/SW3.jpg","","","","","","","true","1","","","heartS.png","","",""
"image-slider-2AFC","249","981299","0.0-41.27-1.27","2180","","","","56","","","","","","","","heartS.png","1440","56",""
"html-keyboard-response","250","982005","0.0-41.27-2.27","null","","","","","","","null","","","","","","","",""
"image-selector-fb","251","984508","0.0-41.28-0.28","1995","pics2/FR1.jpg,pics2/SW4.jpg","","","","","","","false","0","","","sizeS.png","","",""
"image-slider-2AFC","252","988591","0.0-41.28-1.28","4080","","","","60","","","","","","","","heartS.png","3209","60",""
"html-keyboard-response","253","989396","0.0-41.28-2.28","null","","","","","","","null","","","","","","","",""
"image-selector-fb","254","992404","0.0-41.29-0.29","null","pics2/FR1.jpg,pics2/FR2.jpg","","","","","","","false","null","","","noS.png","","",""
"image-slider-2AFC","255","996327","0.0-41.29-1.29","3919","","","","-53","","","","","","","","heartS.png","3304","-53",""
"html-keyboard-response","256","997035","0.0-41.29-2.29","null","","","","","","","null","","","","","","","",""
"image-selector-fb","257","1000045","0.0-41.30-0.30","null","pics2/SA6.jpg,pics2/SA1.jpg","","","","","","","false","null","","","noS.png","","",""
"image-slider-2AFC","258","1003895","0.0-41.30-1.30","3848","","","","-45","","","","","","","","heartS.png","3173","-45",""
"html-keyboard-response","259","1004751","0.0-41.30-2.30","null","","","","","","","null","","","","","","","",""
"image-selector-fb","260","1007761","0.0-41.31-0.31","null","pics2/SA2.jpg,pics2/SW5.jpg","","","","","","","false","null","","","noS.png","","",""
"image-slider-2AFC","261","1010963","0.0-41.31-1.31","3201","","","","49","","","","","","","","heartS.png","2601","49",""
"html-keyboard-response","262","1011824","0.0-41.31-2.31","null","","","","","","","null","","","","","","","",""
"image-selector-fb","263","1013945","0.0-41.32-0.32","1613","pics2/SA6.jpg,pics2/SA2.jpg","","","","","","","false","0","","","heartS.png","","",""
"image-slider-2AFC","264","1016065","0.0-41.32-1.32","2118","","","","-47","","","","","","","","heartS.png","1070","-47",""
"html-keyboard-response","265","1016818","0.0-41.32-2.32","null","","","","","","","null","","","","","","","",""
"image-selector-fb","266","1018339","0.0-41.33-0.33","1017","pics2/SA6.jpg,pics2/SW5.jpg","","","","","","","true","1","","","sizeS.png","","",""
"image-slider-2AFC","267","1020806","0.0-41.33-1.33","2462","","","","40","","","","","","","","sizeS.png","1703","40",""
"html-keyboard-response","268","1021563","0.0-41.33-2.33","null","","","","","","","null","","","","","","","",""
"image-selector-fb","269","1023177","0.0-41.34-0.34","1109","pics2/FR3.jpg,pics2/SA1.jpg","","","","","","","false","0","","","heartS.png","","",""
"image-slider-2AFC","270","1026864","0.0-41.34-1.34","3684","","","","-42","","","","","","","","sizeS.png","2904","-42",""
"html-keyboard-response","271","1027624","0.0-41.34-2.34","null","","","","","","","null","","","","","","","",""
"image-selector-fb","272","1029509","0.0-41.35-0.35","1381","pics2/SW5.jpg,pics2/SA2.jpg","","","","","","","false","0","","","heartS.png","","",""
"image-slider-2AFC","273","1031708","0.0-41.35-1.35","2197","","","","-46","","","","","","","","heartS.png","1497","-46",""
"html-keyboard-response","274","1032469","0.0-41.35-2.35","null","","","","","","","null","","","","","","","",""
"image-selector-fb","275","1035479","0.0-41.36-0.36","null","pics2/FR6.jpg,pics2/FR1.jpg","","","","","","","false","null","","","noS.png","","",""
"image-slider-2AFC","276","1039387","0.0-41.36-1.36","3905","","","","44","","","","","","","","heartS.png","3337","44",""
"html-keyboard-response","277","1040094","0.0-41.36-2.36","null","","","","","","","null","","","","","","","",""
"image-selector-fb","278","1042276","0.0-41.37-0.37","1679","pics2/FR2.jpg,pics2/SA1.jpg","","","","","","","true","1","","","heartS.png","","",""
"image-slider-2AFC","279","1046444","0.0-41.37-1.37","4166","","","","45","","","","","","","","sizeS.png","3447","45",""
"html-keyboard-response","280","1047301","0.0-41.37-2.37","null","","","","","","","null","","","","","","","",""
"image-selector-fb","281","1049958","0.0-41.38-0.38","2153","pics2/FR2.jpg,pics2/SA2.jpg","","","","","","","true","1","","","heartS.png","","",""
"image-slider-2AFC","282","1053982","0.0-41.38-1.38","4020","","","","-53","","","","","","","","sizeS.png","3257","-53",""
"html-keyboard-response","283","1054788","0.0-41.38-2.38","null","","","","","","","null","","","","","","","",""
"image-selector-fb","284","1056964","0.0-41.39-0.39","1672","pics2/SA6.jpg,pics2/FR2.jpg","","","","","","","true","1","","","sizeS.png","","",""
"image-slider-2AFC","285","1060867","0.0-41.39-1.39","3898","","","","-53","","","","","","","","heartS.png","3078","-53",""
"html-keyboard-response","286","1061628","0.0-41.39-2.39","null","","","","","","","null","","","","","","","",""
"image-selector-fb","287","1064640","0.0-41.40-0.40","null","pics2/FR6.jpg,pics2/SA1.jpg","","","","","","","false","null","","","noS.png","","",""
"image-slider-2AFC","288","1068075","0.0-41.40-1.40","3433","","","","49","","","","","","","","sizeS.png","2833","49",""
"html-keyboard-response","289","1068886","0.0-41.40-2.40","null","","","","","","","null","","","","","","","",""
"image-selector-fb","290","1071890","0.0-41.41-0.41","null","pics2/SA4.jpg,pics2/SA1.jpg","","","","","","","false","null","","","noS.png","","",""
"image-slider-2AFC","291","1075668","0.0-41.41-1.41","3776","","","","-54","","","","","","","","heartS.png","2896","-54",""
"html-keyboard-response","292","1076529","0.0-41.41-2.41","null","","","","","","","null","","","","","","","",""
"image-selector-fb","293","1078942","0.0-41.42-0.42","1909","pics2/SA6.jpg,pics2/FR6.jpg","","","","","","","false","0","","","heartS.png","","",""
"image-slider-2AFC","294","1081701","0.0-41.42-1.42","2756","","","","-53","","","","","","","","sizeS.png","1880","-53",""
"html-keyboard-response","295","1082511","0.0-41.42-2.42","null","","","","","","","null","","","","","","","",""
"image-selector-fb","296","1084327","0.0-41.43-0.43","1307","pics2/SW6.jpg,pics2/SW5.jpg","","","","","","","true","1","","","sizeS.png","","",""
"image-slider-2AFC","297","1087026","0.0-41.43-1.43","2697","","","","43","","","","","","","","sizeS.png","1958","43",""
"html-keyboard-response","298","1087882","0.0-41.43-2.43","null","","","","","","","null","","","","","","","",""
"image-selector-fb","299","1090896","0.0-41.44-0.44","null","pics2/SW6.jpg,pics2/SA6.jpg","","","","","","","false","null","","","noS.png","","",""
"image-slider-2AFC","300","1094935","0.0-41.44-1.44","4038","","","","50","","","","","","","","heartS.png","3230","50",""
"html-keyboard-response","301","1095792","0.0-41.44-2.44","null","","","","","","","null","","","","","","","",""
"image-selector-fb","302","1098806","0.0-41.45-0.45","null","pics2/FR3.jpg,pics2/SA6.jpg","","","","","","","false","null","","","noS.png","","",""
"image-slider-2AFC","303","1102513","0.0-41.45-1.45","3704","","","","-57","","","","","","","","sizeS.png","3057","-57",""
"html-keyboard-response","304","1103368","0.0-41.45-2.45","null","","","","","","","null","","","","","","","",""
"image-selector-fb","305","1106378","0.0-41.46-0.46","null","pics2/SA1.jpg,pics2/FR2.jpg","","","","","","","false","null","","","noS.png","","",""
"image-slider-2AFC","306","1110756","0.0-41.46-1.46","4376","","","","-42","","","","","","","","heartS.png","3700","-42",""
"html-keyboard-response","307","1111566","0.0-41.46-2.46","null","","","","","","","null","","","","","","","",""
"image-selector-fb","308","1114401","0.0-41.47-0.47","2332","pics2/SW6.jpg,pics2/FR3.jpg","","","","","","","true","1","","","sizeS.png","","",""
"image-slider-2AFC","309","1117073","0.0-41.47-1.47","2670","","","","40","","","","","","","","sizeS.png","1966","40",""
"html-keyboard-response","310","1117874","0.0-41.47-2.47","null","","","","","","","null","","","","","","","",""
"image-selector-fb","311","1120204","0.0-41.48-0.48","1826","pics2/FR2.jpg,pics2/SA6.jpg","","","","","","","true","1","","","heartS.png","","",""
"image-slider-2AFC","312","1123601","0.0-41.48-1.48","3394","","","","-42","","","","","","","","sizeS.png","2661","-42",""
"html-keyboard-response","313","1124404","0.0-41.48-2.48","null","","","","","","","null","","","","","","","",""
"image-selector-fb","314","1126383","0.0-41.49-0.49","1476","pics2/SW6.jpg,pics2/FR1.jpg","","","","","","","true","1","","","heartS.png","","",""
"image-slider-2AFC","315","1130027","0.0-41.49-1.49","3642","","","","45","","","","","","","","sizeS.png","2956","45",""
"html-keyboard-response","316","1130734","0.0-41.49-2.49","null","","","","","","","null","","","","","","","",""
"image-selector-fb","317","1132984","0.0-41.50-0.50","1745","pics2/FR2.jpg,pics2/SW3.jpg","","","","","","","true","1","","","heartS.png","","",""
"image-slider-2AFC","318","1135697","0.0-41.50-1.50","2712","","","","53","","","","","","","","heartS.png","2017","53",""
"html-keyboard-response","319","1136503","0.0-41.50-2.50","null","","","","","","","null","","","","","","","",""
"image-selector-fb","320","1139507","0.0-41.51-0.51","null","pics2/FR3.jpg,pics2/FR1.jpg","","","","","","","false","null","","","noS.png","","",""
"image-slider-2AFC","321","1142695","0.0-41.51-1.51","3185","","","","-49","","","","","","","","sizeS.png","2314","-49",""
"html-keyboard-response","322","1143397","0.0-41.51-2.51","null","","","","","","","null","","","","","","","",""
"image-selector-fb","323","1145705","0.0-41.52-0.52","1805","pics2/SW4.jpg,pics2/FR3.jpg","","","","","","","true","1","","","sizeS.png","","",""
"image-slider-2AFC","324","1149567","0.0-41.52-1.52","3861","","","","-57","","","","","","","","heartS.png","3105","-57",""
"html-keyboard-response","325","1150372","0.0-41.52-2.52","null","","","","","","","null","","","","","","","",""
"image-selector-fb","326","1152518","0.0-41.53-0.53","1643","pics2/FR6.jpg,pics2/FR2.jpg","","","","","","","true","1","","","sizeS.png","","",""
"image-slider-2AFC","327","1155547","0.0-41.53-1.53","3027","","","","51","","","","","","","","sizeS.png","2388","51",""
"html-keyboard-response","328","1156402","0.0-41.53-2.53","null","","","","","","","null","","","","","","","",""
"image-selector-fb","329","1159407","0.0-41.54-0.54","null","pics2/SW3.jpg,pics2/SW5.jpg","","","","","","","false","null","","","noS.png","","",""
"image-slider-2AFC","330","1162900","0.0-41.54-1.54","3491","","","","52","","","","","","","","sizeS.png","2703","52",""
"html-keyboard-response","331","1163753","0.0-41.54-2.54","null","","","","","","","null","","","","","","","",""
"image-selector-fb","332","1165322","0.0-41.55-0.55","1064","pics2/FR1.jpg,pics2/SA4.jpg","","","","","","","true","1","","","heartS.png","","",""
"image-slider-2AFC","333","1167487","0.0-41.55-1.55","2163","","","","54","","","","","","","","heartS.png","1472","54",""
"html-keyboard-response","334","1168190","0.0-41.55-2.55","null","","","","","","","null","","","","","","","",""
"image-selector-fb","335","1170661","0.0-41.56-0.56","1968","pics2/SW5.jpg,pics2/FR2.jpg","","","","","","","true","1","","","sizeS.png","","",""
"image-slider-2AFC","336","1174618","0.0-41.56-1.56","3955","","","","-42","","","","","","","","heartS.png","3100","-42",""
"html-keyboard-response","337","1175375","0.0-41.56-2.56","null","","","","","","","null","","","","","","","",""
"image-selector-fb","338","1178476","0.0-41.57-0.57","2596","pics2/FR1.jpg,pics2/SW3.jpg","","","","","","","false","0","","","sizeS.png","","",""
"image-slider-2AFC","339","1181434","0.0-41.57-1.57","2956","","","","-55","","","","","","","","sizeS.png","2225","-55",""
"html-keyboard-response","340","1182293","0.0-41.57-2.57","null","","","","","","","null","","","","","","","",""
"image-selector-fb","341","1184247","0.0-41.58-0.58","1450","pics2/FR1.jpg,pics2/FR6.jpg","","","","","","","false","0","","","sizeS.png","","",""
"image-slider-2AFC","342","1187149","0.0-41.58-1.58","2899","","","","-53","","","","","","","","sizeS.png","2080","-53",""
"html-keyboard-response","343","1187954","0.0-41.58-2.58","null","","","","","","","null","","","","","","","",""
"image-selector-fb","344","1190305","0.0-41.59-0.59","1847","pics2/SW4.jpg,pics2/SW6.jpg","","","","","","","false","0","","","sizeS.png","","",""
"image-slider-2AFC","345","1193664","0.0-41.59-1.59","3357","","","","-65","","","","","","","","heartS.png","2662","-65",""
"html-keyboard-response","346","1194521","0.0-41.59-2.59","null","","","","","","","null","","","","","","","",""
"image-selector-fb","347","1196609","0.0-41.60-0.60","1585","pics2/SW5.jpg,pics2/SW4.jpg","","","","","","","true","1","","","heartS.png","","",""
"image-slider-2AFC","348","1199323","0.0-41.60-1.60","2712","","","","59","","","","","","","","heartS.png","1945","59",""
"html-keyboard-response","349","1200131","0.0-41.60-2.60","null","","","","","","","null","","","","","","","",""
"image-selector-fb","350","1202438","0.0-41.61-0.61","1803","pics2/FR1.jpg,pics2/SA1.jpg","","","","","","","true","1","","","sizeS.png","","",""
"image-slider-2AFC","351","1206601","0.0-41.61-1.61","4162","","","","37","","","","","","","","heartS.png","3519","37",""
"html-keyboard-response","352","1207408","0.0-41.61-2.61","null","","","","","","","null","","","","","","","",""
"image-selector-fb","353","1210418","0.0-41.62-0.62","null","pics2/SW6.jpg,pics2/FR6.jpg","","","","","","","false","null","","","noS.png","","",""
"image-slider-2AFC","354","1214006","0.0-41.62-1.62","3586","","","","-48","","","","","","","","heartS.png","2947","-48",""
"html-keyboard-response","355","1214859","0.0-41.62-2.62","null","","","","","","","null","","","","","","","",""
"image-selector-fb","356","1218035","0.0-41.63-0.63","2669","pics2/FR6.jpg,pics2/SA2.jpg","","","","","","","false","0","","","sizeS.png","","",""
"image-slider-2AFC","357","1220837","0.0-41.63-1.63","2800","","","","-39","","","","","","","","sizeS.png","1681","-39",""
"html-keyboard-response","358","1221648","0.0-41.63-2.63","null","","","","","","","null","","","","","","","",""
"image-selector-fb","359","1224662","0.0-41.64-0.64","null","pics2/FR3.jpg,pics2/SA2.jpg","","","","","","","false","null","","","noS.png","","",""
"image-slider-2AFC","360","1228542","0.0-41.64-1.64","3878","","","","-43","","","","","","","","heartS.png","3181","-43",""
"html-keyboard-response","361","1229300","0.0-41.64-2.64","null","","","","","","","null","","","","","","","",""
"image-selector-fb","362","1232311","0.0-41.65-0.65","null","pics2/SA1.jpg,pics2/FR1.jpg","","","","","","","false","null","","","noS.png","","",""
"image-slider-2AFC","363","1235898","0.0-41.65-1.65","3585","","","","-46","","","","","","","","sizeS.png","2755","-46",""
"html-keyboard-response","364","1236656","0.0-41.65-2.65","null","","","","","","","null","","","","","","","",""
"pavlovia","365","1236677","0.0-42.0","","","","","","","","","","","","","","","",""
"html-keyboard-response","366","1241684","0.0-43.0","null","<div style='width: 700px;'> <font size=6><b>SHORT BREAK</font></b><br><br><i> Please wait 5 seconds to continue</i></div> ","","","","","","null","","","","","","","",""
"pavlovia","367","1241686","0.0-44.0","","","","","","","","","","","","","","","",""
"html-button-response","368","1247182","0.0-45.0","5494","<div style='width: 700px;'> <font size=6><b>BLOCK 2</font></b><br><br>Press the button whenever you feel ready to start the second block (there are 3 in total)</div>","0","","","","","","","","","","","","",""
"image-selector-fb","369","1249436","0.0-46.0-0.0","1747","pics2/SW6.jpg,pics2/SW3.jpg","","","","","","","true","1","","","sizeS.png","","",""
"image-slider-2AFC","370","1251578","0.0-46.0-1.0","2140","","","","40","","","","","","","","sizeS.png","1540","40",""
"html-keyboard-response","371","1252331","0.0-46.0-2.0","null","","","","","","","null","","","","","","","",""
"image-selector-fb","372","1254300","0.0-46.1-0.1","1464","pics2/SA1.jpg,pics2/FR6.jpg","","","","","","","false","0","","","heartS.png","","",""
"image-slider-2AFC","373","1257534","0.0-46.1-1.1","3231","","","","-34","","","","","","","","sizeS.png","2392","-34",""
"html-keyboard-response","374","1258290","0.0-46.1-2.1","null","","","","","","","null","","","","","","","",""
"image-selector-fb","375","1261439","0.0-46.2-0.2","2645","pics2/FR6.jpg,pics2/SA4.jpg","","","","","","","true","1","","","heartS.png","","",""
"image-slider-2AFC","376","1264653","0.0-46.2-1.2","3212","","","","-44","","","","","","","","sizeS.png","2520","-44",""
"html-keyboard-response","377","1265408","0.0-46.2-2.2","null","","","","","","","null","","","","","","","",""
"image-selector-fb","378","1268414","0.0-46.3-0.3","null","pics2/SA4.jpg,pics2/SA2.jpg","","","","","","","false","null","","","noS.png","","",""
"image-slider-2AFC","379","1271696","0.0-46.3-1.3","3280","","","","-38","","","","","","","","heartS.png","2528","-38",""
"html-keyboard-response","380","1272554","0.0-46.3-2.3","null","","","","","","","null","","","","","","","",""
"image-selector-fb","381","1274875","0.0-46.4-0.4","1816","pics2/FR2.jpg,pics2/FR6.jpg","","","","","","","false","0","","","heartS.png","","",""
"image-slider-2AFC","382","1277616","0.0-46.4-1.4","2739","","","","-38","","","","","","","","heartS.png","1967","-38",""
"html-keyboard-response","383","1278425","0.0-46.4-2.4","null","","","","","","","null","","","","","","","",""
"image-selector-fb","384","1281437","0.0-46.5-0.5","null","pics2/SW6.jpg,pics2/FR1.jpg","","","","","","","false","null","","","noS.png","","",""
"image-slider-2AFC","385","1285300","0.0-46.5-1.5","3860","","","","-25","","","","","","","","heartS.png","3245","-25",""
"html-keyboard-response","386","1286154","0.0-46.5-2.5","null","","","","","","","null","","","","","","","",""
"image-selector-fb","387","1289162","0.0-46.6-0.6","null","pics2/SA4.jpg,pics2/FR1.jpg","","","","","","","false","null","","","noS.png","","",""
"image-slider-2AFC","388","1292756","0.0-46.6-1.6","3592","","","","56","","","","","","","","sizeS.png","2669","56",""
"html-keyboard-response","389","1293459","0.0-46.6-2.6","null","","","","","","","null","","","","","","","",""
"image-selector-fb","390","1295657","0.0-46.7-0.7","1695","pics2/SA4.jpg,pics2/SW3.jpg","","","","","","","true","1","","","sizeS.png","","",""
"image-slider-2AFC","391","1297823","0.0-46.7-1.7","2164","","","","36","","","","","","","","sizeS.png","1520","36",""
"html-keyboard-response","392","1298629","0.0-46.7-2.7","null","","","","","","","null","","","","","","","",""
"image-selector-fb","393","1301637","0.0-46.8-0.8","null","pics2/SW3.jpg,pics2/FR1.jpg","","","","","","","false","null","","","noS.png","","",""
"image-slider-2AFC","394","1304243","0.0-46.8-1.8","2603","","","","-37","","","","","","","","sizeS.png","1949","-37",""
"html-keyboard-response","395","1305000","0.0-46.8-2.8","null","","","","","","","null","","","","","","","",""
"image-selector-fb","396","1308012","0.0-46.9-0.9","null","pics2/SW3.jpg,pics2/SW6.jpg","","","","","","","false","null","","","noS.png","","",""
"image-slider-2AFC","397","1310966","0.0-46.9-1.9","2953","","","","-41","","","","","","","","heartS.png","2242","-41",""
"html-keyboard-response","398","1311726","0.0-46.9-2.9","null","","","","","","","null","","","","","","","",""
"image-selector-fb","399","1314735","0.0-46.10-0.10","null","pics2/SW4.jpg,pics2/SA1.jpg","","","","","","","false","null","","","noS.png","","",""
"image-slider-2AFC","400","1318246","0.0-46.10-1.10","3509","","","","43","","","","","","","","sizeS.png","2837","43",""
"html-keyboard-response","401","1319003","0.0-46.10-2.10","null","","","","","","","null","","","","","","","",""
"image-selector-fb","402","1320856","0.0-46.11-0.11","1348","pics2/SA1.jpg,pics2/SA2.jpg","","","","","","","false","0","","","sizeS.png","","",""
"image-slider-2AFC","403","1324026","0.0-46.11-1.11","3167","","","","39","","","","","","","","heartS.png","2560","39",""
"html-keyboard-response","404","1324729","0.0-46.11-2.11","null","","","","","","","null","","","","","","","",""
"image-selector-fb","405","1326771","0.0-46.12-0.12","1538","pics2/SA4.jpg,pics2/FR1.jpg","","","","","","","true","1","","","sizeS.png","","",""
"image-slider-2AFC","406","1329495","0.0-46.12-1.12","2721","","","","48","","","","","","","","sizeS.png","2025","48",""
"html-keyboard-response","407","1330301","0.0-46.12-2.12","null","","","","","","","null","","","","","","","",""
"image-selector-fb","408","1333312","0.0-46.13-0.13","null","pics2/SA4.jpg,pics2/SW4.jpg","","","","","","","false","null","","","noS.png","","",""
"image-slider-2AFC","409","1336429","0.0-46.13-1.13","3115","","","","47","","","","","","","","sizeS.png","2267","47",""
"html-keyboard-response","410","1337138","0.0-46.13-2.13","null","","","","","","","null","","","","","","","",""
"image-selector-fb","411","1339590","0.0-46.14-0.14","1948","pics2/FR2.jpg,pics2/FR1.jpg","","","","","","","false","0","","","heartS.png","","",""
"image-slider-2AFC","412","1341961","0.0-46.14-1.14","2369","","","","-24","","","","","","","","heartS.png","1753","-24",""
"html-keyboard-response","413","1342766","0.0-46.14-2.14","null","","","","","","","null","","","","","","","",""
"image-selector-fb","414","1344331","0.0-46.15-0.15","1062","pics2/SW4.jpg,pics2/SA4.jpg","","","","","","","false","0","","","heartS.png","","",""
"image-slider-2AFC","415","1346706","0.0-46.15-1.15","2373","","","","-44","","","","","","","","sizeS.png","1641","-44",""
"html-keyboard-response","416","1347416","0.0-46.15-2.15","null","","","","","","","null","","","","","","","",""
"image-selector-fb","417","1350673","0.0-46.16-0.16","2752","pics2/SA1.jpg,pics2/SW3.jpg","","","","","","","false","0","","","sizeS.png","","",""
"image-slider-2AFC","418","1353103","0.0-46.16-1.16","2428","","","","-38","","","","","","","","sizeS.png","1733","-38",""
"html-keyboard-response","419","1353858","0.0-46.16-2.16","null","","","","","","","null","","","","","","","",""
"image-selector-fb","420","1355722","0.0-46.17-0.17","1359","pics2/SA2.jpg,pics2/SA1.jpg","","","","","","","true","1","","","heartS.png","","",""
"image-slider-2AFC","421","1358468","0.0-46.17-1.17","2743","","","","34","","","","","","","","sizeS.png","2103","34",""
"html-keyboard-response","422","1359229","0.0-46.17-2.17","null","","","","","","","null","","","","","","","",""
"image-selector-fb","423","1362238","0.0-46.18-0.18","null","pics2/SW6.jpg,pics2/FR2.jpg","","","","","","","false","null","","","noS.png","","",""
"image-slider-2AFC","424","1364877","0.0-46.18-1.18","2637","","","","37","","","","","","","","sizeS.png","2013","37",""
"html-keyboard-response","425","1365629","0.0-46.18-2.18","null","","","","","","","null","","","","","","","",""
"image-selector-fb","426","1368639","0.0-46.19-0.19","null","pics2/SA2.jpg,pics2/FR1.jpg","","","","","","","false","null","","","noS.png","","",""
"image-slider-2AFC","427","1371082","0.0-46.19-1.19","2440","","","","-32","","","","","","","","heartS.png","1817","-32",""
"html-keyboard-response","428","1371787","0.0-46.19-2.19","null","","","","","","","null","","","","","","","",""
"image-selector-fb","429","1374797","0.0-46.20-0.20","null","pics2/SA6.jpg,pics2/FR6.jpg","","","","","","","false","null","","","noS.png","","",""
"image-slider-2AFC","430","1377402","0.0-46.20-1.20","2603","","","","41","","","","","","","","sizeS.png","1919","41",""
"html-keyboard-response","431","1378207","0.0-46.20-2.20","null","","","","","","","null","","","","","","","",""
"image-selector-fb","432","1380792","0.0-46.21-0.21","2080","pics2/SA4.jpg,pics2/SA2.jpg","","","","","","","true","1","","","sizeS.png","","",""
"image-slider-2AFC","433","1383438","0.0-46.21-1.21","2642","","","","-60","","","","","","","","heartS.png","1810","-60",""
"html-keyboard-response","434","1384200","0.0-46.21-2.21","null","","","","","","","null","","","","","","","",""
"image-selector-fb","435","1386056","0.0-46.22-0.22","1352","pics2/SA2.jpg,pics2/SW3.jpg","","","","","","","true","1","","","sizeS.png","","",""
"image-slider-2AFC","436","1388026","0.0-46.22-1.22","1967","","","","56","","","","","","","","heartS.png","1383","56",""
"html-keyboard-response","437","1388887","0.0-46.22-2.22","null","","","","","","","null","","","","","","","",""
"image-selector-fb","438","1391896","0.0-46.23-0.23","null","pics2/FR3.jpg,pics2/FR2.jpg","","","","","","","false","null","","","noS.png","","",""
"image-slider-2AFC","439","1395067","0.0-46.23-1.23","3168","","","","-62","","","","","","","","heartS.png","2437","-62",""
"html-keyboard-response","440","1395775","0.0-46.23-2.23","null","","","","","","","null","","","","","","","",""
"image-selector-fb","441","1398289","0.0-46.24-0.24","2011","pics2/SW3.jpg,pics2/FR3.jpg","","","","","","","true","1","","","sizeS.png","","",""
"image-slider-2AFC","442","1400487","0.0-46.24-1.24","2194","","","","-55","","","","","","","","heartS.png","1530","-55",""
"html-keyboard-response","443","1401346","0.0-46.24-2.24","null","","","","","","","null","","","","","","","",""
"image-selector-fb","444","1403457","0.0-46.25-0.25","1607","pics2/FR3.jpg,pics2/SW4.jpg","","","","","","","false","0","","","heartS.png","","",""
"image-slider-2AFC","445","1406596","0.0-46.25-1.25","3137","","","","-56","","","","","","","","sizeS.png","2305","-56",""
"html-keyboard-response","446","1407453","0.0-46.25-2.25","null","","","","","","","null","","","","","","","",""
"image-selector-fb","447","1409234","0.0-46.26-0.26","1273","pics2/FR6.jpg,pics2/SA1.jpg","","","","","","","true","1","","","sizeS.png","","",""
"image-slider-2AFC","448","1411812","0.0-46.26-1.26","2577","","","","55","","","","","","","","sizeS.png","1726","55",""
"html-keyboard-response","449","1412672","0.0-46.26-2.26","null","","","","","","","null","","","","","","","",""
"image-selector-fb","450","1414370","0.0-46.27-0.27","1195","pics2/SW3.jpg,pics2/SA6.jpg","","","","","","","false","0","","","sizeS.png","","",""
"image-slider-2AFC","451","1416448","0.0-46.27-1.27","2076","","","","-57","","","","","","","","sizeS.png","1201","-57",""
"html-keyboard-response","452","1417305","0.0-46.27-2.27","null","","","","","","","null","","","","","","","",""
"image-selector-fb","453","1419463","0.0-46.28-0.28","1653","pics2/FR6.jpg,pics2/SA6.jpg","","","","","","","true","1","","","sizeS.png","","",""
"image-slider-2AFC","454","1421570","0.0-46.28-1.28","2105","","","","44","","","","","","","","sizeS.png","1264","44",""
"html-keyboard-response","455","1422331","0.0-46.28-2.28","null","","","","","","","null","","","","","","","",""
"image-selector-fb","456","1423932","0.0-46.29-0.29","1098","pics2/FR1.jpg,pics2/SA2.jpg","","","","","","","false","0","","","sizeS.png","","",""
"image-slider-2AFC","457","1425918","0.0-46.29-1.29","1985","","","","50","","","","","","","","heartS.png","1290","50",""
"html-keyboard-response","458","1426629","0.0-46.29-2.29","null","","","","","","","null","","","","","","","",""
"image-selector-fb","459","1428882","0.0-46.30-0.30","1748","pics2/SW6.jpg,pics2/FR6.jpg","","","","","","","false","0","","","heartS.png","","",""
"image-slider-2AFC","460","1431806","0.0-46.30-1.30","2922","","","","36","","","","","","","","sizeS.png","2094","36",""
"html-keyboard-response","461","1432659","0.0-46.30-2.30","null","","","","","","","null","","","","","","","",""
"image-selector-fb","462","1434332","0.0-46.31-0.31","1169","pics2/SA6.jpg,pics2/SW4.jpg","","","","","","","true","1","","","heartS.png","","",""
"image-slider-2AFC","463","1437699","0.0-46.31-1.31","3365","","","","53","","","","","","","","heartS.png","2525","53",""
"html-keyboard-response","464","1438504","0.0-46.31-2.31","null","","","","","","","null","","","","","","","",""
"image-selector-fb","465","1441510","0.0-46.32-0.32","null","pics2/SA4.jpg,pics2/FR2.jpg","","","","","","","false","null","","","noS.png","","",""
"image-slider-2AFC","466","1444940","0.0-46.32-1.32","3428","","","","-49","","","","","","","","heartS.png","2712","-49",""
"html-keyboard-response","467","1445794","0.0-46.32-2.32","null","","","","","","","null","","","","","","","",""
"image-selector-fb","468","1448807","0.0-46.33-0.33","null","pics2/SW6.jpg,pics2/SW5.jpg","","","","","","","false","null","","","noS.png","","",""
"image-slider-2AFC","469","1451215","0.0-46.33-1.33","2406","","","","48","","","","","","","","heartS.png","1711","48",""
"html-keyboard-response","470","1451970","0.0-46.33-2.33","null","","","","","","","null","","","","","","","",""
"image-selector-fb","471","1454983","0.0-46.34-0.34","null","pics2/SA4.jpg,pics2/SW3.jpg","","","","","","","false","null","","","noS.png","","",""
"image-slider-2AFC","472","1457900","0.0-46.34-1.34","2915","","","","50","","","","","","","","sizeS.png","2041","50",""
"html-keyboard-response","473","1458703","0.0-46.34-2.34","null","","","","","","","null","","","","","","","",""
"image-selector-fb","474","1461715","0.0-46.35-0.35","null","pics2/SA4.jpg,pics2/FR6.jpg","","","","","","","false","null","","","noS.png","","",""
"image-slider-2AFC","475","1465039","0.0-46.35-1.35","3321","","","","38","","","","","","","","sizeS.png","2402","38",""
"html-keyboard-response","476","1465750","0.0-46.35-2.35","null","","","","","","","null","","","","","","","",""
"image-selector-fb","477","1469073","0.0-46.36-0.36","2819","pics2/SA2.jpg,pics2/FR2.jpg","","","","","","","true","1","","","sizeS.png","","",""
"image-slider-2AFC","478","1474076","0.0-46.36-1.36","null","","","","null","","","","","","","","sizeS.png","2260","41",""
"html-keyboard-response","479","1474880","0.0-46.36-2.36","null","","","","","","","null","","","","","","","",""
"image-selector-fb","480","1476969","0.0-46.37-0.37","1584","pics2/SA6.jpg,pics2/SW6.jpg","","","","","","","true","1","","","heartS.png","","",""
"image-slider-2AFC","481","1480006","0.0-46.37-1.37","3035","","","","-32","","","","","","","","sizeS.png","2372","-32",""
"html-keyboard-response","482","1480716","0.0-46.37-2.37","null","","","","","","","null","","","","","","","",""
"image-selector-fb","483","1483721","0.0-46.38-0.38","null","pics2/SW6.jpg,pics2/SW4.jpg","","","","","","","false","null","","","noS.png","","",""
"image-slider-2AFC","484","1486331","0.0-46.38-1.38","2607","","","","51","","","","","","","","heartS.png","1955","51",""
"html-keyboard-response","485","1487192","0.0-46.38-2.38","null","","","","","","","null","","","","","","","",""
"image-selector-fb","486","1489484","0.0-46.39-0.39","1785","pics2/FR6.jpg,pics2/FR1.jpg","","","","","","","true","1","","","heartS.png","","",""
"image-slider-2AFC","487","1492094","0.0-46.39-1.39","2609","","","","32","","","","","","","","heartS.png","1917","32",""
"html-keyboard-response","488","1492953","0.0-46.39-2.39","null","","","","","","","null","","","","","","","",""
"image-selector-fb","489","1495124","0.0-46.40-0.40","1666","pics2/SA4.jpg,pics2/SW6.jpg","","","","","","","true","1","","","sizeS.png","","",""
"image-slider-2AFC","490","1497138","0.0-46.40-1.40","2012","","","","39","","","","","","","","sizeS.png","1364","39",""
"html-keyboard-response","491","1497841","0.0-46.40-2.40","null","","","","","","","null","","","","","","","",""
"image-selector-fb","492","1500855","0.0-46.41-0.41","null","pics2/SA4.jpg,pics2/FR3.jpg","","","","","","","false","null","","","noS.png","","",""
"image-slider-2AFC","493","1503209","0.0-46.41-1.41","2351","","","","-47","","","","","","","","heartS.png","1616","-47",""
"html-keyboard-response","494","1503926","0.0-46.41-2.41","null","","","","","","","null","","","","","","","",""
"image-selector-fb","495","1506075","0.0-46.42-0.42","1644","pics2/SW4.jpg,pics2/SA1.jpg","","","","","","","true","1","","","sizeS.png","","",""
"image-slider-2AFC","496","1508209","0.0-46.42-1.42","2131","","","","38","","","","","","","","sizeS.png","1376","38",""
"html-keyboard-response","497","1508913","0.0-46.42-2.42","null","","","","","","","null","","","","","","","",""
"image-selector-fb","498","1511560","0.0-46.43-0.43","2141","pics2/FR1.jpg,pics2/FR3.jpg","","","","","","","false","0","","","sizeS.png","","",""
"image-slider-2AFC","499","1513789","0.0-46.43-1.43","2227","","","","-38","","","","","","","","sizeS.png","1620","-38",""
"html-keyboard-response","500","1514545","0.0-46.43-2.43","null","","","","","","","null","","","","","","","",""
"image-selector-fb","501","1516110","0.0-46.44-0.44","1058","pics2/SW5.jpg,pics2/SA4.jpg","","","","","","","true","1","","","heartS.png","","",""
"image-slider-2AFC","502","1518537","0.0-46.44-1.44","2425","","","","41","","","","","","","","heartS.png","1690","41",""
"html-keyboard-response","503","1519293","0.0-46.44-2.44","null","","","","","","","null","","","","","","","",""
"image-selector-fb","504","1522304","0.0-46.45-0.45","null","pics2/SA6.jpg,pics2/FR2.jpg","","","","","","","false","null","","","noS.png","","",""
"image-slider-2AFC","505","1525744","0.0-46.45-1.45","3439","","","","-36","","","","","","","","heartS.png","2517","-36",""
"html-keyboard-response","506","1526550","0.0-46.45-2.45","null","","","","","","","null","","","","","","","",""
"image-selector-fb","507","1528703","0.0-46.46-0.46","1649","pics2/FR1.jpg,pics2/SW5.jpg","","","","","","","false","0","","","sizeS.png","","",""
"image-slider-2AFC","508","1531021","0.0-46.46-1.46","2315","","","","-43","","","","","","","","sizeS.png","1473","-43",""
"html-keyboard-response","509","1531776","0.0-46.46-2.46","null","","","","","","","null","","","","","","","",""
"image-selector-fb","510","1534787","0.0-46.47-0.47","null","pics2/SW4.jpg,pics2/FR2.jpg","","","","","","","false","null","","","noS.png","","",""
"image-slider-2AFC","511","1538847","0.0-46.47-1.47","4057","","","","40","","","","","","","","sizeS.png","3289","40",""
"html-keyboard-response","512","1539604","0.0-46.47-2.47","null","","","","","","","null","","","","","","","",""
"image-selector-fb","513","1542616","0.0-46.48-0.48","null","pics2/SA4.jpg,pics2/SW6.jpg","","","","","","","false","null","","","noS.png","","",""
"image-slider-2AFC","514","1544839","0.0-46.48-1.48","2221","","","","-42","","","","","","","","heartS.png","1566","-42",""
"html-keyboard-response","515","1545540","0.0-46.48-2.48","null","","","","","","","null","","","","","","","",""
"image-selector-fb","516","1547261","0.0-46.49-0.49","1217","pics2/FR3.jpg,pics2/FR1.jpg","","","","","","","false","0","","","heartS.png","","",""
"image-slider-2AFC","517","1549107","0.0-46.49-1.49","1844","","","","-43","","","","","","","","heartS.png","1124","-43",""
"html-keyboard-response","518","1549965","0.0-46.49-2.49","null","","","","","","","null","","","","","","","",""
"image-selector-fb","519","1551795","0.0-46.50-0.50","1326","pics2/SW3.jpg,pics2/SA2.jpg","","","","","","","false","0","","","heartS.png","","",""
"image-slider-2AFC","520","1554575","0.0-46.50-1.50","2778","","","","-45","","","","","","","","sizeS.png","1970","-45",""
"html-keyboard-response","521","1555332","0.0-46.50-2.50","null","","","","","","","null","","","","","","","",""
"image-selector-fb","522","1558379","0.0-46.51-0.51","2541","pics2/SW6.jpg,pics2/SA6.jpg","","","","","","","false","0","","","sizeS.png","","",""
"image-slider-2AFC","523","1560646","0.0-46.51-1.51","2265","","","","37","","","","","","","","heartS.png","1558","37",""
"html-keyboard-response","524","1561452","0.0-46.51-2.51","null","","","","","","","null","","","","","","","",""
"image-selector-fb","525","1563398","0.0-46.52-0.52","1442","pics2/SA1.jpg,pics2/SA6.jpg","","","","","","","false","0","","","sizeS.png","","",""
"image-slider-2AFC","526","1565763","0.0-46.52-1.52","2364","","","","37","","","","","","","","heartS.png","1744","37",""
"html-keyboard-response","527","1566472","0.0-46.52-2.52","null","","","","","","","null","","","","","","","",""
"image-selector-fb","528","1569481","0.0-46.53-0.53","null","pics2/SW3.jpg,pics2/FR3.jpg","","","","","","","false","null","","","noS.png","","",""
"image-slider-2AFC","529","1573112","0.0-46.53-1.53","3629","","","","-40","","","","","","","","heartS.png","2989","-40",""
"html-keyboard-response","530","1573869","0.0-46.53-2.53","null","","","","","","","null","","","","","","","",""
"image-selector-fb","531","1575841","0.0-46.54-0.54","1468","pics2/SA6.jpg,pics2/SW3.jpg","","","","","","","true","1","","","heartS.png","","",""
"image-slider-2AFC","532","1578712","0.0-46.54-1.54","2867","","","","41","","","","","","","","sizeS.png","1192,2152","-1,41",""
"html-keyboard-response","533","1579422","0.0-46.54-2.54","null","","","","","","","null","","","","","","","",""
"image-selector-fb","534","1582430","0.0-46.55-0.55","null","pics2/SW4.jpg,pics2/SA6.jpg","","","","","","","false","null","","","noS.png","","",""
"image-slider-2AFC","535","1584900","0.0-46.55-1.55","2468","","","","-64","","","","","","","","heartS.png","1765","-64",""
"html-keyboard-response","536","1585707","0.0-46.55-2.55","null","","","","","","","null","","","","","","","",""
"image-selector-fb","537","1587766","0.0-46.56-0.56","1555","pics2/SA1.jpg,pics2/SW5.jpg","","","","","","","false","0","","","sizeS.png","","",""
"image-slider-2AFC","538","1589912","0.0-46.56-1.56","2143","","","","-44","","","","","","","","sizeS.png","1272","-44",""
"html-keyboard-response","539","1590670","0.0-46.56-2.56","null","","","","","","","null","","","","","","","",""
"image-selector-fb","540","1592422","0.0-46.57-0.57","1248","pics2/FR2.jpg,pics2/SA4.jpg","","","","","","","true","1","","","heartS.png","","",""
"image-slider-2AFC","541","1595051","0.0-46.57-1.57","2627","","","","-48","","","","","","","","sizeS.png","1972","-48",""
"html-keyboard-response","542","1595808","0.0-46.57-2.57","null","","","","","","","null","","","","","","","",""
"image-selector-fb","543","1598445","0.0-46.58-0.58","2134","pics2/SA4.jpg,pics2/SW4.jpg","","","","","","","true","1","","","sizeS.png","","",""
"image-slider-2AFC","544","1600987","0.0-46.58-1.58","2540","","","","75","","","","","","","","heartS.png","1808","75",""
"html-keyboard-response","545","1601840","0.0-46.58-2.58","null","","","","","","","null","","","","","","","",""
"image-selector-fb","546","1603348","0.0-46.59-0.59","999","pics2/SW5.jpg,pics2/SW3.jpg","","","","","","","true","1","","","heartS.png","","",""
"image-slider-2AFC","547","1605799","0.0-46.59-1.59","2449","","","","-50","","","","","","","","sizeS.png","1774","-50",""
"html-keyboard-response","548","1606558","0.0-46.59-2.59","null","","","","","","","null","","","","","","","",""
"image-selector-fb","549","1608197","0.0-46.60-0.60","1134","pics2/SW5.jpg,pics2/FR1.jpg","","","","","","","false","0","","","heartS.png","","",""
"image-slider-2AFC","550","1610435","0.0-46.60-1.60","2234","","","","38","","","","","","","","sizeS.png","1519","38",""
"html-keyboard-response","551","1611287","0.0-46.60-2.60","null","","","","","","","null","","","","","","","",""
"image-selector-fb","552","1613873","0.0-46.61-0.61","2081","pics2/SW4.jpg,pics2/SW5.jpg","","","","","","","true","1","","","sizeS.png","","",""
"image-slider-2AFC","553","1616631","0.0-46.61-1.61","2757","","","","-49","","","","","","","","heartS.png","1926","-49",""
"html-keyboard-response","554","1617340","0.0-46.61-2.61","null","","","","","","","null","","","","","","","",""
"image-selector-fb","555","1620349","0.0-46.62-0.62","null","pics2/SA4.jpg,pics2/SW5.jpg","","","","","","","false","null","","","noS.png","","",""
"image-slider-2AFC","556","1622807","0.0-46.62-1.62","2457","","","","58","","","","","","","","sizeS.png","1821","58",""
"html-keyboard-response","557","1623565","0.0-46.62-2.62","null","","","","","","","null","","","","","","","",""
"image-selector-fb","558","1625254","0.0-46.63-0.63","1184","pics2/SW5.jpg,pics2/SW6.jpg","","","","","","","false","0","","","heartS.png","","",""
"image-slider-2AFC","559","1627748","0.0-46.63-1.63","2493","","","","-61","","","","","","","","sizeS.png","1666","-61",""
"html-keyboard-response","560","1628505","0.0-46.63-2.63","null","","","","","","","null","","","","","","","",""
"image-selector-fb","561","1630179","0.0-46.64-0.64","1170","pics2/FR3.jpg,pics2/FR6.jpg","","","","","","","false","0","","","heartS.png","","",""
"image-slider-2AFC","562","1632657","0.0-46.64-1.64","2476","","","","-41","","","","","","","","heartS.png","1840","-41",""
"html-keyboard-response","563","1633511","0.0-46.64-2.64","null","","","","","","","null","","","","","","","",""
"image-selector-fb","564","1636524","0.0-46.65-0.65","null","pics2/FR6.jpg,pics2/SW5.jpg","","","","","","","false","null","","","noS.png","","",""
"image-slider-2AFC","565","1638894","0.0-46.65-1.65","2368","","","","53","","","","","","","","heartS.png","1584","53",""
"html-keyboard-response","566","1639755","0.0-46.65-2.65","null","","","","","","","null","","","","","","","",""
"pavlovia","567","1639777","0.0-47.0","","","","","","","","","","","","","","","",""
"html-keyboard-response","568","1644781","0.0-48.0","null","<div style='width: 700px;'> <font size=6><b>SHORT BREAK</font></b><br><br><i> Please wait 5 seconds to continue</i></div> ","","","","","","null","","","","","","","",""
"pavlovia","569","1644783","0.0-49.0","","","","","","","","","","","","","","","",""
"html-button-response","570","1655930","0.0-50.0","11145","<div style='width: 700px;'> <font size=6><b>BLOCK 3</font></b><br><br>Press the button whenever you feel ready to start the third and final block</div>","0","","","","","","","","","","","","",""
"image-selector-fb","571","1657839","0.0-51.0-0.0","1400","pics2/SA2.jpg,pics2/FR6.jpg","","","","","","","false","0","","","heartS.png","","",""
"image-slider-2AFC","572","1659950","0.0-51.0-1.0","2110","","","","-54","","","","","","","","heartS.png","1398","-54",""
"html-keyboard-response","573","1660759","0.0-51.0-2.0","null","","","","","","","null","","","","","","","",""
"image-selector-fb","574","1662456","0.0-51.1-0.1","1193","pics2/FR3.jpg,pics2/SW5.jpg","","","","","","","true","1","","","heartS.png","","",""
"image-slider-2AFC","575","1664963","0.0-51.1-1.1","2504","","","","43","","","","","","","","heartS.png","1817","43",""
"html-keyboard-response","576","1665772","0.0-51.1-2.1","null","","","","","","","null","","","","","","","",""
"image-selector-fb","577","1668782","0.0-51.2-0.2","null","pics2/SW4.jpg,pics2/SW5.jpg","","","","","","","false","null","","","noS.png","","",""
"image-slider-2AFC","578","1671412","0.0-51.2-1.2","2627","","","","-49","","","","","","","","heartS.png","1932","-49",""
"html-keyboard-response","579","1672120","0.0-51.2-2.2","null","","","","","","","null","","","","","","","",""
"image-selector-fb","580","1675132","0.0-51.3-0.3","null","pics2/SW6.jpg,pics2/SA1.jpg","","","","","","","false","null","","","noS.png","","",""
"image-slider-2AFC","581","1678472","0.0-51.3-1.3","3336","","","","63","","","","","","","","sizeS.png","2378","63",""
"html-keyboard-response","582","1679326","0.0-51.3-2.3","null","","","","","","","null","","","","","","","",""
"image-selector-fb","583","1682336","0.0-51.4-0.4","null","pics2/FR3.jpg,pics2/SW5.jpg","","","","","","","false","null","","","noS.png","","",""
"image-slider-2AFC","584","1685298","0.0-51.4-1.4","2959","","","","-48","","","","","","","","sizeS.png","2187","-48",""
"html-keyboard-response","585","1686104","0.0-51.4-2.4","null","","","","","","","null","","","","","","","",""
"image-selector-fb","586","1689118","0.0-51.5-0.5","null","pics2/SW4.jpg,pics2/SA2.jpg","","","","","","","false","null","","","noS.png","","",""
"image-slider-2AFC","587","1691647","0.0-51.5-1.5","2527","","","","-49","","","","","","","","sizeS.png","1815","-49",""
"html-keyboard-response","588","1692458","0.0-51.5-2.5","null","","","","","","","null","","","","","","","",""
"image-selector-fb","589","1695282","0.0-51.6-0.6","2320","pics2/FR1.jpg,pics2/SW6.jpg","","","","","","","false","0","","","sizeS.png","","",""
"image-slider-2AFC","590","1697553","0.0-51.6-1.6","2268","","","","-58","","","","","","","","sizeS.png","1464","-58",""
"html-keyboard-response","591","1698411","0.0-51.6-2.6","null","","","","","","","null","","","","","","","",""
"image-selector-fb","592","1700727","0.0-51.7-0.7","1812","pics2/FR3.jpg,pics2/FR2.jpg","","","","","","","false","0","","","heartS.png","","",""
"image-slider-2AFC","593","1703926","0.0-51.7-1.7","3194","","","","-56","","","","","","","","sizeS.png","2399","-56",""
"html-keyboard-response","594","1704629","0.0-51.7-2.7","null","","","","","","","null","","","","","","","",""
"image-selector-fb","595","1706437","0.0-51.8-0.8","1303","pics2/SW5.jpg,pics2/FR3.jpg","","","","","","","true","1","","","sizeS.png","","",""
"image-slider-2AFC","596","1709188","0.0-51.8-1.8","2749","","","","30","","","","","","","","sizeS.png","2042","30",""
"html-keyboard-response","597","1710044","0.0-51.8-2.8","null","","","","","","","null","","","","","","","",""
"image-selector-fb","598","1712162","0.0-51.9-0.9","1614","pics2/SA6.jpg,pics2/FR1.jpg","","","","","","","false","0","","","heartS.png","","",""
"image-slider-2AFC","599","1714250","0.0-51.9-1.9","2085","","","","44","","","","","","","","sizeS.png","1073","44",""
"html-keyboard-response","600","1715007","0.0-51.9-2.9","null","","","","","","","null","","","","","","","",""
"image-selector-fb","601","1716529","0.0-51.10-0.10","1016","pics2/SA1.jpg,pics2/FR2.jpg","","","","","","","false","0","","","sizeS.png","","",""
"image-slider-2AFC","602","1718810","0.0-51.10-1.10","2279","","","","-33","","","","","","","","heartS.png","1639","-33",""
"html-keyboard-response","603","1719613","0.0-51.10-2.10","null","","","","","","","null","","","","","","","",""
"image-selector-fb","604","1721608","0.0-51.11-0.11","1488","pics2/SA2.jpg,pics2/FR1.jpg","","","","","","","false","0","","","heartS.png","","",""
"image-slider-2AFC","605","1723931","0.0-51.11-1.11","2322","","","","-44","","","","","","","","heartS.png","1694","-44",""
"html-keyboard-response","606","1724792","0.0-51.11-2.11","null","","","","","","","null","","","","","","","",""
"image-selector-fb","607","1727148","0.0-51.12-0.12","1850","pics2/SA1.jpg,pics2/FR3.jpg","","","","","","","false","0","","","sizeS.png","","",""
"image-slider-2AFC","608","1730425","0.0-51.12-1.12","3275","","","","-35","","","","","","","","sizeS.png","2655","-35",""
"html-keyboard-response","609","1731281","0.0-51.12-2.12","null","","","","","","","null","","","","","","","",""
"image-selector-fb","610","1732691","0.0-51.13-0.13","902","pics2/SA2.jpg,pics2/SW4.jpg","","","","","","","true","1","","","heartS.png","","",""
"image-slider-2AFC","611","1735942","0.0-51.13-1.13","3250","","","","25","","","","","","","","sizeS.png","2166","25",""
"html-keyboard-response","612","1736648","0.0-51.13-2.13","null","","","","","","","null","","","","","","","",""
"image-selector-fb","613","1739662","0.0-51.14-0.14","null","pics2/SA2.jpg,pics2/FR2.jpg","","","","","","","false","null","","","noS.png","","",""
"image-slider-2AFC","614","1742081","0.0-51.14-1.14","2416","","","","43","","","","","","","","sizeS.png","1737","43",""
"html-keyboard-response","615","1742838","0.0-51.14-2.14","null","","","","","","","null","","","","","","","",""
"image-selector-fb","616","1744427","0.0-51.15-0.15","1085","pics2/FR3.jpg,pics2/SA2.jpg","","","","","","","false","0","","","heartS.png","","",""
"image-slider-2AFC","617","1746790","0.0-51.15-1.15","2360","","","","-35","","","","","","","","sizeS.png","1706","-35",""
"html-keyboard-response","618","1747499","0.0-51.15-2.15","null","","","","","","","null","","","","","","","",""
"image-selector-fb","619","1750506","0.0-51.16-0.16","null","pics2/FR3.jpg,pics2/FR6.jpg","","","","","","","false","null","","","noS.png","","",""
"image-slider-2AFC","620","1753415","0.0-51.16-1.16","2907","","","","-43","","","","","","","","sizeS.png","2275","-43",""
"html-keyboard-response","621","1754124","0.0-51.16-2.16","null","","","","","","","null","","","","","","","",""
"image-selector-fb","622","1755777","0.0-51.17-0.17","1145","pics2/SW6.jpg,pics2/SW4.jpg","","","","","","","true","1","","","heartS.png","","",""
"image-slider-2AFC","623","1758004","0.0-51.17-1.17","2225","","","","66","","","","","","","","heartS.png","1601","66",""
"html-keyboard-response","624","1758765","0.0-51.17-2.17","null","","","","","","","null","","","","","","","",""
"image-selector-fb","625","1761776","0.0-51.18-0.18","null","pics2/SW3.jpg,pics2/SW4.jpg","","","","","","","false","null","","","noS.png","","",""
"image-slider-2AFC","626","1764798","0.0-51.18-1.18","3021","","","","-28","","","","","","","","sizeS.png","2361","-28",""
"html-keyboard-response","627","1765606","0.0-51.18-2.18","null","","","","","","","null","","","","","","","",""
"image-selector-fb","628","1767318","0.0-51.19-0.19","1206","pics2/SW4.jpg,pics2/SA2.jpg","","","","","","","false","0","","","sizeS.png","","",""
"image-slider-2AFC","629","1769992","0.0-51.19-1.19","2672","","","","-29","","","","","","","","sizeS.png","1887","-29",""
"html-keyboard-response","630","1770699","0.0-51.19-2.19","null","","","","","","","null","","","","","","","",""
"image-selector-fb","631","1772488","0.0-51.20-0.20","1284","pics2/SA4.jpg,pics2/SW5.jpg","","","","","","","true","1","","","sizeS.png","","",""
"image-slider-2AFC","632","1775039","0.0-51.20-1.20","2547","","","","34","","","","","","","","sizeS.png","1967","34",""
"html-keyboard-response","633","1775848","0.0-51.20-2.20","null","","","","","","","null","","","","","","","",""
"image-selector-fb","634","1778861","0.0-51.21-0.21","null","pics2/SA2.jpg,pics2/SA1.jpg","","","","","","","false","null","","","noS.png","","",""
"image-slider-2AFC","635","1781524","0.0-51.21-1.21","2660","","","","61","","","","","","","","sizeS.png","2045","61",""
"html-keyboard-response","636","1782377","0.0-51.21-2.21","null","","","","","","","null","","","","","","","",""
"image-selector-fb","637","1785382","0.0-51.22-0.22","null","pics2/SW3.jpg,pics2/FR6.jpg","","","","","","","false","null","","","noS.png","","",""
"image-slider-2AFC","638","1787720","0.0-51.22-1.22","2336","","","","-51","","","","","","","","sizeS.png","1728","-51",""
"html-keyboard-response","639","1788431","0.0-51.22-2.22","null","","","","","","","null","","","","","","","",""
"image-selector-fb","640","1789978","0.0-51.23-0.23","1044","pics2/SA4.jpg,pics2/SA1.jpg","","","","","","","true","1","","","sizeS.png","","",""
"image-slider-2AFC","641","1792093","0.0-51.23-1.23","2113","","","","-59","","","","","","","","heartS.png","1288","-59",""
"html-keyboard-response","642","1792850","0.0-51.23-2.23","null","","","","","","","null","","","","","","","",""
"image-selector-fb","643","1794645","0.0-51.24-0.24","1290","pics2/SA6.jpg,pics2/FR3.jpg","","","","","","","true","1","","","sizeS.png","","",""
"image-slider-2AFC","644","1797301","0.0-51.24-1.24","2655","","","","47","","","","","","","","sizeS.png","2003","47",""
"html-keyboard-response","645","1798154","0.0-51.24-2.24","null","","","","","","","null","","","","","","","",""
"image-selector-fb","646","1801168","0.0-51.25-0.25","null","pics2/SA6.jpg,pics2/SA2.jpg","","","","","","","false","null","","","noS.png","","",""
"image-slider-2AFC","647","1804553","0.0-51.25-1.25","3383","","","","-33","","","","","","","","heartS.png","2664","-33",""
"html-keyboard-response","648","1805358","0.0-51.25-2.25","null","","","","","","","null","","","","","","","",""
"image-selector-fb","649","1807934","0.0-51.26-0.26","2068","pics2/FR3.jpg,pics2/SA4.jpg","","","","","","","true","1","","","heartS.png","","",""
"image-slider-2AFC","650","1811201","0.0-51.26-1.26","3265","","","","-48","","","","","","","","sizeS.png","1403,2306","2,-48",""
"html-keyboard-response","651","1811908","0.0-51.26-2.26","null","","","","","","","null","","","","","","","",""
"image-selector-fb","652","1813348","0.0-51.27-0.27","933","pics2/FR6.jpg,pics2/SW5.jpg","","","","","","","true","1","","","sizeS.png","","",""
"image-slider-2AFC","653","1815359","0.0-51.27-1.27","2009","","","","67","","","","","","","","heartS.png","1225","67",""
"html-keyboard-response","654","1816162","0.0-51.27-2.27","null","","","","","","","null","","","","","","","",""
"image-selector-fb","655","1817820","0.0-51.28-0.28","1155","pics2/FR2.jpg,pics2/FR3.jpg","","","","","","","true","1","","","sizeS.png","","",""
"image-slider-2AFC","656","1820444","0.0-51.28-1.28","2621","","","","75","","","","","","","","heartS.png","1718","75",""
"html-keyboard-response","657","1821250","0.0-51.28-2.28","null","","","","","","","null","","","","","","","",""
"image-selector-fb","658","1822919","0.0-51.29-0.29","1164","pics2/SA4.jpg,pics2/SA6.jpg","","","","","","","true","1","","","sizeS.png","","",""
"image-slider-2AFC","659","1825016","0.0-51.29-1.29","2096","","","","-69","","","","","","","","heartS.png","1336","-69",""
"html-keyboard-response","660","1825822","0.0-51.29-2.29","null","","","","","","","null","","","","","","","",""
"image-selector-fb","661","1828835","0.0-51.30-0.30","null","pics2/FR3.jpg,pics2/SA1.jpg","","","","","","","false","null","","","noS.png","","",""
"image-slider-2AFC","662","1831073","0.0-51.30-1.30","2236","","","","-34","","","","","","","","heartS.png","1641","-34",""
"html-keyboard-response","663","1831934","0.0-51.30-2.30","null","","","","","","","null","","","","","","","",""
"image-selector-fb","664","1833514","0.0-51.31-0.31","1073","pics2/SA2.jpg,pics2/SA4.jpg","","","","","","","true","1","","","heartS.png","","",""
"image-slider-2AFC","665","1836397","0.0-51.31-1.31","2881","","","","27","","","","","","","","sizeS.png","2054","27",""
"html-keyboard-response","666","1837252","0.0-51.31-2.31","null","","","","","","","null","","","","","","","",""
"image-selector-fb","667","1839082","0.0-51.32-0.32","1326","pics2/SW3.jpg,pics2/SW5.jpg","","","","","","","false","0","","","sizeS.png","","",""
"image-slider-2AFC","668","1841280","0.0-51.32-1.32","2196","","","","56","","","","","","","","heartS.png","1480","56",""
"html-keyboard-response","669","1842035","0.0-51.32-2.32","null","","","","","","","null","","","","","","","",""
"image-selector-fb","670","1843910","0.0-51.33-0.33","1371","pics2/SA4.jpg,pics2/FR2.jpg","","","","","","","true","1","","","sizeS.png","","",""
"image-slider-2AFC","671","1845916","0.0-51.33-1.33","2004","","","","-62","","","","","","","","heartS.png","1193","-62",""
"html-keyboard-response","672","1846721","0.0-51.33-2.33","null","","","","","","","null","","","","","","","",""
"image-selector-fb","673","1848705","0.0-51.34-0.34","1480","pics2/SA1.jpg,pics2/SW6.jpg","","","","","","","false","0","","","sizeS.png","","",""
"image-slider-2AFC","674","1850655","0.0-51.34-1.34","1945","","","","-48","","","","","","","","sizeS.png","974","-48",""
"html-keyboard-response","675","1851357","0.0-51.34-2.34","null","","","","","","","null","","","","","","","",""
"image-selector-fb","676","1852933","0.0-51.35-0.35","1071","pics2/FR6.jpg,pics2/SW4.jpg","","","","","","","true","1","","","heartS.png","","",""
"image-slider-2AFC","677","1855739","0.0-51.35-1.35","2803","","","","41","","","","","","","","sizeS.png","1584","41",""
"html-keyboard-response","678","1856544","0.0-51.35-2.35","null","","","","","","","null","","","","","","","",""
"image-selector-fb","679","1857984","0.0-51.36-0.36","936","pics2/SW3.jpg,pics2/FR2.jpg","","","","","","","false","0","","","sizeS.png","","",""
"image-slider-2AFC","680","1859927","0.0-51.36-1.36","1940","","","","-45","","","","","","","","sizeS.png","1257","-45",""
"html-keyboard-response","681","1860684","0.0-51.36-2.36","null","","","","","","","null","","","","","","","",""
"image-selector-fb","682","1862205","0.0-51.37-0.37","1016","pics2/SA2.jpg,pics2/SW5.jpg","","","","","","","true","1","","","sizeS.png","","",""
"image-slider-2AFC","683","1864186","0.0-51.37-1.37","1979","","","","76","","","","","","","","heartS.png","1175","76",""
"html-keyboard-response","684","1865040","0.0-51.37-2.37","null","","","","","","","null","","","","","","","",""
"image-selector-fb","685","1866416","0.0-51.38-0.38","873","pics2/FR1.jpg,pics2/SA6.jpg","","","","","","","false","0","","","sizeS.png","","",""
"image-slider-2AFC","686","1869110","0.0-51.38-1.38","2692","","","","42","","","","","","","","heartS.png","1888","42",""
"html-keyboard-response","687","1869913","0.0-51.38-2.38","null","","","","","","","null","","","","","","","",""
"image-selector-fb","688","1871772","0.0-51.39-0.39","1355","pics2/SA4.jpg,pics2/FR6.jpg","","","","","","","true","1","","","sizeS.png","","",""
"image-slider-2AFC","689","1873738","0.0-51.39-1.39","1964","","","","47","","","","","","","","sizeS.png","1273","47",""
"html-keyboard-response","690","1874592","0.0-51.39-2.39","null","","","","","","","null","","","","","","","",""
"image-selector-fb","691","1876680","0.0-51.40-0.40","1582","pics2/SW3.jpg,pics2/SA4.jpg","","","","","","","true","1","","","heartS.png","","",""
"image-slider-2AFC","692","1879598","0.0-51.40-1.40","2916","","","","-56","","","","","","","","sizeS.png","2052","-56",""
"html-keyboard-response","693","1880403","0.0-51.40-2.40","null","","","","","","","null","","","","","","","",""
"image-selector-fb","694","1881870","0.0-51.41-0.41","961","pics2/SW6.jpg,pics2/FR2.jpg","","","","","","","true","1","","","sizeS.png","","",""
"image-slider-2AFC","695","1884402","0.0-51.41-1.41","2528","","","","-45","","","","","","","","heartS.png","1705","-45",""
"html-keyboard-response","696","1885110","0.0-51.41-2.41","null","","","","","","","null","","","","","","","",""
"image-selector-fb","697","1888119","0.0-51.42-0.42","null","pics2/SW4.jpg,pics2/FR6.jpg","","","","","","","false","null","","","noS.png","","",""
"image-slider-2AFC","698","1891537","0.0-51.42-1.42","3416","","","","-64","","","","","","","","heartS.png","2661","-64",""
"html-keyboard-response","699","1892298","0.0-51.42-2.42","null","","","","","","","null","","","","","","","",""
"image-selector-fb","700","1894355","0.0-51.43-0.43","1549","pics2/SA1.jpg,pics2/FR1.jpg","","","","","","","false","0","","","heartS.png","","",""
"image-slider-2AFC","701","1896590","0.0-51.43-1.43","2233","","","","-49","","","","","","","","sizeS.png","1617","-49",""
"html-keyboard-response","702","1897447","0.0-51.43-2.43","null","","","","","","","null","","","","","","","",""
"image-selector-fb","703","1899004","0.0-51.44-0.44","1052","pics2/SW6.jpg,pics2/SA4.jpg","","","","","","","true","1","","","heartS.png","","",""
"image-slider-2AFC","704","1901259","0.0-51.44-1.44","2251","","","","64","","","","","","","","heartS.png","1391","64",""
"html-keyboard-response","705","1902115","0.0-51.44-2.44","null","","","","","","","null","","","","","","","",""
"image-selector-fb","706","1903770","0.0-51.45-0.45","1150","pics2/SW4.jpg,pics2/FR6.jpg","","","","","","","false","0","","","sizeS.png","","",""
"image-slider-2AFC","707","1905721","0.0-51.45-1.45","1948","","","","-63","","","","","","","","heartS.png","1120","-63",""
"html-keyboard-response","708","1906579","0.0-51.45-2.45","null","","","","","","","null","","","","","","","",""
"image-selector-fb","709","1908119","0.0-51.46-0.46","1036","pics2/SW6.jpg,pics2/SA1.jpg","","","","","","","true","1","","","heartS.png","","",""
