"trial_type","trial_index","time_elapsed","internal_node_id","rt","stimulus","button_pressed","success","response","cat","value","key_press","correct","image_click","first_click_rt","first_click_val","symbol","all_click_rt","all_click_val","view_history"
"pavlovia","0","9","0.0-0.0","","","","","","","","","","","","","","","",""
"html-button-response","1","7504","0.0-1.0","7493","<div style='width: 700px; font-size: 150%'><font size='40'>  Welcome to our study!</font><br><br><br> <small> Our experiment is about <i>decision making</i>. You will choose and rate different food items, such as these: <br><br> <div><img src='food_combo2.png', height = '400px'></img></div>","0","","","","","","","","","","","","",""
"html-button-response","2","17449","0.0-2.0","9944","<div style='width: 700px; font-size: 150%'><br><br><br><small> <u><i>This is a multi-part study.</i></u><br><br> In the first part you will rate 24 food items twice.<br><br><div><img src=""rat1.png"" style=""width: 25%""></img></div><br>In the second part (longest) you will make repeated choices and judgements concerning the food items.<br><br><div><img src=""mainx.png"" style=""width: 50%""></img></div><br>In the third and final part, you will rate the items again and answer few short questionnaires.<br><br><div><img src=""rat2.png"" style=""width: 50%""></img></div><br><br>","0","","","","","","","","","","","","",""
"fullscreen","3","23681","0.0-3.0","","","","true","","","","","","","","","","","",""
"html-button-response","4","72833","0.0-4.0","49148","<div style='width: 900px; font-size: 150%;' <font size='20%'> In the first part of the task you will use the mouse to rate food items on <i>2 scales</i> </font></div><br><br><div style='width: 900px'><div style='float: left; width: 50%; margin-right:2.5em'><img src='heartS.png'></img><p class='small' style='text-align: justify'>When you see the heart cue you will rate food items in terms of how much like them/would like to eat them <i>right now</i>. You will rate them on a continuous scale from left (strong dislike) to right (strong liking). Before submitting your rating, try imagining how the item tastes and how much you desire it.<br><br></p></div><div ><img src='sizeS.png'></img><p class='small' style='text-align: justify'>When you see the size cue, you will rate the same food items in terms of their size. The scale goes from left (tiny) to right (very large). You should assess picture size <i><u>relative</i></u> to the white background. <b>Remember:</b> rate the size of the picture, <u>not</u> the size of the item in real life. </p></div><div style='width: 900px'><br><br><b><i>Notice:</b> by starting the rating you agree that your sumbission might be rejected at an early stage and the experiment might end, if your size ratings are not at least modestly related to objective sizes, or if you repeat the same value ratings too many times. If you don't agree, please exit by closing the browser window. </i><br><br><br>","0","","","","","","","","","","","","",""
"html-button-response","5","87562","0.0-5.0","14725","<div><img src='heartS.png'></img></div><br><div style='text-align: justify; width: 700px'>Using the mouse, rate the <b><i>likeness</b></i> of the food items (how much you like them/would like to eat them <i>right now</i>). Far right-end of the scale indicates an item you <i>like a lot</i>. Far left-end indicates an item you <i>dislike a lot</i>. Think about each answer.   <ul><li>Try <b><i>not</b></i> to give identical rating to different items.</li><li>Use the whole scale, and <b><i>not</b></i> just the extremes</ul></div><br>","0","","","","","","","","","","","","",""
"image-slider-response","6","95751","0.0-6.0-0.0-0.0","8183","pics2/VE4.jpg","","","59","VE","","","","","","","","","",""
"image-slider-response","7","100178","0.0-6.0-0.0-0.1","4222","pics2/SA3.jpg","","","96","SA","","","","","","","","","",""
"image-slider-response","8","105062","0.0-6.0-0.0-0.2","4679","pics2/SW2.jpg","","","99","SW","","","","","","","","","",""
"image-slider-response","9","110913","0.0-6.0-0.0-0.3","5646","pics2/SA1.jpg","","","84","SA","","","","","","","","","",""
"image-slider-response","10","114162","0.0-6.0-0.0-0.4","3046","pics2/SW4.jpg","","","100","SW","","","","","","","","","",""
"image-slider-response","11","118552","0.0-6.0-0.0-0.5","4185","pics2/VE1.jpg","","","31","VE","","","","","","","","","",""
"image-slider-response","12","123564","0.0-6.0-0.0-0.6","4806","pics2/VE6.jpg","","","81","VE","","","","","","","","","",""
"image-slider-response","13","128495","0.0-6.0-0.0-0.7","4728","pics2/VE3.jpg","","","29","VE","","","","","","","","","",""
"image-slider-response","14","131766","0.0-6.0-0.0-0.8","3065","pics2/SW5.jpg","","","86","SW","","","","","","","","","",""
"image-slider-response","15","137363","0.0-6.0-0.0-0.9","5393","pics2/FR6.jpg","","","57","FR","","","","","","","","","",""
"image-slider-response","16","140682","0.0-6.0-0.0-0.10","3116","pics2/FR4.jpg","","","63","FR","","","","","","","","","",""
"image-slider-response","17","144116","0.0-6.0-0.0-0.11","3230","pics2/FR2.jpg","","","63","FR","","","","","","","","","",""
"image-slider-response","18","147534","0.0-6.0-0.0-0.12","3214","pics2/FR3.jpg","","","65","FR","","","","","","","","","",""
"image-slider-response","19","153650","0.0-6.0-0.0-0.13","5910","pics2/SA4.jpg","","","78","SA","","","","","","","","","",""
"image-slider-response","20","158485","0.0-6.0-0.0-0.14","4632","pics2/FR1.jpg","","","59","FR","","","","","","","","","",""
"image-slider-response","21","162131","0.0-6.0-0.0-0.15","3442","pics2/SW1.jpg","","","94","SW","","","","","","","","","",""
"image-slider-response","22","168182","0.0-6.0-0.0-0.16","5846","pics2/VE5.jpg","","","55","VE","","","","","","","","","",""
"image-slider-response","23","174165","0.0-6.0-0.0-0.17","5780","pics2/SW3.jpg","","","100","SW","","","","","","","","","",""
"image-slider-response","24","177432","0.0-6.0-0.0-0.18","3061","pics2/SA6.jpg","","","80","SA","","","","","","","","","",""
"image-slider-response","25","183451","0.0-6.0-0.0-0.19","5816","pics2/SA2.jpg","","","59","SA","","","","","","","","","",""
"image-slider-response","26","186435","0.0-6.0-0.0-0.20","2775","pics2/VE2.jpg","","","32","VE","","","","","","","","","",""
"image-slider-response","27","189216","0.0-6.0-0.0-0.21","2578","pics2/SW6.jpg","","","87","SW","","","","","","","","","",""
"image-slider-response","28","194268","0.0-6.0-0.0-0.22","4847","pics2/SA5.jpg","","","68","SA","","","","","","","","","",""
"image-slider-response","29","197066","0.0-6.0-0.0-0.23","2594","pics2/FR5.jpg","","","43","FR","","","","","","","","","",""
"html-button-response","30","198700","0.0-7.0","1431","<div style='width: 900px;'> <font size = 6><b> End of the first rating</b><br><br>","0","","","","","","","","","","","","",""
"html-button-response","31","228373","0.0-9.0","29668","<div ><img src='sizeS.png'></img></div><br><div style='text-align: justify; width: 700px'> Using the mouse, rate the <b><i>size</b></i> of the food items <b><i> relative to the white background.</b></i> Right-end of the scale indicates a <i>very large item</i>, which covers a large portion of the white rectangle. Left-end indicates a <i>very tiny</i> item which covers a tiny portion of the white rectangle.<br><br><i><u>Remember</i></u>: everything that is not the white background also contributes to item size (e.g. packing, plates, ect.)<br><br> Please keep in mind that if the accuracy of ratings do not allign well with actual sizes, the experiment will end.  As a result it will be consider incomplete and therefore no payment would be made. Good luck!<br><br></div><br>","0","","","","","","","","","","","","",""
"html-button-response","32","233818","0.0-10.0","5442","<div ><img src='sizeS.png'></img></div><br><b><font size=6>Examples of items that you might encounter</b><br><div style='width: 750px;'><div style='width: 33.33%; float:left'><br><br><br><i>Large Item</i><br><br><img src='large.jpg', width=200px></img></div><div style='float:right'><br><br><br><i>Small Item</i><br><br><img src='small.jpg', width=200px></img></div><div ><br><br><br><i>Medium Item</i><br><br><img src='med.jpg', width=200px></img></div></div><br><br>","0","","","","","","","","","","","","",""
"image-slider-response","33","241019","0.0-11.0-0.0-0.0","7198","pics2/FR1.jpg","","","88","null","","","","","","","","","",""
"image-slider-response","34","247336","0.0-11.0-0.0-0.1","6112","pics2/FR6.jpg","","","64","null","","","","","","","","","",""
"image-slider-response","35","253822","0.0-11.0-0.0-0.2","6281","pics2/SA2.jpg","","","60","null","","","","","","","","","",""
"image-slider-response","36","264155","0.0-11.0-0.0-0.3","10131","pics2/SW2.jpg","","","97","null","","","","","","","","","",""
"image-slider-response","37","267904","0.0-11.0-0.0-0.4","3544","pics2/SW5.jpg","","","86","null","","","","","","","","","",""
"image-slider-response","38","272543","0.0-11.0-0.0-0.5","4434","pics2/SW3.jpg","","","85","null","","","","","","","","","",""
"image-slider-response","39","277590","0.0-11.0-0.0-0.6","4841","pics2/VE6.jpg","","","68","null","","","","","","","","","",""
"image-slider-response","40","281155","0.0-11.0-0.0-0.7","3361","pics2/VE1.jpg","","","73","null","","","","","","","","","",""
"image-slider-response","41","286388","0.0-11.0-0.0-0.8","5029","pics2/VE3.jpg","","","80","null","","","","","","","","","",""
"image-slider-response","42","300574","0.0-11.0-0.0-0.9","13982","pics2/SW1.jpg","","","86","null","","","","","","","","","",""
"image-slider-response","43","305741","0.0-11.0-0.0-0.10","4963","pics2/FR5.jpg","","","52","null","","","","","","","","","",""
"image-slider-response","44","315825","0.0-11.0-0.0-0.11","9881","pics2/FR4.jpg","","","74","null","","","","","","","","","",""
"image-slider-response","45","319723","0.0-11.0-0.0-0.12","3693","pics2/FR3.jpg","","","73","null","","","","","","","","","",""
"image-slider-response","46","323773","0.0-11.0-0.0-0.13","3845","pics2/SW6.jpg","","","65","null","","","","","","","","","",""
"image-slider-response","47","327506","0.0-11.0-0.0-0.14","3529","pics2/SA3.jpg","","","73","null","","","","","","","","","",""
"image-slider-response","48","332021","0.0-11.0-0.0-0.15","4311","pics2/FR2.jpg","","","84","null","","","","","","","","","",""
"image-slider-response","49","335990","0.0-11.0-0.0-0.16","3764","pics2/SA6.jpg","","","72","null","","","","","","","","","",""
"image-slider-response","50","340627","0.0-11.0-0.0-0.17","4432","pics2/SW4.jpg","","","78","null","","","","","","","","","",""
"image-slider-response","51","344093","0.0-11.0-0.0-0.18","3261","pics2/VE2.jpg","","","74","null","","","","","","","","","",""
"image-slider-response","52","349577","0.0-11.0-0.0-0.19","5280","pics2/SA4.jpg","","","43","null","","","","","","","","","",""
"image-slider-response","53","354609","0.0-11.0-0.0-0.20","4822","pics2/SA1.jpg","","","94","null","","","","","","","","","",""
"image-slider-response","54","358376","0.0-11.0-0.0-0.21","3562","pics2/VE4.jpg","","","72","null","","","","","","","","","",""
"image-slider-response","55","361510","0.0-11.0-0.0-0.22","2930","pics2/VE5.jpg","","","57","null","","","","","","","","","",""
"image-slider-response","56","366993","0.0-11.0-0.0-0.23","5279","pics2/SA5.jpg","","","40","null","","","","","","","","","",""
"html-button-response","57","368826","0.0-12.0","1631","<div style='width: 900px;'> <font size = 6><b> End of the second rating</b><br><br>","0","","","","","","","","","","","","",""
"html-button-response","58","374025","0.0-13.0","5196","<div style='width: 900px;'>Now please rate the items for the second time. <br><br>This is not a memory test - you don't need to be consistent with your previous ratings. Just as before, try to make accurate judgements.<br><br>","0","","","","","","","","","","","","",""
"html-button-response","59","380844","0.0-14.0","6815","<div><img src='heartS.png'></img></div><br><div style='text-align: justify; width: 700px'>Using the mouse, rate the <b><i>likeness</b></i> of the food items (how much you like them/would like to eat them <i>right now</i>). Far right-end of the scale indicates an item you <i>like a lot</i>. Far left-end indicates an item you <i>dislike a lot</i>. Think about each answer.   <ul><li>Try <b><i>not</b></i> to give identical rating to different items.</li><li>Use the whole scale, and <b><i>not</b></i> just the extremes</ul></div><br>","0","","","","","","","","","","","","",""
"image-slider-response","60","400715","0.0-15.0-0.0-0.0","19868","pics2/SW1.jpg","","","87","SW","","","","","","","","","",""
"image-slider-response","61","406327","0.0-15.0-0.0-0.1","5406","pics2/SA5.jpg","","","63","SA","","","","","","","","","",""
"image-slider-response","62","409229","0.0-15.0-0.0-0.2","2697","pics2/VE3.jpg","","","39","VE","","","","","","","","","",""
"image-slider-response","63","414163","0.0-15.0-0.0-0.3","4729","pics2/FR5.jpg","","","40","FR","","","","","","","","","",""
"image-slider-response","64","417445","0.0-15.0-0.0-0.4","3078","pics2/SA6.jpg","","","83","SA","","","","","","","","","",""
"image-slider-response","65","420495","0.0-15.0-0.0-0.5","2845","pics2/VE2.jpg","","","34","VE","","","","","","","","","",""
"image-slider-response","66","422999","0.0-15.0-0.0-0.6","2300","pics2/SW4.jpg","","","100","SW","","","","","","","","","",""
"image-slider-response","67","426381","0.0-15.0-0.0-0.7","3175","pics2/SW6.jpg","","","80","SW","","","","","","","","","",""
"image-slider-response","68","429080","0.0-15.0-0.0-0.8","2492","pics2/SA4.jpg","","","84","SA","","","","","","","","","",""
"image-slider-response","69","431943","0.0-15.0-0.0-0.9","2658","pics2/SW5.jpg","","","79","SW","","","","","","","","","",""
"image-slider-response","70","435362","0.0-15.0-0.0-0.10","3214","pics2/FR3.jpg","","","65","FR","","","","","","","","","",""
"image-slider-response","71","438646","0.0-15.0-0.0-0.11","3079","pics2/SA3.jpg","","","96","SA","","","","","","","","","",""
"image-slider-response","72","441662","0.0-15.0-0.0-0.12","2812","pics2/FR2.jpg","","","59","FR","","","","","","","","","",""
"image-slider-response","73","444396","0.0-15.0-0.0-0.13","2530","pics2/FR4.jpg","","","66","FR","","","","","","","","","",""
"image-slider-response","74","448213","0.0-15.0-0.0-0.14","3612","pics2/VE6.jpg","","","69","VE","","","","","","","","","",""
"image-slider-response","75","452546","0.0-15.0-0.0-0.15","4128","pics2/SW2.jpg","","","98","SW","","","","","","","","","",""
"image-slider-response","76","455563","0.0-15.0-0.0-0.16","2812","pics2/SA2.jpg","","","66","SA","","","","","","","","","",""
"image-slider-response","77","458447","0.0-15.0-0.0-0.17","2679","pics2/SA1.jpg","","","79","SA","","","","","","","","","",""
"image-slider-response","78","462997","0.0-15.0-0.0-0.18","4345","pics2/VE1.jpg","","","36","VE","","","","","","","","","",""
"image-slider-response","79","465597","0.0-15.0-0.0-0.19","2396","pics2/SW3.jpg","","","100","SW","","","","","","","","","",""
"image-slider-response","80","469098","0.0-15.0-0.0-0.20","3292","pics2/VE5.jpg","","","57","VE","","","","","","","","","",""
"image-slider-response","81","472031","0.0-15.0-0.0-0.21","2728","pics2/VE4.jpg","","","57","VE","","","","","","","","","",""
"image-slider-response","82","475114","0.0-15.0-0.0-0.22","2879","pics2/FR1.jpg","","","56","FR","","","","","","","","","",""
"image-slider-response","83","479615","0.0-15.0-0.0-0.23","4295","pics2/FR6.jpg","","","55","FR","","","","","","","","","",""
"call-function","84","479831","0.0-16.0","","","","","","","","","","","","","","","",""
"call-function","85","479836","0.0-17.0","","","","","","","","","","","","","","","",""
"html-button-response","86","481031","0.0-18.0","1193","<div style='width: 900px;'> <font size = 6><b> End of the first rating</b><br><br>","0","","","","","","","","","","","","",""
"html-button-response","87","482633","0.0-19.0","1598","<div ><img src='sizeS.png'></img></div><br><div style='text-align: justify; width: 700px'> Using the mouse, rate the <b><i>size</b></i> of the food items <b><i> relative to the white background.</b></i> Right-end of the scale indicates a <i>very large item</i>, which covers a large portion of the white rectangle. Left-end indicates a <i>very tiny</i> item which covers a tiny portion of the white rectangle.<br><br><i><u>Remember</i></u>: everything that is not the white background also contributes to item size (e.g. packing, plates, ect.)<br><br> Please keep in mind that if the accuracy of ratings do not allign well with actual sizes, the experiment will end.  As a result it will be consider incomplete and therefore no payment would be made. Good luck!<br><br></div><br>","0","","","","","","","","","","","","",""
"image-slider-response","88","489733","0.0-20.0-0.0-0.0","7095","pics2/FR3.jpg","","","64","null","","","","","","","","","",""
"image-slider-response","89","492515","0.0-20.0-0.0-0.1","2577","pics2/SA6.jpg","","","65","null","","","","","","","","","",""
"image-slider-response","90","495386","0.0-20.0-0.0-0.2","2663","pics2/FR1.jpg","","","58","null","","","","","","","","","",""
"image-slider-response","91","500817","0.0-20.0-0.0-0.3","5227","pics2/SW6.jpg","","","57","null","","","","","","","","","",""
"image-slider-response","92","503615","0.0-20.0-0.0-0.4","2593","pics2/SW5.jpg","","","82","null","","","","","","","","","",""
"image-slider-response","93","507368","0.0-20.0-0.0-0.5","3548","pics2/SW1.jpg","","","95","null","","","","","","","","","",""
"image-slider-response","94","510334","0.0-20.0-0.0-0.6","2762","pics2/SW2.jpg","","","95","null","","","","","","","","","",""
"image-slider-response","95","513099","0.0-20.0-0.0-0.7","2563","pics2/VE6.jpg","","","66","null","","","","","","","","","",""
"image-slider-response","96","515950","0.0-20.0-0.0-0.8","2646","pics2/SA1.jpg","","","95","null","","","","","","","","","",""
"image-slider-response","97","520068","0.0-20.0-0.0-0.9","3913","pics2/FR2.jpg","","","88","null","","","","","","","","","",""
"image-slider-response","98","525006","0.0-20.0-0.0-0.10","4729","pics2/SA2.jpg","","","50","null","","","","","","","","","",""
"image-slider-response","99","528667","0.0-20.0-0.0-0.11","3456","pics2/VE2.jpg","","","86","null","","","","","","","","","",""
"image-slider-response","100","535684","0.0-20.0-0.0-0.12","6813","pics2/VE1.jpg","","","95","null","","","","","","","","","",""
"image-slider-response","101","543236","0.0-20.0-0.0-0.13","7348","pics2/VE3.jpg","","","82","null","","","","","","","","","",""
"image-slider-response","102","547035","0.0-20.0-0.0-0.14","3594","pics2/SA3.jpg","","","77","null","","","","","","","","","",""
"image-slider-response","103","552237","0.0-20.0-0.0-0.15","4998","pics2/SA4.jpg","","","54","null","","","","","","","","","",""
"image-slider-response","104","555219","0.0-20.0-0.0-0.16","2778","pics2/SA5.jpg","","","42","null","","","","","","","","","",""
"image-slider-response","105","557820","0.0-20.0-0.0-0.17","2398","pics2/VE4.jpg","","","53","null","","","","","","","","","",""
"image-slider-response","106","560902","0.0-20.0-0.0-0.18","2877","pics2/FR6.jpg","","","57","null","","","","","","","","","",""
"image-slider-response","107","565771","0.0-20.0-0.0-0.19","4664","pics2/SW4.jpg","","","75","null","","","","","","","","","",""
"image-slider-response","108","569986","0.0-20.0-0.0-0.20","4008","pics2/SW3.jpg","","","86","null","","","","","","","","","",""
"image-slider-response","109","572950","0.0-20.0-0.0-0.21","2760","pics2/FR4.jpg","","","87","null","","","","","","","","","",""
"image-slider-response","110","575553","0.0-20.0-0.0-0.22","2400","pics2/FR5.jpg","","","60","null","","","","","","","","","",""
"image-slider-response","111","578502","0.0-20.0-0.0-0.23","2745","pics2/VE5.jpg","","","65","null","","","","","","","","","",""
"call-function","112","578714","0.0-21.0","","","","","","","","","","","","","","","",""
"html-button-response","113","579952","0.0-22.0","1237","<div style='width: 900px;'> <font size = 6><b> End of the second rating</b><br><br>","0","","","","","","","","","","","","",""
"pavlovia","114","579970","0.0-23.0","","","","","","","","","","","","","","","",""
"html-keyboard-response","115","584975","0.0-24.0","null","<div style='width: 700px;'> <font size=6><b>SHORT BREAK</font></b><br><br><i> Please wait 5 seconds to continue</i></div> ","","","","","","null","","","","","","","",""
"pavlovia","116","584977","0.0-25.0","","","","","","","","","","","","","","","",""
"html-button-response","117","605077","0.0-26.0","20097","<div style='width: 700px;'>In the main part of the study, you will be choosing between 2 items. When it's time to choose,  this symbol will appear: <br><br><img src='chooseS.png'></img><br><br>Below, a cue will signify the type of choice: </div><br><div style='width: 700px;'><div style='float: left; width: 50%'><img src='heartS.png'></img><p class='small'>Heart cue means you should choose the item you <b><i>prefer</b></i> more.</p></div><div class='float: right; width:50%'><img src='sizeS.png'></img><p class='small'>Size cue means you should choose the <b><i>larger</b></i> item. </p></div></div><br><div style='width: 700px;'>When you click, a green square will appear around the item you chose.<br></div><div><br>","0","","","","","","","","","","","","",""
"image-selector-fb-tut","118","612239","0.0-27.0","6153","0232.jpg,0123.jpg","","","","","","","false","0","","","","","",""
"image-selector-fb-tut","119","617191","0.0-28.0","3945","0232.jpg,0123.jpg","","","","","","","false","0","","","","","",""
"html-button-response","120","623872","0.0-29.0","6677","<div style='width: 900px;'>Your choices should be both <b><i>fast and accurate</b></i>. <br><br>You will have <i>4 seconds</i> to make each choice, which should be enough consider the options and click on one of the items.<br><br>","0","","","","","","","","","","","","",""
"html-button-response","121","630189","0.0-30.0","6316","<div style='width: 900px;'>Additionally, on some choice trials you will see the <b><i>no-choice cue</b></i>: <br><br><img src='noS.png'></img> <br><br>This cue means you can't make any choice. You can examine the items, but  can't click on any of them. Just wait patiently for the cue to dissapear.<br><br>","0","","","","","","","","","","","","",""
"image-selector-fb-tut","122","632200","0.0-31.0","null","0232.jpg,0123.jpg","","","","","","","false","null","","","","","",""
"html-button-response","123","653112","0.0-32.0","20909","<div style='width: 900px;'>After each choice the items will remain on the screen and you will see this symbol: <br><br><img src='judgeS.png'></img> <br><br>This means you should rate<b> the magnitude of the difference</b> between the items using a scale: </div><br><div style='width: 900px; '><div style='float: left; width: 50%; margin-right: 2.5em; align-self:left'><img src='heartS.png'></img><p class='small' style = 'text-align: justify;'>Heart cue means you should rate <b>how much you prefer</b> one of the items over the other. Moving the scale indicator to the left means you prefer the left one; moving it to the right - right one. The more you prefer one of them, the more towards that side you should move the scale indicator. </p></div><div class='float: right; width: 50%; margin-left: 2.5em;'><img src='sizeS.png'></img><p class='small' style='text-align: justify'>Size cue means you should rate <b>how much larger</b> is one of the items over the other. Moving the scale indicator to the left means you think the left is larger; moving it to the right - right one. The greater the difference in size, the more towards that side you should move the scale indicator.</div><br>","0","","","","","","","","","","","","",""
"image-slider-2AFC-tut","124","662409","0.0-33.0","9289","","","","25","","","","","","","","","","",""
"image-slider-2AFC-tut","125","674429","0.0-34.0","12015","","","","17","","","","","","","","","","",""
"html-button-response","126","690242","0.0-35.0","15811","<br><br><font size = 36><b> Examples </b></font><br><br><i> 1) I would like to eat some croissants a <b>lot more</b> than doritos right now:</i><br><img src='ex1.PNG', width='62%'></img><br><br><br><i> 2) I would like to eat some doritos a <b>bit more</b> than croissants right now, but just slightly:</i><br><img src='ex2.PNG' width='62%'></img>","0","","","","","","","","","","","","",""
"html-button-response","127","693342","0.0-36.0","3098","<div style='width: 900px;'><i>Now you know everything you need to do the task!</i> <br><br>Let's start by doing a <b>short training</b>, so you'll get used to how it works. </div><br>","0","","","","","","","","","","","","",""
"image-selector-fb","128","697852","0.0-37.0-0.0","null","pics2/SA2.jpg,pics2/VE2.jpg","","","","","","","false","null","","","sizeS.png","","",""
"image-slider-2AFC","129","697855","0.0-37.0-1.0","null","","","","null","","","","","","","","sizeS.png","","",""
"html-keyboard-response","130","698559","0.0-37.0-2.0","null","","","","","","","null","","","","","","","",""
"image-selector-fb","131","701093","0.0-37.1-0.1","2025","pics2/SA2.jpg,pics2/VE1.jpg","","","","","","","false","0","","","sizeS.png","","",""
"image-slider-2AFC","132","706103","0.0-37.1-1.1","null","","","","null","","","","","","","","heartS.png","","",""
"html-keyboard-response","133","706907","0.0-37.1-2.1","null","","","","","","","null","","","","","","","",""
"image-selector-fb","134","711309","0.0-37.2-0.2","3894","pics2/VE3.jpg,pics2/FR1.jpg","","","","","","","true","1","","","heartS.png","","",""
"image-slider-2AFC","135","716314","0.0-37.2-1.2","null","","","","null","","","","","","","","sizeS.png","","",""
"html-keyboard-response","136","717118","0.0-37.2-2.2","null","","","","","","","null","","","","","","","",""
"image-selector-fb","137","720127","0.0-37.3-0.3","null","pics2/FR1.jpg,pics2/VE1.jpg","","","","","","","false","null","","","noS.png","","",""
"image-slider-2AFC","138","725136","0.0-37.3-1.3","null","","","","null","","","","","","","","heartS.png","","",""
"html-keyboard-response","139","725942","0.0-37.3-2.3","null","","","","","","","null","","","","","","","",""
"image-selector-fb","140","729330","0.0-37.4-0.4","2880","pics2/VE3.jpg,pics2/VE1.jpg","","","","","","","true","1","","","heartS.png","","",""
"image-slider-2AFC","141","732830","0.0-37.4-1.4","3496","","","","57","","","","","","","","heartS.png","1616","57",""
"html-keyboard-response","142","733683","0.0-37.4-2.4","null","","","","","","","null","","","","","","","",""
"image-selector-fb","143","736529","0.0-37.5-0.5","2338","pics2/SA2.jpg,pics2/VE3.jpg","","","","","","","false","0","","","sizeS.png","","",""
"image-slider-2AFC","144","741130","0.0-37.5-1.5","4597","","","","-57","","","","","","","","heartS.png","3567","-57",""
"html-keyboard-response","145","741934","0.0-37.5-2.5","null","","","","","","","null","","","","","","","",""
"image-selector-fb","146","746099","0.0-37.6-0.6","3658","pics2/FR3.jpg,pics2/FR1.jpg","","","","","","","false","0","","","heartS.png","","",""
"image-slider-2AFC","147","749530","0.0-37.6-1.6","3426","","","","-67","","","","","","","","heartS.png","2413","-67",""
"html-keyboard-response","148","750234","0.0-37.6-2.6","null","","","","","","","null","","","","","","","",""
"image-selector-fb","149","753243","0.0-37.7-0.7","null","pics2/VE2.jpg,pics2/FR1.jpg","","","","","","","false","null","","","noS.png","","",""
"image-slider-2AFC","150","758248","0.0-37.7-1.7","null","","","","null","","","","","","","","sizeS.png","","",""
"html-keyboard-response","151","759052","0.0-37.7-2.7","null","","","","","","","null","","","","","","","",""
"image-selector-fb","152","762615","0.0-37.8-0.8","3056","pics2/FR2.jpg,pics2/FR6.jpg","","","","","","","false","0","","","heartS.png","","",""
"image-slider-2AFC","153","765831","0.0-37.8-1.8","3211","","","","-61","","","","","","","","heartS.png","2131","-61",""
"html-keyboard-response","154","766635","0.0-37.8-2.8","null","","","","","","","null","","","","","","","",""
"image-selector-fb","155","768696","0.0-37.9-0.9","1553","pics2/FR5.jpg,pics2/FR1.jpg","","","","","","","true","1","","","sizeS.png","","",""
"image-slider-2AFC","156","771549","0.0-37.9-1.9","2844","","","","74","","","","","","","","sizeS.png","963,1913","62,74",""
"html-keyboard-response","157","772303","0.0-37.9-2.9","null","","","","","","","null","","","","","","","",""
"image-selector-fb","158","774496","0.0-37.10-0.10","1685","pics2/FR3.jpg,pics2/VE2.jpg","","","","","","","false","0","","","heartS.png","","",""
"image-slider-2AFC","159","777083","0.0-37.10-1.10","2583","","","","-85","","","","","","","","heartS.png","1551","-85",""
"html-keyboard-response","160","777936","0.0-37.10-2.10","null","","","","","","","null","","","","","","","",""
"image-selector-fb","161","780295","0.0-37.11-0.11","1854","pics2/SA2.jpg,pics2/FR2.jpg","","","","","","","false","0","","","sizeS.png","","",""
"image-slider-2AFC","162","782182","0.0-37.11-1.11","1884","","","","60","","","","","","","","sizeS.png","903","60",""
"html-keyboard-response","163","782936","0.0-37.11-2.11","null","","","","","","","null","","","","","","","",""
"html-button-response","164","786831","0.0-38.0","3892","<i><font size=10>Good job!</font></i> <br><br>Before we begin, you have a chance to review the rules, in case something was not clear.<br><br>","0","","","","","","","","","","","","",""
"instructions","165","808704","0.0-39.0","21871","","","","","","","","","","","","","","","[{""page_index"":0,""viewing_time"":6982},{""page_index"":1,""viewing_time"":5684},{""page_index"":2,""viewing_time"":9204}]"
"html-button-response","166","818773","0.0-40.0","10061","<div style='width: 900px;'> <font size='40'>Great! Now you're ready to begin</font><br><br>The main part of the experiment will consist of <u>3 blocks</u>. Each block consists of 66 decisions and judgements. You will have time for a short break between blocks.<br><br><br><i><u>Do your best to respond within the time limit.</u></i><br><br><i> Press the button to start the experiment<br><br></i>","0","","","","","","","","","","","","",""
"image-selector-fb","167","821782","0.0-41.0-0.0","null","pics2/SW4.jpg,pics2/SA5.jpg","","","","","","","false","null","","","noS.png","","",""
"image-slider-2AFC","168","826788","0.0-41.0-1.0","null","","","","null","","","","","","","","heartS.png","","",""
"html-keyboard-response","169","827590","0.0-41.0-2.0","null","","","","","","","null","","","","","","","",""
"image-selector-fb","170","830596","0.0-41.1-0.1","null","pics2/SW3.jpg,pics2/VE6.jpg","","","","","","","false","null","","","noS.png","","",""
"image-slider-2AFC","171","835600","0.0-41.1-1.1","null","","","","null","","","","","","","","sizeS.png","4221","-50",""
"html-keyboard-response","172","836304","0.0-41.1-2.1","null","","","","","","","null","","","","","","","",""
"image-selector-fb","173","839312","0.0-41.2-0.2","null","pics2/SW3.jpg,pics2/SA5.jpg","","","","","","","false","null","","","noS.png","","",""
"image-slider-2AFC","174","842385","0.0-41.2-1.2","3069","","","","-93","","","","","","","","heartS.png","1875","-93",""
"html-keyboard-response","175","843190","0.0-41.2-2.2","null","","","","","","","null","","","","","","","",""
"image-selector-fb","176","847034","0.0-41.3-0.3","3335","pics2/SW4.jpg,pics2/SW6.jpg","","","","","","","false","0","","","sizeS.png","","",""
"image-slider-2AFC","177","849519","0.0-41.3-1.3","2482","","","","-23","","","","","","","","sizeS.png","1434","-23",""
"html-keyboard-response","178","850373","0.0-41.3-2.3","null","","","","","","","null","","","","","","","",""
"image-selector-fb","179","853819","0.0-41.4-0.4","2939","pics2/SW3.jpg,pics2/SW6.jpg","","","","","","","false","0","","","sizeS.png","","",""
"image-slider-2AFC","180","858539","0.0-41.4-1.4","4715","","","","-75","","","","","","","","heartS.png","1470,3833","-50,-75",""
"html-keyboard-response","181","859248","0.0-41.4-2.4","null","","","","","","","null","","","","","","","",""
"image-selector-fb","182","862257","0.0-41.5-0.5","null","pics2/SW5.jpg,pics2/SA3.jpg","","","","","","","false","null","","","noS.png","","",""
"image-slider-2AFC","183","867262","0.0-41.5-1.5","null","","","","null","","","","","","","","heartS.png","4794","64",""
"html-keyboard-response","184","867965","0.0-41.5-2.5","null","","","","","","","null","","","","","","","",""
"image-selector-fb","185","870973","0.0-41.6-0.6","null","pics2/SW2.jpg,pics2/SA5.jpg","","","","","","","false","null","","","noS.png","","",""
"image-slider-2AFC","186","874971","0.0-41.6-1.6","3994","","","","-75","","","","","","","","heartS.png","3047","-75",""
"html-keyboard-response","187","875674","0.0-41.6-2.6","null","","","","","","","null","","","","","","","",""
"image-selector-fb","188","878055","0.0-41.7-0.7","1873","pics2/SW2.jpg,pics2/SW4.jpg","","","","","","","true","1","","","heartS.png","","",""
"image-slider-2AFC","189","881422","0.0-41.7-1.7","3363","","","","36","","","","","","","","heartS.png","1416,2444","59,36",""
"html-keyboard-response","190","882126","0.0-41.7-2.7","null","","","","","","","null","","","","","","","",""
"image-selector-fb","191","884435","0.0-41.8-0.8","1802","pics2/SW3.jpg,pics2/SW2.jpg","","","","","","","false","0","","","sizeS.png","","",""
"image-slider-2AFC","192","889440","0.0-41.8-1.8","null","","","","null","","","","","","","","sizeS.png","","",""
"html-keyboard-response","193","890194","0.0-41.8-2.8","null","","","","","","","null","","","","","","","",""
"image-selector-fb","194","893203","0.0-41.9-0.9","null","pics2/SA6.jpg,pics2/SW4.jpg","","","","","","","false","null","","","noS.png","","",""
"image-slider-2AFC","195","898212","0.0-41.9-1.9","null","","","","null","","","","","","","","sizeS.png","","",""
"html-keyboard-response","196","898919","0.0-41.9-2.9","null","","","","","","","null","","","","","","","",""
"image-selector-fb","197","901929","0.0-41.10-0.10","null","pics2/SW2.jpg,pics2/VE6.jpg","","","","","","","false","null","","","noS.png","","",""
"image-slider-2AFC","198","906934","0.0-41.10-1.10","null","","","","null","","","","","","","","sizeS.png","4260","-36",""
"html-keyboard-response","199","907788","0.0-41.10-2.10","null","","","","","","","null","","","","","","","",""
"image-selector-fb","200","910836","0.0-41.11-0.11","2540","pics2/SW2.jpg,pics2/SA5.jpg","","","","","","","false","0","","","heartS.png","","",""
"image-slider-2AFC","201","912858","0.0-41.11-1.11","2018","","","","-89","","","","","","","","heartS.png","1035","-89",""
"html-keyboard-response","202","913662","0.0-41.11-2.11","null","","","","","","","null","","","","","","","",""
"image-selector-fb","203","916670","0.0-41.12-0.12","null","pics2/SA3.jpg,pics2/VE6.jpg","","","","","","","false","null","","","noS.png","","",""
"image-slider-2AFC","204","920007","0.0-41.12-1.12","3333","","","","-76","","","","","","","","heartS.png","2269","-76",""
"html-keyboard-response","205","920710","0.0-41.12-2.12","null","","","","","","","null","","","","","","","",""
"image-selector-fb","206","924454","0.0-41.13-0.13","3237","pics2/VE6.jpg,pics2/SW5.jpg","","","","","","","true","1","","","heartS.png","","",""
"image-slider-2AFC","207","926524","0.0-41.13-1.13","2066","","","","22","","","","","","","","heartS.png","1086","22",""
"html-keyboard-response","208","927277","0.0-41.13-2.13","null","","","","","","","null","","","","","","","",""
"image-selector-fb","209","930289","0.0-41.14-0.14","null","pics2/SA4.jpg,pics2/VE6.jpg","","","","","","","false","null","","","noS.png","","",""
"image-slider-2AFC","210","935296","0.0-41.14-1.14","null","","","","null","","","","","","","","sizeS.png","4200","35",""
"html-keyboard-response","211","936150","0.0-41.14-2.14","null","","","","","","","null","","","","","","","",""
"image-selector-fb","212","940472","0.0-41.15-0.15","3814","pics2/SW3.jpg,pics2/SW4.jpg","","","","","","","true","1","","","sizeS.png","","",""
"image-slider-2AFC","213","942808","0.0-41.15-1.15","2332","","","","21","","","","","","","","sizeS.png","1337","21",""
"html-keyboard-response","214","943513","0.0-41.15-2.15","null","","","","","","","null","","","","","","","",""
"image-selector-fb","215","946522","0.0-41.16-0.16","null","pics2/SA6.jpg,pics2/SA5.jpg","","","","","","","false","null","","","noS.png","","",""
"image-slider-2AFC","216","950660","0.0-41.16-1.16","4129","","","","-43","","","","","","","","sizeS.png","2495","-43",""
"html-keyboard-response","217","951463","0.0-41.16-2.16","null","","","","","","","null","","","","","","","",""
"image-selector-fb","218","954656","0.0-41.17-0.17","2686","pics2/SA3.jpg,pics2/SA6.jpg","","","","","","","false","0","","","heartS.png","","",""
"image-slider-2AFC","219","957108","0.0-41.17-1.17","2448","","","","-23","","","","","","","","heartS.png","1468","-23",""
"html-keyboard-response","220","957912","0.0-41.17-2.17","null","","","","","","","null","","","","","","","",""
"image-selector-fb","221","962289","0.0-41.18-0.18","3870","pics2/VE6.jpg,pics2/SW6.jpg","","","","","","","true","1","","","sizeS.png","","",""
"image-slider-2AFC","222","964075","0.0-41.18-1.18","1782","","","","8","","","","","","","","heartS.png","804","8",""
"html-keyboard-response","223","964879","0.0-41.18-2.18","null","","","","","","","null","","","","","","","",""
"image-selector-fb","224","967887","0.0-41.19-0.19","null","pics2/SA4.jpg,pics2/SW2.jpg","","","","","","","false","null","","","noS.png","","",""
"image-slider-2AFC","225","972509","0.0-41.19-1.19","4617","","","","44","","","","","","","","sizeS.png","3721","44",""
"html-keyboard-response","226","973362","0.0-41.19-2.19","null","","","","","","","null","","","","","","","",""
"image-selector-fb","227","976723","0.0-41.20-0.20","2854","pics2/SW3.jpg,pics2/SA1.jpg","","","","","","","true","1","","","sizeS.png","","",""
"image-slider-2AFC","228","978743","0.0-41.20-1.20","2016","","","","22","","","","","","","","heartS.png","637","22",""
"html-keyboard-response","229","979546","0.0-41.20-2.20","null","","","","","","","null","","","","","","","",""
"image-selector-fb","230","982554","0.0-41.21-0.21","null","pics2/SA1.jpg,pics2/SW5.jpg","","","","","","","false","null","","","noS.png","","",""
"image-slider-2AFC","231","987564","0.0-41.21-1.21","null","","","","null","","","","","","","","heartS.png","4850","-25",""
"html-keyboard-response","232","988269","0.0-41.21-2.21","null","","","","","","","null","","","","","","","",""
"image-selector-fb","233","991691","0.0-41.22-0.22","2913","pics2/SW4.jpg,pics2/SA1.jpg","","","","","","","true","1","","","sizeS.png","","",""
"image-slider-2AFC","234","993511","0.0-41.22-1.22","1816","","","","29","","","","","","","","sizeS.png","852","29",""
"html-keyboard-response","235","994365","0.0-41.22-2.22","null","","","","","","","null","","","","","","","",""
"image-selector-fb","236","997607","0.0-41.23-0.23","2735","pics2/SW4.jpg,pics2/SW3.jpg","","","","","","","false","0","","","heartS.png","","",""
"image-slider-2AFC","237","1000062","0.0-41.23-1.23","2451","","","","-9","","","","","","","","heartS.png","1431","-9",""
"html-keyboard-response","238","1000815","0.0-41.23-2.23","null","","","","","","","null","","","","","","","",""
"image-selector-fb","239","1003824","0.0-41.24-0.24","null","pics2/SW1.jpg,pics2/SA5.jpg","","","","","","","false","null","","","noS.png","","",""
"image-slider-2AFC","240","1008828","0.0-41.24-1.24","null","","","","null","","","","","","","","sizeS.png","3964","-54",""
"html-keyboard-response","241","1009631","0.0-41.24-2.24","null","","","","","","","null","","","","","","","",""
"image-selector-fb","242","1012643","0.0-41.25-0.25","null","pics2/SA5.jpg,pics2/VE6.jpg","","","","","","","false","null","","","noS.png","","",""
"image-slider-2AFC","243","1017650","0.0-41.25-1.25","null","","","","null","","","","","","","","heartS.png","2149","41",""
"html-keyboard-response","244","1018404","0.0-41.25-2.25","null","","","","","","","null","","","","","","","",""
"image-selector-fb","245","1020384","0.0-41.26-0.26","1472","pics2/VE6.jpg,pics2/SW2.jpg","","","","","","","true","1","","","sizeS.png","","",""
"image-slider-2AFC","246","1023978","0.0-41.26-1.26","3590","","","","76","","","","","","","","sizeS.png","1677,2694","34,76",""
"html-keyboard-response","247","1024781","0.0-41.26-2.26","null","","","","","","","null","","","","","","","",""
"image-selector-fb","248","1029294","0.0-41.27-0.27","null","pics2/SW2.jpg,pics2/SA3.jpg","","","","","","","false","null","","","sizeS.png","","",""
"image-slider-2AFC","249","1029296","0.0-41.27-1.27","null","","","","null","","","","","","","","sizeS.png","","",""
"html-keyboard-response","250","1030050","0.0-41.27-2.27","null","","","","","","","null","","","","","","","",""
"image-selector-fb","251","1033058","0.0-41.28-0.28","null","pics2/SW2.jpg,pics2/SA3.jpg","","","","","","","false","null","","","noS.png","","",""
"image-slider-2AFC","252","1038064","0.0-41.28-1.28","null","","","","null","","","","","","","","heartS.png","","",""
"html-keyboard-response","253","1038918","0.0-41.28-2.28","null","","","","","","","null","","","","","","","",""
"image-selector-fb","254","1041626","0.0-41.29-0.29","2202","pics2/SW4.jpg,pics2/SA6.jpg","","","","","","","false","0","","","heartS.png","","",""
"image-slider-2AFC","255","1044333","0.0-41.29-1.29","2703","","","","-56","","","","","","","","heartS.png","1736","-56",""
"html-keyboard-response","256","1045187","0.0-41.29-2.29","null","","","","","","","null","","","","","","","",""
"image-selector-fb","257","1048643","0.0-41.30-0.30","2949","pics2/SW3.jpg,pics2/VE6.jpg","","","","","","","false","0","","","sizeS.png","","",""
"image-slider-2AFC","258","1050864","0.0-41.30-1.30","2217","","","","-31","","","","","","","","heartS.png","1235","-31",""
"html-keyboard-response","259","1051617","0.0-41.30-2.30","null","","","","","","","null","","","","","","","",""
"image-selector-fb","260","1054561","0.0-41.31-0.31","2437","pics2/SW4.jpg,pics2/VE6.jpg","","","","","","","false","0","","","heartS.png","","",""
"image-slider-2AFC","261","1056450","0.0-41.31-1.31","1885","","","","-85","","","","","","","","sizeS.png","867","-85",""
"html-keyboard-response","262","1057204","0.0-41.31-2.31","null","","","","","","","null","","","","","","","",""
"image-selector-fb","263","1060927","0.0-41.32-0.32","3216","pics2/SW6.jpg,pics2/SA4.jpg","","","","","","","true","1","","","heartS.png","","",""
"image-slider-2AFC","264","1062948","0.0-41.32-1.32","2016","","","","17","","","","","","","","sizeS.png","1086","17",""
"html-keyboard-response","265","1063801","0.0-41.32-2.32","null","","","","","","","null","","","","","","","",""
"image-selector-fb","266","1068311","0.0-41.33-0.33","null","pics2/SA6.jpg,pics2/SW4.jpg","","","","","","","false","null","","","sizeS.png","","",""
"image-slider-2AFC","267","1068313","0.0-41.33-1.33","null","","","","null","","","","","","","","heartS.png","","",""
"html-keyboard-response","268","1069168","0.0-41.33-2.33","null","","","","","","","null","","","","","","","",""
"image-selector-fb","269","1072177","0.0-41.34-0.34","null","pics2/SA4.jpg,pics2/SW1.jpg","","","","","","","false","null","","","noS.png","","",""
"image-slider-2AFC","270","1077017","0.0-41.34-1.34","4836","","","","39","","","","","","","","heartS.png","4037","39",""
"html-keyboard-response","271","1077870","0.0-41.34-2.34","null","","","","","","","null","","","","","","","",""
"image-selector-fb","272","1080128","0.0-41.35-0.35","1750","pics2/SW6.jpg,pics2/SA6.jpg","","","","","","","false","0","","","heartS.png","","",""
"image-slider-2AFC","273","1082964","0.0-41.35-1.35","2833","","","","-37","","","","","","","","sizeS.png","1702","-37",""
"html-keyboard-response","274","1083718","0.0-41.35-2.35","null","","","","","","","null","","","","","","","",""
"image-selector-fb","275","1086726","0.0-41.36-0.36","null","pics2/SA6.jpg,pics2/SW3.jpg","","","","","","","false","null","","","noS.png","","",""
"image-slider-2AFC","276","1090666","0.0-41.36-1.36","3931","","","","68","","","","","","","","heartS.png","2482,3199","49,68",""
"html-keyboard-response","277","1091419","0.0-41.36-2.36","null","","","","","","","null","","","","","","","",""
"image-selector-fb","278","1094429","0.0-41.37-0.37","null","pics2/SW2.jpg,pics2/SW3.jpg","","","","","","","false","null","","","noS.png","","",""
"image-slider-2AFC","279","1099433","0.0-41.37-1.37","5000","","","","-69","","","","","","","","sizeS.png","4103","-69",""
"html-keyboard-response","280","1100186","0.0-41.37-2.37","null","","","","","","","null","","","","","","","",""
"image-selector-fb","281","1103847","0.0-41.38-0.38","3153","pics2/SW6.jpg,pics2/VE6.jpg","","","","","","","false","0","","","heartS.png","","",""
"image-slider-2AFC","282","1108517","0.0-41.38-1.38","4666","","","","-16","","","","","","","","heartS.png","3820","-16",""
"html-keyboard-response","283","1109371","0.0-41.38-2.38","null","","","","","","","null","","","","","","","",""
"image-selector-fb","284","1113879","0.0-41.39-0.39","null","pics2/SW5.jpg,pics2/SW1.jpg","","","","","","","false","null","","","sizeS.png","","",""
"image-slider-2AFC","285","1113881","0.0-41.39-1.39","null","","","","null","","","","","","","","sizeS.png","","",""
"html-keyboard-response","286","1114585","0.0-41.39-2.39","null","","","","","","","null","","","","","","","",""
"image-selector-fb","287","1117380","0.0-41.40-0.40","2288","pics2/SW4.jpg,pics2/SW5.jpg","","","","","","","false","0","","","heartS.png","","",""
"image-slider-2AFC","288","1120383","0.0-41.40-1.40","2999","","","","-83","","","","","","","","sizeS.png","2020","-83",""
"html-keyboard-response","289","1121087","0.0-41.40-2.40","null","","","","","","","null","","","","","","","",""
"image-selector-fb","290","1124095","0.0-41.41-0.41","null","pics2/SW5.jpg,pics2/SA5.jpg","","","","","","","false","null","","","noS.png","","",""
"image-slider-2AFC","291","1129100","0.0-41.41-1.41","5002","","","","-13","","","","","","","","heartS.png","4104","-13",""
"html-keyboard-response","292","1129804","0.0-41.41-2.41","null","","","","","","","null","","","","","","","",""
"image-selector-fb","293","1132812","0.0-41.42-0.42","null","pics2/SA3.jpg,pics2/SW3.jpg","","","","","","","false","null","","","noS.png","","",""
"image-slider-2AFC","294","1135901","0.0-41.42-1.42","3084","","","","61","","","","","","","","heartS.png","2272","61",""
"html-keyboard-response","295","1136706","0.0-41.42-2.42","null","","","","","","","null","","","","","","","",""
"image-selector-fb","296","1139716","0.0-41.43-0.43","null","pics2/SW1.jpg,pics2/SW2.jpg","","","","","","","false","null","","","noS.png","","",""
"image-slider-2AFC","297","1143917","0.0-41.43-1.43","4198","","","","-16","","","","","","","","heartS.png","3284","-16",""
"html-keyboard-response","298","1144771","0.0-41.43-2.43","null","","","","","","","null","","","","","","","",""
"image-selector-fb","299","1149284","0.0-41.44-0.44","null","pics2/SW5.jpg,pics2/SW3.jpg","","","","","","","false","null","","","sizeS.png","","",""
"image-slider-2AFC","300","1149286","0.0-41.44-1.44","null","","","","null","","","","","","","","heartS.png","","",""
"html-keyboard-response","301","1149989","0.0-41.44-2.44","null","","","","","","","null","","","","","","","",""
"image-selector-fb","302","1153001","0.0-41.45-0.45","null","pics2/SW1.jpg,pics2/SW4.jpg","","","","","","","false","null","","","noS.png","","",""
"image-slider-2AFC","303","1157037","0.0-41.45-1.45","4032","","","","-39","","","","","","","","sizeS.png","3100","-39",""
"html-keyboard-response","304","1157841","0.0-41.45-2.45","null","","","","","","","null","","","","","","","",""
"image-selector-fb","305","1161949","0.0-41.46-0.46","3602","pics2/SW5.jpg,pics2/SW4.jpg","","","","","","","false","0","","","sizeS.png","","",""
"image-slider-2AFC","306","1166954","0.0-41.46-1.46","null","","","","null","","","","","","","","heartS.png","1520,2484,3103,4086","-19,54,84,100",""
"html-keyboard-response","307","1167758","0.0-41.46-2.46","null","","","","","","","null","","","","","","","",""
"image-selector-fb","308","1170317","0.0-41.47-0.47","2052","pics2/SA5.jpg,pics2/SW4.jpg","","","","","","","true","1","","","heartS.png","","",""
"image-slider-2AFC","309","1173687","0.0-41.47-1.47","3366","","","","100","","","","","","","","sizeS.png","1534,2352","88,100",""
"html-keyboard-response","310","1174491","0.0-41.47-2.47","null","","","","","","","null","","","","","","","",""
"image-selector-fb","311","1177499","0.0-41.48-0.48","null","pics2/SW5.jpg,pics2/VE6.jpg","","","","","","","false","null","","","noS.png","","",""
"image-slider-2AFC","312","1182035","0.0-41.48-1.48","4532","","","","-48","","","","","","","","sizeS.png","3636","-48",""
"html-keyboard-response","313","1182839","0.0-41.48-2.48","null","","","","","","","null","","","","","","","",""
"image-selector-fb","314","1185847","0.0-41.49-0.49","null","pics2/SA6.jpg,pics2/SW6.jpg","","","","","","","false","null","","","noS.png","","",""
"image-slider-2AFC","315","1190853","0.0-41.49-1.49","null","","","","null","","","","","","","","heartS.png","4375","-38",""
"html-keyboard-response","316","1191608","0.0-41.49-2.49","null","","","","","","","null","","","","","","","",""
"image-selector-fb","317","1195451","0.0-41.50-0.50","3335","pics2/SW3.jpg,pics2/SW1.jpg","","","","","","","true","1","","","sizeS.png","","",""
"image-slider-2AFC","318","1198923","0.0-41.50-1.50","3467","","","","-68","","","","","","","","heartS.png","2600","-68",""
"html-keyboard-response","319","1199726","0.0-41.50-2.50","null","","","","","","","null","","","","","","","",""
"image-selector-fb","320","1203202","0.0-41.51-0.51","2968","pics2/SW1.jpg,pics2/SW5.jpg","","","","","","","false","0","","","heartS.png","","",""
"image-slider-2AFC","321","1206238","0.0-41.51-1.51","3032","","","","-47","","","","","","","","heartS.png","2136","-47",""
"html-keyboard-response","322","1206992","0.0-41.51-2.51","null","","","","","","","null","","","","","","","",""
"image-selector-fb","323","1210253","0.0-41.52-0.52","2748","pics2/SA6.jpg,pics2/SA3.jpg","","","","","","","true","1","","","sizeS.png","","",""
"image-slider-2AFC","324","1212971","0.0-41.52-1.52","2715","","","","47","","","","","","","","sizeS.png","1733","47",""
"html-keyboard-response","325","1213776","0.0-41.52-2.52","null","","","","","","","null","","","","","","","",""
"image-selector-fb","326","1217087","0.0-41.53-0.53","2804","pics2/SA6.jpg,pics2/SA1.jpg","","","","","","","true","1","","","sizeS.png","","",""
"image-slider-2AFC","327","1219023","0.0-41.53-1.53","1932","","","","75","","","","","","","","sizeS.png","887","75",""
"html-keyboard-response","328","1219878","0.0-41.53-2.53","null","","","","","","","null","","","","","","","",""
"image-selector-fb","329","1223186","0.0-41.54-0.54","2799","pics2/SW1.jpg,pics2/SA6.jpg","","","","","","","false","0","","","heartS.png","","",""
"image-slider-2AFC","330","1225788","0.0-41.54-1.54","2598","","","","-28","","","","","","","","sizeS.png","967,1651","-11,-28",""
"html-keyboard-response","331","1226641","0.0-41.54-2.54","null","","","","","","","null","","","","","","","",""
"image-selector-fb","332","1229649","0.0-41.55-0.55","null","pics2/SW1.jpg,pics2/SW6.jpg","","","","","","","false","null","","","noS.png","","",""
"image-slider-2AFC","333","1234589","0.0-41.55-1.55","4933","","","","-61","","","","","","","","heartS.png","3037,4069","-48,-61",""
"html-keyboard-response","334","1235293","0.0-41.55-2.55","null","","","","","","","null","","","","","","","",""
"image-selector-fb","335","1238269","0.0-41.56-0.56","2468","pics2/SW2.jpg,pics2/VE6.jpg","","","","","","","false","0","","","heartS.png","","",""
"image-slider-2AFC","336","1240806","0.0-41.56-1.56","2533","","","","-40","","","","","","","","sizeS.png","1536","-40",""
"html-keyboard-response","337","1241508","0.0-41.56-2.56","null","","","","","","","null","","","","","","","",""
"image-selector-fb","338","1244337","0.0-41.57-0.57","2321","pics2/SA3.jpg,pics2/SW3.jpg","","","","","","","true","1","","","heartS.png","","",""
"image-slider-2AFC","339","1246940","0.0-41.57-1.57","2594","","","","10","","","","","","","","heartS.png","1135,1763","27,10",""
"html-keyboard-response","340","1247744","0.0-41.57-2.57","null","","","","","","","null","","","","","","","",""
"image-selector-fb","341","1250906","0.0-41.58-0.58","2653","pics2/SW1.jpg,pics2/SW6.jpg","","","","","","","false","0","","","sizeS.png","","",""
"image-slider-2AFC","342","1254775","0.0-41.58-1.58","3864","","","","-49","","","","","","","","heartS.png","2965","-49",""
"html-keyboard-response","343","1255479","0.0-41.58-2.58","null","","","","","","","null","","","","","","","",""
"image-selector-fb","344","1259671","0.0-41.59-0.59","3685","pics2/SA4.jpg,pics2/SW6.jpg","","","","","","","true","1","","","sizeS.png","","",""
"image-slider-2AFC","345","1263157","0.0-41.59-1.59","3482","","","","-14","","","","","","","","heartS.png","2585","-14",""
"html-keyboard-response","346","1264011","0.0-41.59-2.59","null","","","","","","","null","","","","","","","",""
"image-selector-fb","347","1267023","0.0-41.60-0.60","null","pics2/SA6.jpg,pics2/SW2.jpg","","","","","","","false","null","","","noS.png","","",""
"image-slider-2AFC","348","1270826","0.0-41.60-1.60","3798","","","","19","","","","","","","","heartS.png","2699","19",""
"html-keyboard-response","349","1271681","0.0-41.60-2.60","null","","","","","","","null","","","","","","","",""
"image-selector-fb","350","1273937","0.0-41.61-0.61","1748","pics2/SW3.jpg,pics2/SW5.jpg","","","","","","","false","0","","","heartS.png","","",""
"image-slider-2AFC","351","1276294","0.0-41.61-1.61","2353","","","","-78","","","","","","","","heartS.png","1487","-78",""
"html-keyboard-response","352","1277147","0.0-41.61-2.61","null","","","","","","","null","","","","","","","",""
"image-selector-fb","353","1279345","0.0-41.62-0.62","1687","pics2/VE6.jpg,pics2/SW1.jpg","","","","","","","true","1","","","sizeS.png","","",""
"image-slider-2AFC","354","1282058","0.0-41.62-1.62","2710","","","","56","","","","","","","","heartS.png","1764","56",""
"html-keyboard-response","355","1282863","0.0-41.62-2.62","null","","","","","","","null","","","","","","","",""
"image-selector-fb","356","1285872","0.0-41.63-0.63","null","pics2/SA6.jpg,pics2/VE6.jpg","","","","","","","false","null","","","noS.png","","",""
"image-slider-2AFC","357","1289892","0.0-41.63-1.63","4015","","","","-25","","","","","","","","heartS.png","3051","-25",""
"html-keyboard-response","358","1290596","0.0-41.63-2.63","null","","","","","","","null","","","","","","","",""
"image-selector-fb","359","1293604","0.0-41.64-0.64","null","pics2/SW6.jpg,pics2/SW4.jpg","","","","","","","false","null","","","noS.png","","",""
"image-slider-2AFC","360","1298477","0.0-41.64-1.64","4869","","","","58","","","","","","","","sizeS.png","4173","58",""
"html-keyboard-response","361","1299332","0.0-41.64-2.64","null","","","","","","","null","","","","","","","",""
"image-selector-fb","362","1302073","0.0-41.65-0.65","2232","pics2/SA1.jpg,pics2/VE6.jpg","","","","","","","false","0","","","heartS.png","","",""
"image-slider-2AFC","363","1305926","0.0-41.65-1.65","3849","","","","-58","","","","","","","","sizeS.png","2918","-58",""
"html-keyboard-response","364","1306678","0.0-41.65-2.65","null","","","","","","","null","","","","","","","",""
"pavlovia","365","1306704","0.0-42.0","","","","","","","","","","","","","","","",""
"html-keyboard-response","366","1311706","0.0-43.0","null","<div style='width: 700px;'> <font size=6><b>SHORT BREAK</font></b><br><br><i> Please wait 5 seconds to continue</i></div> ","","","","","","null","","","","","","","",""
"pavlovia","367","1311711","0.0-44.0","","","","","","","","","","","","","","","",""
"html-button-response","368","1314858","0.0-45.0","3145","<div style='width: 700px;'> <font size=6><b>BLOCK 2</font></b><br><br>Press the button whenever you feel ready to start the second block (there are 3 in total)</div>","0","","","","","","","","","","","","",""
"image-selector-fb","369","1317966","0.0-46.0-0.0","2600","pics2/SA4.jpg,pics2/SW5.jpg","","","","","","","false","0","","","heartS.png","","",""
"image-slider-2AFC","370","1320077","0.0-46.0-1.0","2106","","","","-48","","","","","","","","heartS.png","1193","-48",""
"html-keyboard-response","371","1320881","0.0-46.0-2.0","null","","","","","","","null","","","","","","","",""
"image-selector-fb","372","1323941","0.0-46.1-0.1","2552","pics2/SW2.jpg,pics2/SA4.jpg","","","","","","","false","0","","","sizeS.png","","",""
"image-slider-2AFC","373","1328761","0.0-46.1-1.1","4816","","","","-48","","","","","","","","heartS.png","3888","-48",""
"html-keyboard-response","374","1329466","0.0-46.1-2.1","null","","","","","","","null","","","","","","","",""
"image-selector-fb","375","1332627","0.0-46.2-0.2","2653","pics2/SW1.jpg,pics2/SA1.jpg","","","","","","","false","0","","","heartS.png","","",""
"image-slider-2AFC","376","1336612","0.0-46.2-1.2","3980","","","","-30","","","","","","","","heartS.png","1985,3083","-15,-30",""
"html-keyboard-response","377","1337315","0.0-46.2-2.2","null","","","","","","","null","","","","","","","",""
"image-selector-fb","378","1340830","0.0-46.3-0.3","3006","pics2/SA4.jpg,pics2/SA6.jpg","","","","","","","true","1","","","heartS.png","","",""
"image-slider-2AFC","379","1343628","0.0-46.3-1.3","2793","","","","11","","","","","","","","sizeS.png","1581","11",""
"html-keyboard-response","380","1344332","0.0-46.3-2.3","null","","","","","","","null","","","","","","","",""
"image-selector-fb","381","1347342","0.0-46.4-0.4","null","pics2/SW2.jpg,pics2/SW4.jpg","","","","","","","false","null","","","noS.png","","",""
"image-slider-2AFC","382","1352347","0.0-46.4-1.4","null","","","","null","","","","","","","","heartS.png","4070","77",""
"html-keyboard-response","383","1353051","0.0-46.4-2.4","null","","","","","","","null","","","","","","","",""
"image-selector-fb","384","1356110","0.0-46.5-0.5","2553","pics2/SA1.jpg,pics2/SA5.jpg","","","","","","","false","0","","","sizeS.png","","",""
"image-slider-2AFC","385","1359996","0.0-46.5-1.5","3876","","","","-30","","","","","","","","heartS.png","2846","-30",""
"html-keyboard-response","386","1360800","0.0-46.5-2.5","null","","","","","","","null","","","","","","","",""
"image-selector-fb","387","1364193","0.0-46.6-0.6","2884","pics2/SW2.jpg,pics2/SA6.jpg","","","","","","","false","0","","","heartS.png","","",""
"image-slider-2AFC","388","1367013","0.0-46.6-1.6","2815","","","","-18","","","","","","","","heartS.png","1851","-18",""
"html-keyboard-response","389","1367817","0.0-46.6-2.6","null","","","","","","","null","","","","","","","",""
"image-selector-fb","390","1370829","0.0-46.7-0.7","null","pics2/SW1.jpg,pics2/SW5.jpg","","","","","","","false","null","","","noS.png","","",""
"image-slider-2AFC","391","1375113","0.0-46.7-1.7","4278","","","","-28","","","","","","","","sizeS.png","3365","-28",""
"html-keyboard-response","392","1375873","0.0-46.7-2.7","null","","","","","","","null","","","","","","","",""
"image-selector-fb","393","1379414","0.0-46.8-0.8","3032","pics2/SA5.jpg,pics2/SA4.jpg","","","","","","","false","0","","","sizeS.png","","",""
"image-slider-2AFC","394","1381447","0.0-46.8-1.8","2029","","","","-19","","","","","","","","sizeS.png","948","-19",""
"html-keyboard-response","395","1382301","0.0-46.8-2.8","null","","","","","","","null","","","","","","","",""
"image-selector-fb","396","1385995","0.0-46.9-0.9","3186","pics2/SA3.jpg,pics2/SA5.jpg","","","","","","","false","0","","","heartS.png","","",""
"image-slider-2AFC","397","1390282","0.0-46.9-1.9","4283","","","","-78","","","","","","","","heartS.png","2386,3436","-63,-78",""
"html-keyboard-response","398","1391036","0.0-46.9-2.9","null","","","","","","","null","","","","","","","",""
"image-selector-fb","399","1393944","0.0-46.10-0.10","2401","pics2/SA1.jpg,pics2/SW5.jpg","","","","","","","false","0","","","heartS.png","","",""
"image-slider-2AFC","400","1396397","0.0-46.10-1.10","2445","","","","-33","","","","","","","","sizeS.png","1382","-33",""
"html-keyboard-response","401","1397252","0.0-46.10-2.10","null","","","","","","","null","","","","","","","",""
"image-selector-fb","402","1400829","0.0-46.11-0.11","3069","pics2/SW2.jpg,pics2/SW6.jpg","","","","","","","false","0","","","sizeS.png","","",""
"image-slider-2AFC","403","1404218","0.0-46.11-1.11","3384","","","","-68","","","","","","","","sizeS.png","2435","-68",""
"html-keyboard-response","404","1404922","0.0-46.11-2.11","null","","","","","","","null","","","","","","","",""
"image-selector-fb","405","1407930","0.0-46.12-0.12","null","pics2/SA4.jpg,pics2/SA6.jpg","","","","","","","false","null","","","noS.png","","",""
"image-slider-2AFC","406","1411599","0.0-46.12-1.12","3665","","","","32","","","","","","","","sizeS.png","2835","32",""
"html-keyboard-response","407","1412402","0.0-46.12-2.12","null","","","","","","","null","","","","","","","",""
"image-selector-fb","408","1415364","0.0-46.13-0.13","2449","pics2/SA4.jpg,pics2/SW2.jpg","","","","","","","true","1","","","heartS.png","","",""
"image-slider-2AFC","409","1418884","0.0-46.13-1.13","3515","","","","44","","","","","","","","sizeS.png","2533","44",""
"html-keyboard-response","410","1419738","0.0-46.13-2.13","null","","","","","","","null","","","","","","","",""
"image-selector-fb","411","1423613","0.0-46.14-0.14","3366","pics2/SA4.jpg,pics2/SA3.jpg","","","","","","","true","1","","","heartS.png","","",""
"image-slider-2AFC","412","1427085","0.0-46.14-1.14","3467","","","","41","","","","","","","","heartS.png","2601","41",""
"html-keyboard-response","413","1427838","0.0-46.14-2.14","null","","","","","","","null","","","","","","","",""
"image-selector-fb","414","1430064","0.0-46.15-0.15","1718","pics2/SW1.jpg,pics2/SA5.jpg","","","","","","","false","0","","","heartS.png","","",""
"image-slider-2AFC","415","1433733","0.0-46.15-1.15","3666","","","","-70","","","","","","","","sizeS.png","2619","-70",""
"html-keyboard-response","416","1434437","0.0-46.15-2.15","null","","","","","","","null","","","","","","","",""
"image-selector-fb","417","1437581","0.0-46.16-0.16","2636","pics2/SA1.jpg,pics2/SW6.jpg","","","","","","","false","0","","","sizeS.png","","",""
"image-slider-2AFC","418","1440168","0.0-46.16-1.16","2582","","","","-52","","","","","","","","sizeS.png","1671","-52",""
"html-keyboard-response","419","1440923","0.0-46.16-2.16","null","","","","","","","null","","","","","","","",""
"image-selector-fb","420","1443933","0.0-46.17-0.17","null","pics2/SW6.jpg,pics2/VE6.jpg","","","","","","","false","null","","","noS.png","","",""
"image-slider-2AFC","421","1448939","0.0-46.17-1.17","null","","","","null","","","","","","","","heartS.png","4582","-43",""
"html-keyboard-response","422","1449693","0.0-46.17-2.17","null","","","","","","","null","","","","","","","",""
"image-selector-fb","423","1452448","0.0-46.18-0.18","2247","pics2/SA3.jpg,pics2/SW4.jpg","","","","","","","true","1","","","heartS.png","","",""
"image-slider-2AFC","424","1456054","0.0-46.18-1.18","3602","","","","68","","","","","","","","heartS.png","2534","68",""
"html-keyboard-response","425","1456809","0.0-46.18-2.18","null","","","","","","","null","","","","","","","",""
"image-selector-fb","426","1459819","0.0-46.19-0.19","null","pics2/SA1.jpg,pics2/SW4.jpg","","","","","","","false","null","","","noS.png","","",""
"image-slider-2AFC","427","1463902","0.0-46.19-1.19","4079","","","","92","","","","","","","","heartS.png","2997","92",""
"html-keyboard-response","428","1464605","0.0-46.19-2.19","null","","","","","","","null","","","","","","","",""
"image-selector-fb","429","1467866","0.0-46.20-0.20","2753","pics2/SA3.jpg,pics2/SW6.jpg","","","","","","","false","0","","","sizeS.png","","",""
"image-slider-2AFC","430","1469853","0.0-46.20-1.20","1979","","","","-26","","","","","","","","sizeS.png","1015","-26",""
"html-keyboard-response","431","1470608","0.0-46.20-2.20","null","","","","","","","null","","","","","","","",""
"image-selector-fb","432","1473618","0.0-46.21-0.21","null","pics2/SW5.jpg,pics2/SW3.jpg","","","","","","","false","null","","","noS.png","","",""
"image-slider-2AFC","433","1478623","0.0-46.21-1.21","null","","","","null","","","","","","","","sizeS.png","4268","64",""
"html-keyboard-response","434","1479326","0.0-46.21-2.21","null","","","","","","","null","","","","","","","",""
"image-selector-fb","435","1482336","0.0-46.22-0.22","null","pics2/SA1.jpg,pics2/SA3.jpg","","","","","","","false","null","","","noS.png","","",""
"image-slider-2AFC","436","1486254","0.0-46.22-1.22","3914","","","","69","","","","","","","","heartS.png","2328,3045","50,69",""
"html-keyboard-response","437","1486958","0.0-46.22-2.22","null","","","","","","","null","","","","","","","",""
"image-selector-fb","438","1491161","0.0-46.23-0.23","3694","pics2/VE6.jpg,pics2/SA5.jpg","","","","","","","false","0","","","sizeS.png","","",""
"image-slider-2AFC","439","1493211","0.0-46.23-1.23","2046","","","","-21","","","","","","","","sizeS.png","1134","-21",""
"html-keyboard-response","440","1493914","0.0-46.23-2.23","null","","","","","","","null","","","","","","","",""
"image-selector-fb","441","1498007","0.0-46.24-0.24","3585","pics2/SA5.jpg,pics2/SW1.jpg","","","","","","","true","1","","","sizeS.png","","",""
"image-slider-2AFC","442","1501539","0.0-46.24-1.24","3529","","","","70","","","","","","","","heartS.png","2550","70",""
"html-keyboard-response","443","1502292","0.0-46.24-2.24","null","","","","","","","null","","","","","","","",""
"image-selector-fb","444","1505300","0.0-46.25-0.25","null","pics2/SA1.jpg,pics2/SW1.jpg","","","","","","","false","null","","","noS.png","","",""
"image-slider-2AFC","445","1508856","0.0-46.25-1.25","3552","","","","50","","","","","","","","heartS.png","2540","50",""
"html-keyboard-response","446","1509612","0.0-46.25-2.25","null","","","","","","","null","","","","","","","",""
"image-selector-fb","447","1512621","0.0-46.26-0.26","null","pics2/SW1.jpg,pics2/SA3.jpg","","","","","","","false","null","","","noS.png","","",""
"image-slider-2AFC","448","1517085","0.0-46.26-1.26","4460","","","","18","","","","","","","","sizeS.png","3362","18",""
"html-keyboard-response","449","1517839","0.0-46.26-2.26","null","","","","","","","null","","","","","","","",""
"image-selector-fb","450","1521237","0.0-46.27-0.27","2888","pics2/SA5.jpg,pics2/SW2.jpg","","","","","","","true","1","","","sizeS.png","","",""
"image-slider-2AFC","451","1524601","0.0-46.27-1.27","3358","","","","77","","","","","","","","sizeS.png","1911,2579","58,77",""
"html-keyboard-response","452","1525304","0.0-46.27-2.27","null","","","","","","","null","","","","","","","",""
"image-selector-fb","453","1528798","0.0-46.28-0.28","2985","pics2/SW5.jpg,pics2/SW2.jpg","","","","","","","true","1","","","sizeS.png","","",""
"image-slider-2AFC","454","1531934","0.0-46.28-1.28","3132","","","","57","","","","","","","","heartS.png","902,2019","76,57",""
"html-keyboard-response","455","1532638","0.0-46.28-2.28","null","","","","","","","null","","","","","","","",""
"image-selector-fb","456","1535665","0.0-46.29-0.29","2515","pics2/SA3.jpg,pics2/SA4.jpg","","","","","","","false","0","","","sizeS.png","","",""
"image-slider-2AFC","457","1539768","0.0-46.29-1.29","4098","","","","-58","","","","","","","","heartS.png","2967","-58",""
"html-keyboard-response","458","1540521","0.0-46.29-2.29","null","","","","","","","null","","","","","","","",""
"image-selector-fb","459","1543530","0.0-46.30-0.30","null","pics2/SA4.jpg,pics2/SA3.jpg","","","","","","","false","null","","","noS.png","","",""
"image-slider-2AFC","460","1547418","0.0-46.30-1.30","3884","","","","75","","","","","","","","heartS.png","2169,2954","49,75",""
"html-keyboard-response","461","1548271","0.0-46.30-2.30","null","","","","","","","null","","","","","","","",""
"image-selector-fb","462","1551281","0.0-46.31-0.31","null","pics2/SW2.jpg,pics2/SW6.jpg","","","","","","","false","null","","","noS.png","","",""
"image-slider-2AFC","463","1555452","0.0-46.31-1.31","4166","","","","-65","","","","","","","","sizeS.png","3168","-65",""
"html-keyboard-response","464","1556206","0.0-46.31-2.31","null","","","","","","","null","","","","","","","",""
"image-selector-fb","465","1559299","0.0-46.32-0.32","2584","pics2/SW5.jpg,pics2/SA4.jpg","","","","","","","false","0","","","sizeS.png","","",""
"image-slider-2AFC","466","1563352","0.0-46.32-1.32","4049","","","","20","","","","","","","","heartS.png","2953","20",""
"html-keyboard-response","467","1564107","0.0-46.32-2.32","null","","","","","","","null","","","","","","","",""
"image-selector-fb","468","1567116","0.0-46.33-0.33","null","pics2/SA1.jpg,pics2/SA5.jpg","","","","","","","false","null","","","noS.png","","",""
"image-slider-2AFC","469","1571036","0.0-46.33-1.33","3915","","","","-28","","","","","","","","heartS.png","2783","-28",""
"html-keyboard-response","470","1571889","0.0-46.33-2.33","null","","","","","","","null","","","","","","","",""
"image-selector-fb","471","1574998","0.0-46.34-0.34","2602","pics2/SW2.jpg,pics2/SW5.jpg","","","","","","","false","0","","","heartS.png","","",""
"image-slider-2AFC","472","1578852","0.0-46.34-1.34","3850","","","","-23","","","","","","","","sizeS.png","2853","-23",""
"html-keyboard-response","473","1579706","0.0-46.34-2.34","null","","","","","","","null","","","","","","","",""
"image-selector-fb","474","1582820","0.0-46.35-0.35","2606","pics2/SA4.jpg,pics2/SW3.jpg","","","","","","","true","1","","","heartS.png","","",""
"image-slider-2AFC","475","1586186","0.0-46.35-1.35","3361","","","","80","","","","","","","","sizeS.png","2179","80",""
"html-keyboard-response","476","1586889","0.0-46.35-2.35","null","","","","","","","null","","","","","","","",""
"image-selector-fb","477","1591398","0.0-46.36-0.36","null","pics2/SW2.jpg,pics2/SW1.jpg","","","","","","","false","null","","","heartS.png","","",""
"image-slider-2AFC","478","1591399","0.0-46.36-1.36","null","","","","null","","","","","","","","sizeS.png","","",""
"html-keyboard-response","479","1592152","0.0-46.36-2.36","null","","","","","","","null","","","","","","","",""
"image-selector-fb","480","1596664","0.0-46.37-0.37","null","pics2/SW1.jpg,pics2/SA3.jpg","","","","","","","false","null","","","sizeS.png","","",""
"image-slider-2AFC","481","1596667","0.0-46.37-1.37","null","","","","null","","","","","","","","heartS.png","","",""
"html-keyboard-response","482","1597373","0.0-46.37-2.37","null","","","","","","","null","","","","","","","",""
"image-selector-fb","483","1600385","0.0-46.38-0.38","null","pics2/SW4.jpg,pics2/VE6.jpg","","","","","","","false","null","","","noS.png","","",""
"image-slider-2AFC","484","1605372","0.0-46.38-1.38","4984","","","","41","","","","","","","","sizeS.png","4165","41",""
"html-keyboard-response","485","1606226","0.0-46.38-2.38","null","","","","","","","null","","","","","","","",""
"image-selector-fb","486","1609350","0.0-46.39-0.39","2616","pics2/SA6.jpg,pics2/SW2.jpg","","","","","","","true","1","","","sizeS.png","","",""
"image-slider-2AFC","487","1612873","0.0-46.39-1.39","3518","","","","41","","","","","","","","heartS.png","2568","41",""
"html-keyboard-response","488","1613577","0.0-46.39-2.39","null","","","","","","","null","","","","","","","",""
"image-selector-fb","489","1616586","0.0-46.40-0.40","null","pics2/SA1.jpg,pics2/SW6.jpg","","","","","","","false","null","","","noS.png","","",""
"image-slider-2AFC","490","1620570","0.0-46.40-1.40","3979","","","","-69","","","","","","","","sizeS.png","3033","-69",""
"html-keyboard-response","491","1621424","0.0-46.40-2.40","null","","","","","","","null","","","","","","","",""
"image-selector-fb","492","1624432","0.0-46.41-0.41","null","pics2/SW1.jpg,pics2/SA6.jpg","","","","","","","false","null","","","noS.png","","",""
"image-slider-2AFC","493","1627789","0.0-46.41-1.41","3352","","","","-26","","","","","","","","heartS.png","2404","-26",""
"html-keyboard-response","494","1628493","0.0-46.41-2.41","null","","","","","","","null","","","","","","","",""
"image-selector-fb","495","1632052","0.0-46.42-0.42","3052","pics2/SW4.jpg,pics2/SA4.jpg","","","","","","","false","0","","","sizeS.png","","",""
"image-slider-2AFC","496","1636556","0.0-46.42-1.42","4499","","","","-100","","","","","","","","heartS.png","1620","-95",""
"html-keyboard-response","497","1637411","0.0-46.42-2.42","null","","","","","","","null","","","","","","","",""
"image-selector-fb","498","1639702","0.0-46.43-0.43","1782","pics2/SA3.jpg,pics2/SW5.jpg","","","","","","","false","0","","","heartS.png","","",""
"image-slider-2AFC","499","1644707","0.0-46.43-1.43","null","","","","null","","","","","","","","sizeS.png","4085","28",""
"html-keyboard-response","500","1645461","0.0-46.43-2.43","null","","","","","","","null","","","","","","","",""
"image-selector-fb","501","1648268","0.0-46.44-0.44","2300","pics2/SW5.jpg,pics2/VE6.jpg","","","","","","","false","0","","","sizeS.png","","",""
"image-slider-2AFC","502","1651605","0.0-46.44-1.44","3333","","","","-40","","","","","","","","sizeS.png","2370","-40",""
"html-keyboard-response","503","1652458","0.0-46.44-2.44","null","","","","","","","null","","","","","","","",""
"image-selector-fb","504","1655635","0.0-46.45-0.45","2669","pics2/SA3.jpg,pics2/VE6.jpg","","","","","","","false","0","","","heartS.png","","",""
"image-slider-2AFC","505","1659638","0.0-46.45-1.45","3999","","","","-27","","","","","","","","sizeS.png","3100","-27",""
"html-keyboard-response","506","1660391","0.0-46.45-2.45","null","","","","","","","null","","","","","","","",""
"image-selector-fb","507","1663404","0.0-46.46-0.46","null","pics2/SW6.jpg,pics2/SW3.jpg","","","","","","","false","null","","","noS.png","","",""
"image-slider-2AFC","508","1667738","0.0-46.46-1.46","4330","","","","93","","","","","","","","heartS.png","2567,3300","77,93",""
"html-keyboard-response","509","1668443","0.0-46.46-2.46","null","","","","","","","null","","","","","","","",""
"image-selector-fb","510","1672952","0.0-46.47-0.47","null","pics2/SA6.jpg,pics2/SW1.jpg","","","","","","","false","null","","","sizeS.png","","",""
"image-slider-2AFC","511","1672954","0.0-46.47-1.47","null","","","","null","","","","","","","","sizeS.png","","",""
"html-keyboard-response","512","1673807","0.0-46.47-2.47","null","","","","","","","null","","","","","","","",""
"image-selector-fb","513","1677176","0.0-46.48-0.48","2858","pics2/VE6.jpg,pics2/SA6.jpg","","","","","","","true","1","","","heartS.png","","",""
"image-slider-2AFC","514","1681705","0.0-46.48-1.48","4525","","","","-25","","","","","","","","sizeS.png","3645","-25",""
"html-keyboard-response","515","1682460","0.0-46.48-2.48","null","","","","","","","null","","","","","","","",""
"image-selector-fb","516","1685473","0.0-46.49-0.49","null","pics2/SA4.jpg,pics2/SA5.jpg","","","","","","","false","null","","","noS.png","","",""
"image-slider-2AFC","517","1690391","0.0-46.49-1.49","4913","","","","-9","","","","","","","","heartS.png","3931","-9",""
"html-keyboard-response","518","1691244","0.0-46.49-2.49","null","","","","","","","null","","","","","","","",""
"image-selector-fb","519","1694253","0.0-46.50-0.50","null","pics2/SW1.jpg,pics2/VE6.jpg","","","","","","","false","null","","","noS.png","","",""
"image-slider-2AFC","520","1699259","0.0-46.50-1.50","null","","","","null","","","","","","","","heartS.png","","",""
"html-keyboard-response","521","1700113","0.0-46.50-2.50","null","","","","","","","null","","","","","","","",""
"image-selector-fb","522","1703322","0.0-46.51-0.51","2701","pics2/SW1.jpg,pics2/SA4.jpg","","","","","","","false","0","","","sizeS.png","","",""
"image-slider-2AFC","523","1706708","0.0-46.51-1.51","3381","","","","-53","","","","","","","","sizeS.png","2285","-53",""
"html-keyboard-response","524","1707513","0.0-46.51-2.51","null","","","","","","","null","","","","","","","",""
"image-selector-fb","525","1710538","0.0-46.52-0.52","2515","pics2/SW6.jpg,pics2/SW1.jpg","","","","","","","true","1","","","heartS.png","","",""
"image-slider-2AFC","526","1712992","0.0-46.52-1.52","2450","","","","46","","","","","","","","heartS.png","1469","46",""
"html-keyboard-response","527","1713846","0.0-46.52-2.52","null","","","","","","","null","","","","","","","",""
"image-selector-fb","528","1716859","0.0-46.53-0.53","null","pics2/SW5.jpg,pics2/SW2.jpg","","","","","","","false","null","","","noS.png","","",""
"image-slider-2AFC","529","1720959","0.0-46.53-1.53","4096","","","","63","","","","","","","","sizeS.png","2882","63",""
"html-keyboard-response","530","1721662","0.0-46.53-2.53","null","","","","","","","null","","","","","","","",""
"image-selector-fb","531","1724356","0.0-46.54-0.54","2185","pics2/SW6.jpg,pics2/SW4.jpg","","","","","","","true","1","","","heartS.png","","",""
"image-slider-2AFC","532","1726544","0.0-46.54-1.54","2183","","","","100","","","","","","","","sizeS.png","1184","100",""
"html-keyboard-response","533","1727247","0.0-46.54-2.54","null","","","","","","","null","","","","","","","",""
"image-selector-fb","534","1731755","0.0-46.55-0.55","null","pics2/SW2.jpg,pics2/SA1.jpg","","","","","","","false","null","","","heartS.png","","",""
"image-slider-2AFC","535","1731757","0.0-46.55-1.55","null","","","","null","","","","","","","","sizeS.png","","",""
"html-keyboard-response","536","1732461","0.0-46.55-2.55","null","","","","","","","null","","","","","","","",""
"image-selector-fb","537","1736047","0.0-46.56-0.56","3077","pics2/SA1.jpg,pics2/SA3.jpg","","","","","","","false","0","","","sizeS.png","","",""
"image-slider-2AFC","538","1741053","0.0-46.56-1.56","null","","","","null","","","","","","","","sizeS.png","4961","-30",""
"html-keyboard-response","539","1741907","0.0-46.56-2.56","null","","","","","","","null","","","","","","","",""
"image-selector-fb","540","1744723","0.0-46.57-0.57","2308","pics2/SW3.jpg,pics2/SA5.jpg","","","","","","","false","0","","","sizeS.png","","",""
"image-slider-2AFC","541","1747526","0.0-46.57-1.57","2800","","","","-49","","","","","","","","sizeS.png","1788","-49",""
"html-keyboard-response","542","1748330","0.0-46.57-2.57","null","","","","","","","null","","","","","","","",""
"image-selector-fb","543","1750977","0.0-46.58-0.58","2138","pics2/SA1.jpg,pics2/SW4.jpg","","","","","","","true","1","","","heartS.png","","",""
"image-slider-2AFC","544","1753762","0.0-46.58-1.58","2780","","","","100","","","","","","","","heartS.png","1360","100",""
"html-keyboard-response","545","1754466","0.0-46.58-2.58","null","","","","","","","null","","","","","","","",""
"image-selector-fb","546","1757741","0.0-46.59-0.59","2766","pics2/SA3.jpg,pics2/SW2.jpg","","","","","","","false","0","","","heartS.png","","",""
"image-slider-2AFC","547","1760414","0.0-46.59-1.59","2669","","","","-11","","","","","","","","heartS.png","1735","-11",""
"html-keyboard-response","548","1761218","0.0-46.59-2.59","null","","","","","","","null","","","","","","","",""
"image-selector-fb","549","1764315","0.0-46.60-0.60","2587","pics2/SW6.jpg,pics2/SW3.jpg","","","","","","","true","1","","","heartS.png","","",""
"image-slider-2AFC","550","1767611","0.0-46.60-1.60","3291","","","","95","","","","","","","","sizeS.png","2244","95",""
"html-keyboard-response","551","1768416","0.0-46.60-2.60","null","","","","","","","null","","","","","","","",""
"image-selector-fb","552","1771742","0.0-46.61-0.61","2817","pics2/SW1.jpg,pics2/VE6.jpg","","","","","","","false","0","","","heartS.png","","",""
"image-slider-2AFC","553","1774345","0.0-46.61-1.61","2599","","","","-51","","","","","","","","heartS.png","1586","-51",""
"html-keyboard-response","554","1775099","0.0-46.61-2.61","null","","","","","","","null","","","","","","","",""
"image-selector-fb","555","1777759","0.0-46.62-0.62","2152","pics2/SW1.jpg,pics2/SW4.jpg","","","","","","","true","1","","","heartS.png","","",""
"image-slider-2AFC","556","1780679","0.0-46.62-1.62","2916","","","","-76","","","","","","","","sizeS.png","1189,1918","-100,-76",""
"html-keyboard-response","557","1781384","0.0-46.62-2.62","null","","","","","","","null","","","","","","","",""
"image-selector-fb","558","1785009","0.0-46.63-0.63","3116","pics2/SA1.jpg,pics2/SA6.jpg","","","","","","","true","1","","","heartS.png","","",""
"image-slider-2AFC","559","1788601","0.0-46.63-1.63","3588","","","","12","","","","","","","","heartS.png","2020,2686","22,12",""
"html-keyboard-response","560","1789406","0.0-46.63-2.63","null","","","","","","","null","","","","","","","",""
"image-selector-fb","561","1792393","0.0-46.64-0.64","2478","pics2/SA5.jpg,pics2/SA3.jpg","","","","","","","true","1","","","sizeS.png","","",""
"image-slider-2AFC","562","1795963","0.0-46.64-1.64","3565","","","","50","","","","","","","","heartS.png","1934","50",""
"html-keyboard-response","563","1796766","0.0-46.64-2.64","null","","","","","","","null","","","","","","","",""
"image-selector-fb","564","1799942","0.0-46.65-0.65","2668","pics2/SA1.jpg,pics2/SA4.jpg","","","","","","","false","0","","","sizeS.png","","",""
"image-slider-2AFC","565","1804947","0.0-46.65-1.65","null","","","","null","","","","","","","","heartS.png","4019","-8",""
"html-keyboard-response","566","1805651","0.0-46.65-2.65","null","","","","","","","null","","","","","","","",""
"pavlovia","567","1805683","0.0-47.0","","","","","","","","","","","","","","","",""
"html-keyboard-response","568","1810686","0.0-48.0","null","<div style='width: 700px;'> <font size=6><b>SHORT BREAK</font></b><br><br><i> Please wait 5 seconds to continue</i></div> ","","","","","","null","","","","","","","",""
"pavlovia","569","1810690","0.0-49.0","","","","","","","","","","","","","","","",""
"html-button-response","570","1812311","0.0-50.0","1619","<div style='width: 700px;'> <font size=6><b>BLOCK 3</font></b><br><br>Press the button whenever you feel ready to start the third and final block</div>","0","","","","","","","","","","","","",""
"image-selector-fb","571","1816328","0.0-51.0-0.0","3509","pics2/SA6.jpg,pics2/SW3.jpg","","","","","","","true","1","","","sizeS.png","","",""
"image-slider-2AFC","572","1819230","0.0-51.0-1.0","2897","","","","81","","","","","","","","heartS.png","1503","81",""
"html-keyboard-response","573","1820034","0.0-51.0-2.0","null","","","","","","","null","","","","","","","",""
"image-selector-fb","574","1823046","0.0-51.1-0.1","null","pics2/SA1.jpg,pics2/SW3.jpg","","","","","","","false","null","","","noS.png","","",""
"image-slider-2AFC","575","1827464","0.0-51.1-1.1","4412","","","","-17","","","","","","","","sizeS.png","3403","-17",""
"html-keyboard-response","576","1828168","0.0-51.1-2.1","null","","","","","","","null","","","","","","","",""
"image-selector-fb","577","1831428","0.0-51.2-0.2","2751","pics2/VE6.jpg,pics2/SA4.jpg","","","","","","","false","0","","","sizeS.png","","",""
"image-slider-2AFC","578","1834180","0.0-51.2-1.2","2747","","","","-45","","","","","","","","sizeS.png","1766","-45",""
"html-keyboard-response","579","1835034","0.0-51.2-2.2","null","","","","","","","null","","","","","","","",""
"image-selector-fb","580","1838047","0.0-51.3-0.3","null","pics2/SA4.jpg,pics2/SW5.jpg","","","","","","","false","null","","","noS.png","","",""
"image-slider-2AFC","581","1842683","0.0-51.3-1.3","4630","","","","-18","","","","","","","","heartS.png","3514","-18",""
"html-keyboard-response","582","1843437","0.0-51.3-2.3","null","","","","","","","null","","","","","","","",""
"image-selector-fb","583","1846545","0.0-51.4-0.4","2599","pics2/SW5.jpg,pics2/SA6.jpg","","","","","","","true","1","","","heartS.png","","",""
"image-slider-2AFC","584","1849747","0.0-51.4-1.4","3198","","","","21","","","","","","","","heartS.png","2267","21",""
"html-keyboard-response","585","1850502","0.0-51.4-2.4","null","","","","","","","null","","","","","","","",""
"image-selector-fb","586","1855014","0.0-51.5-0.5","null","pics2/SA1.jpg,pics2/SW1.jpg","","","","","","","false","null","","","sizeS.png","","",""
"image-slider-2AFC","587","1855017","0.0-51.5-1.5","null","","","","null","","","","","","","","sizeS.png","","",""
"html-keyboard-response","588","1855871","0.0-51.5-2.5","null","","","","","","","null","","","","","","","",""
"image-selector-fb","589","1858929","0.0-51.6-0.6","2549","pics2/SA6.jpg,pics2/SW5.jpg","","","","","","","true","1","","","sizeS.png","","",""
"image-slider-2AFC","590","1862415","0.0-51.6-1.6","3481","","","","20","","","","","","","","sizeS.png","2284","20",""
"html-keyboard-response","591","1863269","0.0-51.6-2.6","null","","","","","","","null","","","","","","","",""
"image-selector-fb","592","1866278","0.0-51.7-0.7","null","pics2/SA6.jpg,pics2/SW5.jpg","","","","","","","false","null","","","noS.png","","",""
"image-slider-2AFC","593","1869881","0.0-51.7-1.7","3600","","","","26","","","","","","","","sizeS.png","2219","26",""
"html-keyboard-response","594","1870585","0.0-51.7-2.7","null","","","","","","","null","","","","","","","",""
"image-selector-fb","595","1875084","0.0-51.8-0.8","3989","pics2/SA5.jpg,pics2/VE6.jpg","","","","","","","false","0","","","heartS.png","","",""
"image-slider-2AFC","596","1877248","0.0-51.8-1.8","2160","","","","-9","","","","","","","","heartS.png","1214","-9",""
"html-keyboard-response","597","1878002","0.0-51.8-2.8","null","","","","","","","null","","","","","","","",""
"image-selector-fb","598","1881012","0.0-51.9-0.9","null","pics2/SW5.jpg,pics2/SW6.jpg","","","","","","","false","null","","","noS.png","","",""
"image-slider-2AFC","599","1886018","0.0-51.9-1.9","null","","","","null","","","","","","","","sizeS.png","3836,4419","-17,-35",""
"html-keyboard-response","600","1886872","0.0-51.9-2.9","null","","","","","","","null","","","","","","","",""
"image-selector-fb","601","1889881","0.0-51.10-0.10","null","pics2/SW4.jpg,pics2/SW3.jpg","","","","","","","false","null","","","noS.png","","",""
"image-slider-2AFC","602","1894317","0.0-51.10-1.10","4428","","","","35","","","","","","","","sizeS.png","3430","35",""
"html-keyboard-response","603","1895020","0.0-51.10-2.10","null","","","","","","","null","","","","","","","",""
"image-selector-fb","604","1899529","0.0-51.11-0.11","null","pics2/SW4.jpg,pics2/SA3.jpg","","","","","","","false","null","","","sizeS.png","","",""
"image-slider-2AFC","605","1899531","0.0-51.11-1.11","null","","","","null","","","","","","","","sizeS.png","","",""
"html-keyboard-response","606","1900233","0.0-51.11-2.11","null","","","","","","","null","","","","","","","",""
"image-selector-fb","607","1904740","0.0-51.12-0.12","null","pics2/SW4.jpg,pics2/SA5.jpg","","","","","","","false","null","","","sizeS.png","","",""
"image-slider-2AFC","608","1904742","0.0-51.12-1.12","null","","","","null","","","","","","","","heartS.png","","",""
"html-keyboard-response","609","1905496","0.0-51.12-2.12","null","","","","","","","null","","","","","","","",""
"image-selector-fb","610","1908505","0.0-51.13-0.13","null","pics2/SA1.jpg,pics2/SA6.jpg","","","","","","","false","null","","","noS.png","","",""
"image-slider-2AFC","611","1911784","0.0-51.13-1.13","3274","","","","-33","","","","","","","","sizeS.png","2228","-33",""
"html-keyboard-response","612","1912538","0.0-51.13-2.13","null","","","","","","","null","","","","","","","",""
"image-selector-fb","613","1915548","0.0-51.14-0.14","2496","pics2/SA4.jpg,pics2/SW1.jpg","","","","","","","true","1","","","heartS.png","","",""
"image-slider-2AFC","614","1918718","0.0-51.14-1.14","3165","","","","25","","","","","","","","heartS.png","2167","25",""
"html-keyboard-response","615","1919522","0.0-51.14-2.14","null","","","","","","","null","","","","","","","",""
"image-selector-fb","616","1922198","0.0-51.15-0.15","2168","pics2/SA3.jpg,pics2/SA1.jpg","","","","","","","false","0","","","heartS.png","","",""
"image-slider-2AFC","617","1926268","0.0-51.15-1.15","4065","","","","37","","","","","","","","sizeS.png","2369,3168","55,37",""
"html-keyboard-response","618","1927023","0.0-51.15-2.15","null","","","","","","","null","","","","","","","",""
"image-selector-fb","619","1930033","0.0-51.16-0.16","null","pics2/SA3.jpg,pics2/SW4.jpg","","","","","","","false","null","","","noS.png","","",""
"image-slider-2AFC","620","1933902","0.0-51.16-1.16","3865","","","","-15","","","","","","","","sizeS.png","3000","-15",""
"html-keyboard-response","621","1934606","0.0-51.16-2.16","null","","","","","","","null","","","","","","","",""
"image-selector-fb","622","1939032","0.0-51.17-0.17","3917","pics2/SW5.jpg,pics2/SA3.jpg","","","","","","","true","1","","","sizeS.png","","",""
"image-slider-2AFC","623","1941819","0.0-51.17-1.17","2778","","","","6","","","","","","","","sizeS.png","1797","6",""
"html-keyboard-response","624","1942573","0.0-51.17-2.17","null","","","","","","","null","","","","","","","",""
"image-selector-fb","625","1946318","0.0-51.18-0.18","3236","pics2/SW6.jpg,pics2/SA5.jpg","","","","","","","false","0","","","heartS.png","","",""
"image-slider-2AFC","626","1950319","0.0-51.18-1.18","3996","","","","11","","","","","","","","sizeS.png","3033","11",""
"html-keyboard-response","627","1951073","0.0-51.18-2.18","null","","","","","","","null","","","","","","","",""
"image-selector-fb","628","1954687","0.0-51.19-0.19","3105","pics2/VE6.jpg,pics2/SA1.jpg","","","","","","","true","1","","","sizeS.png","","",""
"image-slider-2AFC","629","1957636","0.0-51.19-1.19","2943","","","","18","","","","","","","","heartS.png","1951","18",""
"html-keyboard-response","630","1958490","0.0-51.19-2.19","null","","","","","","","null","","","","","","","",""
"image-selector-fb","631","1961200","0.0-51.20-0.20","2201","pics2/SA3.jpg,pics2/SW1.jpg","","","","","","","true","1","","","heartS.png","","",""
"image-slider-2AFC","632","1966120","0.0-51.20-1.20","4915","","","","11","","","","","","","","sizeS.png","3551","11",""
"html-keyboard-response","633","1966874","0.0-51.20-2.20","null","","","","","","","null","","","","","","","",""
"image-selector-fb","634","1970834","0.0-51.21-0.21","3452","pics2/SW5.jpg,pics2/SA5.jpg","","","","","","","false","0","","","sizeS.png","","",""
"image-slider-2AFC","635","1973787","0.0-51.21-1.21","2949","","","","-17","","","","","","","","heartS.png","1917","-17",""
"html-keyboard-response","636","1974641","0.0-51.21-2.21","null","","","","","","","null","","","","","","","",""
"image-selector-fb","637","1977805","0.0-51.22-0.22","2656","pics2/SW6.jpg,pics2/SA1.jpg","","","","","","","true","1","","","heartS.png","","",""
"image-slider-2AFC","638","1980188","0.0-51.22-1.22","2379","","","","18","","","","","","","","heartS.png","1431","18",""
"html-keyboard-response","639","1981041","0.0-51.22-2.22","null","","","","","","","null","","","","","","","",""
"image-selector-fb","640","1984151","0.0-51.23-0.23","2601","pics2/SW6.jpg,pics2/SW2.jpg","","","","","","","true","1","","","heartS.png","","",""
"image-slider-2AFC","641","1987637","0.0-51.23-1.23","3481","","","","56","","","","","","","","sizeS.png","2367","56",""
"html-keyboard-response","642","1988441","0.0-51.23-2.23","null","","","","","","","null","","","","","","","",""
"image-selector-fb","643","1992038","0.0-51.24-0.24","3084","pics2/SA6.jpg,pics2/SA4.jpg","","","","","","","false","0","","","sizeS.png","","",""
"image-slider-2AFC","644","1996872","0.0-51.24-1.24","4829","","","","-21","","","","","","","","heartS.png","2799,3757","-41,-21",""
"html-keyboard-response","645","1997727","0.0-51.24-2.24","null","","","","","","","null","","","","","","","",""
"image-selector-fb","646","2000736","0.0-51.25-0.25","null","pics2/SW1.jpg,pics2/SW3.jpg","","","","","","","false","null","","","noS.png","","",""
"image-slider-2AFC","647","2004624","0.0-51.25-1.25","3882","","","","80","","","","","","","","heartS.png","2919","80",""
"html-keyboard-response","648","2005327","0.0-51.25-2.25","null","","","","","","","null","","","","","","","",""
"image-selector-fb","649","2008337","0.0-51.26-0.26","null","pics2/SW5.jpg,pics2/SW4.jpg","","","","","","","false","null","","","noS.png","","",""
"image-slider-2AFC","650","2010941","0.0-51.26-1.26","2599","","","","100","","","","","","","","heartS.png","1586","100",""
"html-keyboard-response","651","2011746","0.0-51.26-2.26","null","","","","","","","null","","","","","","","",""
"image-selector-fb","652","2015353","0.0-51.27-0.27","3099","pics2/SW5.jpg,pics2/SW6.jpg","","","","","","","false","0","","","sizeS.png","","",""
"image-slider-2AFC","653","2017806","0.0-51.27-1.27","2448","","","","-31","","","","","","","","sizeS.png","1468","-31",""
"html-keyboard-response","654","2018659","0.0-51.27-2.27","null","","","","","","","null","","","","","","","",""
"image-selector-fb","655","2021988","0.0-51.28-0.28","2821","pics2/SW6.jpg,pics2/SA3.jpg","","","","","","","true","1","","","heartS.png","","",""
"image-slider-2AFC","656","2024857","0.0-51.28-1.28","2862","","","","30","","","","","","","","heartS.png","1930","30",""
"html-keyboard-response","657","2025562","0.0-51.28-2.28","null","","","","","","","null","","","","","","","",""
"image-selector-fb","658","2029026","0.0-51.29-0.29","2953","pics2/SW4.jpg,pics2/SW1.jpg","","","","","","","true","1","","","sizeS.png","","",""
"image-slider-2AFC","659","2031806","0.0-51.29-1.29","2775","","","","45","","","","","","","","sizeS.png","995,1829","25,45",""
"html-keyboard-response","660","2032560","0.0-51.29-2.29","null","","","","","","","null","","","","","","","",""
"image-selector-fb","661","2035971","0.0-51.30-0.30","2902","pics2/SA4.jpg,pics2/SA5.jpg","","","","","","","false","0","","","heartS.png","","",""
"image-slider-2AFC","662","2039573","0.0-51.30-1.30","3598","","","","24","","","","","","","","sizeS.png","2583","24",""
"html-keyboard-response","663","2040377","0.0-51.30-2.30","null","","","","","","","null","","","","","","","",""
"image-selector-fb","664","2043072","0.0-51.31-0.31","2187","pics2/SA4.jpg,pics2/SW4.jpg","","","","","","","true","1","","","heartS.png","","",""
"image-slider-2AFC","665","2047123","0.0-51.31-1.31","4047","","","","55","","","","","","","","sizeS.png","2333,3083","36,55",""
"html-keyboard-response","666","2047831","0.0-51.31-2.31","null","","","","","","","null","","","","","","","",""
"image-selector-fb","667","2050841","0.0-51.32-0.32","null","pics2/SA4.jpg,pics2/SW3.jpg","","","","","","","false","null","","","noS.png","","",""
"image-slider-2AFC","668","2054306","0.0-51.32-1.32","3461","","","","48","","","","","","","","sizeS.png","2582","48",""
"html-keyboard-response","669","2055161","0.0-51.32-2.32","null","","","","","","","null","","","","","","","",""
"image-selector-fb","670","2058170","0.0-51.33-0.33","null","pics2/SA3.jpg,pics2/SA5.jpg","","","","","","","false","null","","","noS.png","","",""
"image-slider-2AFC","671","2061357","0.0-51.33-1.33","3182","","","","-18","","","","","","","","sizeS.png","2285","-18",""
"html-keyboard-response","672","2062161","0.0-51.33-2.33","null","","","","","","","null","","","","","","","",""
"image-selector-fb","673","2066160","0.0-51.34-0.34","3490","pics2/SA5.jpg,pics2/SA6.jpg","","","","","","","true","1","","","heartS.png","","",""
"image-slider-2AFC","674","2069656","0.0-51.34-1.34","3492","","","","25","","","","","","","","sizeS.png","2598","25",""
"html-keyboard-response","675","2070461","0.0-51.34-2.34","null","","","","","","","null","","","","","","","",""
"image-selector-fb","676","2074773","0.0-51.35-0.35","3802","pics2/SW4.jpg,pics2/SW2.jpg","","","","","","","true","1","","","sizeS.png","","",""
"image-slider-2AFC","677","2077976","0.0-51.35-1.35","3199","","","","-97","","","","","","","","heartS.png","2167","-97",""
"html-keyboard-response","678","2078680","0.0-51.35-2.35","null","","","","","","","null","","","","","","","",""
"image-selector-fb","679","2082373","0.0-51.36-0.36","3184","pics2/SA5.jpg,pics2/SW5.jpg","","","","","","","true","1","","","heartS.png","","",""
"image-slider-2AFC","680","2085591","0.0-51.36-1.36","3214","","","","5","","","","","","","","heartS.png","2134","5",""
"html-keyboard-response","681","2086395","0.0-51.36-2.36","null","","","","","","","null","","","","","","","",""
"image-selector-fb","682","2088791","0.0-51.37-0.37","1887","pics2/SA5.jpg,pics2/SW3.jpg","","","","","","","true","1","","","heartS.png","","",""
"image-slider-2AFC","683","2090676","0.0-51.37-1.37","1881","","","","80","","","","","","","","sizeS.png","884","80",""
"html-keyboard-response","684","2091532","0.0-51.37-2.37","null","","","","","","","null","","","","","","","",""
"image-selector-fb","685","2094542","0.0-51.38-0.38","null","pics2/SW6.jpg,pics2/SA5.jpg","","","","","","","false","null","","","noS.png","","",""
"image-slider-2AFC","686","2099059","0.0-51.38-1.38","4512","","","","13","","","","","","","","sizeS.png","3465","13",""
"html-keyboard-response","687","2099763","0.0-51.38-2.38","null","","","","","","","null","","","","","","","",""
"image-selector-fb","688","2102940","0.0-51.39-0.39","2669","pics2/SA4.jpg,pics2/VE6.jpg","","","","","","","false","0","","","heartS.png","","",""
"image-slider-2AFC","689","2105893","0.0-51.39-1.39","2949","","","","-24","","","","","","","","heartS.png","1969","-24",""
"html-keyboard-response","690","2106698","0.0-51.39-2.39","null","","","","","","","null","","","","","","","",""
"image-selector-fb","691","2110808","0.0-51.40-0.40","3600","pics2/SW1.jpg,pics2/SW2.jpg","","","","","","","true","1","","","sizeS.png","","",""
"image-slider-2AFC","692","2114111","0.0-51.40-1.40","3299","","","","24","","","","","","","","sizeS.png","2035","24",""
"html-keyboard-response","693","2114815","0.0-51.40-2.40","null","","","","","","","null","","","","","","","",""
"image-selector-fb","694","2118558","0.0-51.41-0.41","3235","pics2/SA6.jpg,pics2/VE6.jpg","","","","","","","false","0","","","sizeS.png","","",""
"image-slider-2AFC","695","2121296","0.0-51.41-1.41","2733","","","","-6","","","","","","","","sizeS.png","1754","-6",""
"html-keyboard-response","696","2122051","0.0-51.41-2.41","null","","","","","","","null","","","","","","","",""
"image-selector-fb","697","2124708","0.0-51.42-0.42","2147","pics2/SW2.jpg,pics2/SW3.jpg","","","","","","","true","1","","","heartS.png","","",""
"image-slider-2AFC","698","2126643","0.0-51.42-1.42","1930","","","","77","","","","","","","","heartS.png","950","77",""
"html-keyboard-response","699","2127347","0.0-51.42-2.42","null","","","","","","","null","","","","","","","",""
"image-selector-fb","700","2130561","0.0-51.43-0.43","2704","pics2/SW6.jpg,pics2/SW5.jpg","","","","","","","false","0","","","heartS.png","","",""
"image-slider-2AFC","701","2132694","0.0-51.43-1.43","2129","","","","9","","","","","","","","heartS.png","1224","9",""
"html-keyboard-response","702","2133398","0.0-51.43-2.43","null","","","","","","","null","","","","","","","",""
"image-selector-fb","703","2137290","0.0-51.44-0.44","3382","pics2/SA6.jpg,pics2/SW6.jpg","","","","","","","false","0","","","sizeS.png","","",""
"image-slider-2AFC","704","2139313","0.0-51.44-1.44","2019","","","","-9","","","","","","","","sizeS.png","1102","-9",""
"html-keyboard-response","705","2140017","0.0-51.44-2.44","null","","","","","","","null","","","","","","","",""
"image-selector-fb","706","2143030","0.0-51.45-0.45","null","pics2/SA6.jpg,pics2/SA3.jpg","","","","","","","false","null","","","noS.png","","",""
"image-slider-2AFC","707","2146228","0.0-51.45-1.45","3192","","","","71","","","","","","","","sizeS.png","2195","71",""
"html-keyboard-response","708","2147032","0.0-51.45-2.45","null","","","","","","","null","","","","","","","",""
