"trial_type","trial_index","time_elapsed","internal_node_id","rt","stimulus","button_pressed","success","response","cat","value","key_press","correct","image_click","first_click_rt","first_click_val","symbol","all_click_rt","all_click_val","view_history"
"pavlovia","0","7","0.0-0.0","","","","","","","","","","","","","","","",""
"html-button-response","1","5137","0.0-1.0","5126","<div style='width: 700px; font-size: 150%'><font size='40'>  Welcome to our study!</font><br><br><br> <small> Our experiment is about <i>decision making</i>. You will choose and rate different food items, such as these: <br><br> <div><img src='food_combo2.png', height = '400px'></img></div>","0","","","","","","","","","","","","",""
"html-button-response","2","17056","0.0-2.0","11919","<div style='width: 700px; font-size: 150%'><br><br><br><small> <u><i>This is a multi-part study.</i></u><br><br> In the first part you will rate 24 food items twice.<br><br><div><img src=""rat1.png"" style=""width: 25%""></img></div><br>In the second part (longest) you will make repeated choices and judgements concerning the food items.<br><br><div><img src=""mainx.png"" style=""width: 50%""></img></div><br>In the third and final part, you will rate the items again and answer few short questionnaires.<br><br><div><img src=""rat2.png"" style=""width: 50%""></img></div><br><br>","0","","","","","","","","","","","","",""
"fullscreen","3","21754","0.0-3.0","","","","true","","","","","","","","","","","",""
"html-button-response","4","89214","0.0-4.0","67458","<div style='width: 900px; font-size: 150%;' <font size='20%'> In the first part of the task you will use the mouse to rate food items on <i>2 scales</i> </font></div><br><br><div style='width: 900px'><div style='float: left; width: 50%; margin-right:2.5em'><img src='heartS.png'></img><p class='small' style='text-align: justify'>When you see the heart cue you will rate food items in terms of how much like them/would like to eat them <i>right now</i>. You will rate them on a continuous scale from left (strong dislike) to right (strong liking). Before submitting your rating, try imagining how the item tastes and how much you desire it.<br><br></p></div><div ><img src='sizeS.png'></img><p class='small' style='text-align: justify'>When you see the size cue, you will rate the same food items in terms of their size. The scale goes from left (tiny) to right (very large). You should assess picture size <i><u>relative</i></u> to the white background. <b>Remember:</b> rate the size of the picture, <u>not</u> the size of the item in real life. </p></div><div style='width: 900px'><br><br><b><i>Notice:</b> by starting the rating you agree that your sumbission might be rejected at an early stage and the experiment might end, if your size ratings are not at least modestly related to objective sizes, or if you repeat the same value ratings too many times. If you don't agree, please exit by closing the browser window. </i><br><br><br>","0","","","","","","","","","","","","",""
"html-button-response","5","114347","0.0-5.0","25131","<div><img src='heartS.png'></img></div><br><div style='text-align: justify; width: 700px'>Using the mouse, rate the <b><i>likeness</b></i> of the food items (how much you like them/would like to eat them <i>right now</i>). Far right-end of the scale indicates an item you <i>like a lot</i>. Far left-end indicates an item you <i>dislike a lot</i>. Think about each answer.   <ul><li>Try <b><i>not</b></i> to give identical rating to different items.</li><li>Use the whole scale, and <b><i>not</b></i> just the extremes</ul></div><br>","0","","","","","","","","","","","","",""
"image-slider-response","6","120184","0.0-6.0-0.0-0.0","5835","pics2/FR2.jpg","","","67","FR","","","","","","","","","",""
"image-slider-response","7","125604","0.0-6.0-0.0-0.1","5216","pics2/SA4.jpg","","","70","SA","","","","","","","","","",""
"image-slider-response","8","130805","0.0-6.0-0.0-0.2","4997","pics2/VE3.jpg","","","21","VE","","","","","","","","","",""
"image-slider-response","9","133766","0.0-6.0-0.0-0.3","2749","pics2/SA2.jpg","","","100","SA","","","","","","","","","",""
"image-slider-response","10","137304","0.0-6.0-0.0-0.4","3335","pics2/VE4.jpg","","","94","VE","","","","","","","","","",""
"image-slider-response","11","141109","0.0-6.0-0.0-0.5","3601","pics2/FR6.jpg","","","72","FR","","","","","","","","","",""
"image-slider-response","12","146971","0.0-6.0-0.0-0.6","5657","pics2/VE1.jpg","","","0","VE","","","","","","","","","",""
"image-slider-response","13","150948","0.0-6.0-0.0-0.7","3773","pics2/SA5.jpg","","","0","SA","","","","","","","","","",""
"image-slider-response","14","155990","0.0-6.0-0.0-0.8","4838","pics2/VE6.jpg","","","75","VE","","","","","","","","","",""
"image-slider-response","15","159514","0.0-6.0-0.0-0.9","3321","pics2/VE5.jpg","","","33","VE","","","","","","","","","",""
"image-slider-response","16","163150","0.0-6.0-0.0-0.10","3431","pics2/SW4.jpg","","","56","SW","","","","","","","","","",""
"image-slider-response","17","166306","0.0-6.0-0.0-0.11","2953","pics2/FR4.jpg","","","33","FR","","","","","","","","","",""
"image-slider-response","18","168900","0.0-6.0-0.0-0.12","2391","pics2/FR1.jpg","","","32","FR","","","","","","","","","",""
"image-slider-response","19","175043","0.0-6.0-0.0-0.13","5940","pics2/SA3.jpg","","","28","SA","","","","","","","","","",""
"image-slider-response","20","179914","0.0-6.0-0.0-0.14","4666","pics2/SA1.jpg","","","19","SA","","","","","","","","","",""
"image-slider-response","21","184930","0.0-6.0-0.0-0.15","4812","pics2/SW2.jpg","","","16","SW","","","","","","","","","",""
"image-slider-response","22","188319","0.0-6.0-0.0-0.16","3185","pics2/SW6.jpg","","","71","SW","","","","","","","","","",""
"image-slider-response","23","191720","0.0-6.0-0.0-0.17","3198","pics2/VE2.jpg","","","26","VE","","","","","","","","","",""
"image-slider-response","24","195611","0.0-6.0-0.0-0.18","3688","pics2/FR5.jpg","","","16","FR","","","","","","","","","",""
"image-slider-response","25","199441","0.0-6.0-0.0-0.19","3625","pics2/SW1.jpg","","","8","SW","","","","","","","","","",""
"image-slider-response","26","203968","0.0-6.0-0.0-0.20","4323","pics2/SA6.jpg","","","77","SA","","","","","","","","","",""
"image-slider-response","27","207345","0.0-6.0-0.0-0.21","3173","pics2/FR3.jpg","","","25","FR","","","","","","","","","",""
"image-slider-response","28","211518","0.0-6.0-0.0-0.22","3969","pics2/SW5.jpg","","","61","SW","","","","","","","","","",""
"image-slider-response","29","214907","0.0-6.0-0.0-0.23","3185","pics2/SW3.jpg","","","29","SW","","","","","","","","","",""
"html-button-response","30","216487","0.0-7.0","1376","<div style='width: 900px;'> <font size = 6><b> End of the first rating</b><br><br>","0","","","","","","","","","","","","",""
"html-button-response","31","250332","0.0-9.0","33844","<div ><img src='sizeS.png'></img></div><br><div style='text-align: justify; width: 700px'> Using the mouse, rate the <b><i>size</b></i> of the food items <b><i> relative to the white background.</b></i> Right-end of the scale indicates a <i>very large item</i>, which covers a large portion of the white rectangle. Left-end indicates a <i>very tiny</i> item which covers a tiny portion of the white rectangle.<br><br><i><u>Remember</i></u>: everything that is not the white background also contributes to item size (e.g. packing, plates, ect.)<br><br> Please keep in mind that if the accuracy of ratings do not allign well with actual sizes, the experiment will end.  As a result it will be consider incomplete and therefore no payment would be made. Good luck!<br><br></div><br>","0","","","","","","","","","","","","",""
"html-button-response","32","259682","0.0-10.0","9348","<div ><img src='sizeS.png'></img></div><br><b><font size=6>Examples of items that you might encounter</b><br><div style='width: 750px;'><div style='width: 33.33%; float:left'><br><br><br><i>Large Item</i><br><br><img src='large.jpg', width=200px></img></div><div style='float:right'><br><br><br><i>Small Item</i><br><br><img src='small.jpg', width=200px></img></div><div ><br><br><br><i>Medium Item</i><br><br><img src='med.jpg', width=200px></img></div></div><br><br>","0","","","","","","","","","","","","",""
"image-slider-response","33","266890","0.0-11.0-0.0-0.0","7206","pics2/VE4.jpg","","","90","null","","","","","","","","","",""
"image-slider-response","34","276950","0.0-11.0-0.0-0.1","9856","pics2/SW4.jpg","","","32","null","","","","","","","","","",""
"image-slider-response","35","285601","0.0-11.0-0.0-0.2","8447","pics2/VE2.jpg","","","22","null","","","","","","","","","",""
"image-slider-response","36","290410","0.0-11.0-0.0-0.3","4606","pics2/FR6.jpg","","","23","null","","","","","","","","","",""
"image-slider-response","37","294229","0.0-11.0-0.0-0.4","3615","pics2/SA6.jpg","","","38","null","","","","","","","","","",""
"image-slider-response","38","298708","0.0-11.0-0.0-0.5","4274","pics2/SW6.jpg","","","11","null","","","","","","","","","",""
"image-slider-response","39","302074","0.0-11.0-0.0-0.6","3147","pics2/SA1.jpg","","","70","null","","","","","","","","","",""
"image-slider-response","40","305023","0.0-11.0-0.0-0.7","2745","pics2/VE5.jpg","","","61","null","","","","","","","","","",""
"image-slider-response","41","309686","0.0-11.0-0.0-0.8","4459","pics2/VE1.jpg","","","63","null","","","","","","","","","",""
"image-slider-response","42","315705","0.0-11.0-0.0-0.9","5814","pics2/FR4.jpg","","","14","null","","","","","","","","","",""
"image-slider-response","43","318581","0.0-11.0-0.0-0.10","2671","pics2/SW5.jpg","","","27","null","","","","","","","","","",""
"image-slider-response","44","326754","0.0-11.0-0.0-0.11","7971","pics2/SA3.jpg","","","34","null","","","","","","","","","",""
"image-slider-response","45","331503","0.0-11.0-0.0-0.12","4543","pics2/SW1.jpg","","","88","null","","","","","","","","","",""
"image-slider-response","46","336496","0.0-11.0-0.0-0.13","4790","pics2/SA5.jpg","","","24","null","","","","","","","","","",""
"image-slider-response","47","339360","0.0-11.0-0.0-0.14","2660","pics2/SA2.jpg","","","99","null","","","","","","","","","",""
"image-slider-response","48","341893","0.0-11.0-0.0-0.15","2329","pics2/SA4.jpg","","","88","null","","","","","","","","","",""
"image-slider-response","49","344500","0.0-11.0-0.0-0.16","2404","pics2/VE6.jpg","","","70","null","","","","","","","","","",""
"image-slider-response","50","348135","0.0-11.0-0.0-0.17","3431","pics2/SW3.jpg","","","100","null","","","","","","","","","",""
"image-slider-response","51","350485","0.0-11.0-0.0-0.18","2145","pics2/FR5.jpg","","","27","null","","","","","","","","","",""
"image-slider-response","52","353702","0.0-11.0-0.0-0.19","3007","pics2/VE3.jpg","","","64","null","","","","","","","","","",""
"image-slider-response","53","357508","0.0-11.0-0.0-0.20","3603","pics2/SW2.jpg","","","33","null","","","","","","","","","",""
"image-slider-response","54","360946","0.0-11.0-0.0-0.21","3231","pics2/FR3.jpg","","","29","null","","","","","","","","","",""
"image-slider-response","55","364068","0.0-11.0-0.0-0.22","2918","pics2/FR1.jpg","","","93","null","","","","","","","","","",""
"image-slider-response","56","366711","0.0-11.0-0.0-0.23","2440","pics2/FR2.jpg","","","99","null","","","","","","","","","",""
"html-button-response","57","368265","0.0-12.0","1352","<div style='width: 900px;'> <font size = 6><b> End of the second rating</b><br><br>","0","","","","","","","","","","","","",""
"html-button-response","58","377543","0.0-13.0","9276","<div style='width: 900px;'>Now please rate the items for the second time. <br><br>This is not a memory test - you don't need to be consistent with your previous ratings. Just as before, try to make accurate judgements.<br><br>","0","","","","","","","","","","","","",""
"html-button-response","59","379182","0.0-14.0","1639","<div><img src='heartS.png'></img></div><br><div style='text-align: justify; width: 700px'>Using the mouse, rate the <b><i>likeness</b></i> of the food items (how much you like them/would like to eat them <i>right now</i>). Far right-end of the scale indicates an item you <i>like a lot</i>. Far left-end indicates an item you <i>dislike a lot</i>. Think about each answer.   <ul><li>Try <b><i>not</b></i> to give identical rating to different items.</li><li>Use the whole scale, and <b><i>not</b></i> just the extremes</ul></div><br>","0","","","","","","","","","","","","",""
"image-slider-response","60","387772","0.0-15.0-0.0-0.0","8588","pics2/FR5.jpg","","","28","FR","","","","","","","","","",""
"image-slider-response","61","391150","0.0-15.0-0.0-0.1","3175","pics2/FR6.jpg","","","31","FR","","","","","","","","","",""
"image-slider-response","62","397160","0.0-15.0-0.0-0.2","5807","pics2/SA2.jpg","","","89","SA","","","","","","","","","",""
"image-slider-response","63","400673","0.0-15.0-0.0-0.3","3310","pics2/VE3.jpg","","","20","VE","","","","","","","","","",""
"image-slider-response","64","403709","0.0-15.0-0.0-0.4","2831","pics2/SA3.jpg","","","62","SA","","","","","","","","","",""
"image-slider-response","65","406903","0.0-15.0-0.0-0.5","2992","pics2/VE6.jpg","","","70","VE","","","","","","","","","",""
"image-slider-response","66","413280","0.0-15.0-0.0-0.6","6173","pics2/FR2.jpg","","","32","FR","","","","","","","","","",""
"image-slider-response","67","418921","0.0-15.0-0.0-0.7","5437","pics2/SW5.jpg","","","62","SW","","","","","","","","","",""
"image-slider-response","68","427795","0.0-15.0-0.0-0.8","8671","pics2/SW4.jpg","","","71","SW","","","","","","","","","",""
"image-slider-response","69","431712","0.0-15.0-0.0-0.9","3712","pics2/VE1.jpg","","","12","VE","","","","","","","","","",""
"image-slider-response","70","435017","0.0-15.0-0.0-0.10","3102","pics2/VE5.jpg","","","12","VE","","","","","","","","","",""
"image-slider-response","71","438383","0.0-15.0-0.0-0.11","3161","pics2/SA5.jpg","","","19","SA","","","","","","","","","",""
"image-slider-response","72","441897","0.0-15.0-0.0-0.12","3309","pics2/VE4.jpg","","","87","VE","","","","","","","","","",""
"image-slider-response","73","444565","0.0-15.0-0.0-0.13","2465","pics2/FR1.jpg","","","34","FR","","","","","","","","","",""
"image-slider-response","74","447895","0.0-15.0-0.0-0.14","3127","pics2/SA4.jpg","","","77","SA","","","","","","","","","",""
"image-slider-response","75","451005","0.0-15.0-0.0-0.15","2905","pics2/VE2.jpg","","","9","VE","","","","","","","","","",""
"image-slider-response","76","454554","0.0-15.0-0.0-0.16","3346","pics2/FR3.jpg","","","61","FR","","","","","","","","","",""
"image-slider-response","77","458607","0.0-15.0-0.0-0.17","3848","pics2/SW1.jpg","","","24","SW","","","","","","","","","",""
"image-slider-response","78","461655","0.0-15.0-0.0-0.18","2843","pics2/SA6.jpg","","","89","SA","","","","","","","","","",""
"image-slider-response","79","465767","0.0-15.0-0.0-0.19","3909","pics2/SW3.jpg","","","23","SW","","","","","","","","","",""
"image-slider-response","80","469845","0.0-15.0-0.0-0.20","3872","pics2/SW2.jpg","","","31","SW","","","","","","","","","",""
"image-slider-response","81","473321","0.0-15.0-0.0-0.21","3269","pics2/SA1.jpg","","","21","SA","","","","","","","","","",""
"image-slider-response","82","477324","0.0-15.0-0.0-0.22","3800","pics2/FR4.jpg","","","61","FR","","","","","","","","","",""
"image-slider-response","83","480311","0.0-15.0-0.0-0.23","2784","pics2/SW6.jpg","","","79","SW","","","","","","","","","",""
"call-function","84","480533","0.0-16.0","","","","","","","","","","","","","","","",""
"call-function","85","480541","0.0-17.0","","","","","","","","","","","","","","","",""
"html-button-response","86","481645","0.0-18.0","1103","<div style='width: 900px;'> <font size = 6><b> End of the first rating</b><br><br>","0","","","","","","","","","","","","",""
"html-button-response","87","486517","0.0-19.0","4870","<div ><img src='sizeS.png'></img></div><br><div style='text-align: justify; width: 700px'> Using the mouse, rate the <b><i>size</b></i> of the food items <b><i> relative to the white background.</b></i> Right-end of the scale indicates a <i>very large item</i>, which covers a large portion of the white rectangle. Left-end indicates a <i>very tiny</i> item which covers a tiny portion of the white rectangle.<br><br><i><u>Remember</i></u>: everything that is not the white background also contributes to item size (e.g. packing, plates, ect.)<br><br> Please keep in mind that if the accuracy of ratings do not allign well with actual sizes, the experiment will end.  As a result it will be consider incomplete and therefore no payment would be made. Good luck!<br><br></div><br>","0","","","","","","","","","","","","",""
"image-slider-response","88","492490","0.0-20.0-0.0-0.0","5971","pics2/SA1.jpg","","","80","null","","","","","","","","","",""
"image-slider-response","89","496053","0.0-20.0-0.0-0.1","3359","pics2/VE4.jpg","","","99","null","","","","","","","","","",""
"image-slider-response","90","499211","0.0-20.0-0.0-0.2","2955","pics2/SW6.jpg","","","27","null","","","","","","","","","",""
"image-slider-response","91","507314","0.0-20.0-0.0-0.3","7900","pics2/VE6.jpg","","","81","null","","","","","","","","","",""
"image-slider-response","92","509531","0.0-20.0-0.0-0.4","2012","pics2/SW5.jpg","","","29","null","","","","","","","","","",""
"image-slider-response","93","513716","0.0-20.0-0.0-0.5","3982","pics2/SW3.jpg","","","87","null","","","","","","","","","",""
"image-slider-response","94","519150","0.0-20.0-0.0-0.6","5229","pics2/VE1.jpg","","","76","null","","","","","","","","","",""
"image-slider-response","95","522357","0.0-20.0-0.0-0.7","2989","pics2/SA4.jpg","","","97","null","","","","","","","","","",""
"image-slider-response","96","525037","0.0-20.0-0.0-0.8","2470","pics2/FR6.jpg","","","37","null","","","","","","","","","",""
"image-slider-response","97","529700","0.0-20.0-0.0-0.9","4459","pics2/VE2.jpg","","","31","null","","","","","","","","","",""
"image-slider-response","98","533419","0.0-20.0-0.0-0.10","3516","pics2/SA6.jpg","","","71","null","","","","","","","","","",""
"image-slider-response","99","536613","0.0-20.0-0.0-0.11","2985","pics2/FR5.jpg","","","22","null","","","","","","","","","",""
"image-slider-response","100","541607","0.0-20.0-0.0-0.12","4789","pics2/SA2.jpg","","","100","null","","","","","","","","","",""
"image-slider-response","101","545633","0.0-20.0-0.0-0.13","3822","pics2/SW4.jpg","","","24","null","","","","","","","","","",""
"image-slider-response","102","552010","0.0-20.0-0.0-0.14","6172","pics2/VE5.jpg","","","84","null","","","","","","","","","",""
"image-slider-response","103","555154","0.0-20.0-0.0-0.15","2940","pics2/FR1.jpg","","","84","null","","","","","","","","","",""
"image-slider-response","104","558522","0.0-20.0-0.0-0.16","3164","pics2/SW2.jpg","","","69","null","","","","","","","","","",""
"image-slider-response","105","564924","0.0-20.0-0.0-0.17","6196","pics2/FR3.jpg","","","28","null","","","","","","","","","",""
"image-slider-response","106","568143","0.0-20.0-0.0-0.18","3014","pics2/SA5.jpg","","","27","null","","","","","","","","","",""
"image-slider-response","107","573357","0.0-20.0-0.0-0.19","5009","pics2/VE3.jpg","","","67","null","","","","","","","","","",""
"image-slider-response","108","578890","0.0-20.0-0.0-0.20","5328","pics2/SA3.jpg","","","34","null","","","","","","","","","",""
"image-slider-response","109","582992","0.0-20.0-0.0-0.21","3896","pics2/SW1.jpg","","","71","null","","","","","","","","","",""
"image-slider-response","110","588291","0.0-20.0-0.0-0.22","5095","pics2/FR4.jpg","","","11","null","","","","","","","","","",""
"image-slider-response","111","596125","0.0-20.0-0.0-0.23","7630","pics2/FR2.jpg","","","66","null","","","","","","","","","",""
"call-function","112","596333","0.0-21.0","","","","","","","","","","","","","","","",""
"html-button-response","113","598414","0.0-22.0","2080","<div style='width: 900px;'> <font size = 6><b> End of the second rating</b><br><br>","0","","","","","","","","","","","","",""
"pavlovia","114","598421","0.0-23.0","","","","","","","","","","","","","","","",""
"html-keyboard-response","115","603424","0.0-24.0","null","<div style='width: 700px;'> <font size=6><b>SHORT BREAK</font></b><br><br><i> Please wait 5 seconds to continue</i></div> ","","","","","","null","","","","","","","",""
"pavlovia","116","603427","0.0-25.0","","","","","","","","","","","","","","","",""
"html-button-response","117","623970","0.0-26.0","20542","<div style='width: 700px;'>In the main part of the study, you will be choosing between 2 items. When it's time to choose,  this symbol will appear: <br><br><img src='chooseS.png'></img><br><br>Below, a cue will signify the type of choice: </div><br><div style='width: 700px;'><div style='float: left; width: 50%'><img src='heartS.png'></img><p class='small'>Heart cue means you should choose the item you <b><i>prefer</b></i> more.</p></div><div class='float: right; width:50%'><img src='sizeS.png'></img><p class='small'>Size cue means you should choose the <b><i>larger</b></i> item. </p></div></div><br><div style='width: 700px;'>When you click, a green square will appear around the item you chose.<br></div><div><br>","0","","","","","","","","","","","","",""
"image-selector-fb-tut","118","631350","0.0-27.0","6374","0232.jpg,0123.jpg","","","","","","","false","0","","","","","",""
"image-selector-fb-tut","119","635253","0.0-28.0","2899","0232.jpg,0123.jpg","","","","","","","false","0","","","","","",""
"html-button-response","120","639636","0.0-29.0","4383","<div style='width: 900px;'>Your choices should be both <b><i>fast and accurate</b></i>. <br><br>You will have <i>4 seconds</i> to make each choice, which should be enough consider the options and click on one of the items.<br><br>","0","","","","","","","","","","","","",""
"html-button-response","121","646343","0.0-30.0","6706","<div style='width: 900px;'>Additionally, on some choice trials you will see the <b><i>no-choice cue</b></i>: <br><br><img src='noS.png'></img> <br><br>This cue means you can't make any choice. You can examine the items, but  can't click on any of them. Just wait patiently for the cue to dissapear.<br><br>","0","","","","","","","","","","","","",""
"image-selector-fb-tut","122","648350","0.0-31.0","null","0232.jpg,0123.jpg","","","","","","","false","null","","","","","",""
"html-button-response","123","653320","0.0-32.0","4968","<div style='width: 900px;'>After each choice the items will remain on the screen and you will see this symbol: <br><br><img src='judgeS.png'></img> <br><br>This means you should rate<b> the magnitude of the difference</b> between the items using a scale: </div><br><div style='width: 900px; '><div style='float: left; width: 50%; margin-right: 2.5em; align-self:left'><img src='heartS.png'></img><p class='small' style = 'text-align: justify;'>Heart cue means you should rate <b>how much you prefer</b> one of the items over the other. Moving the scale indicator to the left means you prefer the left one; moving it to the right - right one. The more you prefer one of them, the more towards that side you should move the scale indicator. </p></div><div class='float: right; width: 50%; margin-left: 2.5em;'><img src='sizeS.png'></img><p class='small' style='text-align: justify'>Size cue means you should rate <b>how much larger</b> is one of the items over the other. Moving the scale indicator to the left means you think the left is larger; moving it to the right - right one. The greater the difference in size, the more towards that side you should move the scale indicator.</div><br>","0","","","","","","","","","","","","",""
"image-slider-2AFC-tut","124","663073","0.0-33.0","9751","","","","15","","","","","","7963","15","","","",""
"image-slider-2AFC-tut","125","668619","0.0-34.0","5543","","","","12","","","","","","4772","12","","","",""
"html-button-response","126","690587","0.0-35.0","21966","<br><br><font size = 36><b> Examples </b></font><br><br><i> 1) I would like to eat some croissants a <b>lot more</b> than doritos right now:</i><br><img src='ex1.PNG', width='62%'></img><br><br><br><i> 2) I would like to eat some doritos a <b>bit more</b> than croissants right now, but just slightly:</i><br><img src='ex2.PNG' width='62%'></img>","0","","","","","","","","","","","","",""
"html-button-response","127","694098","0.0-36.0","3510","<div style='width: 900px;'><i>Now you know everything you need to do the task!</i> <br><br>Let's start by doing a <b>short training</b>, so you'll get used to how it works. </div><br>","0","","","","","","","","","","","","",""
"image-selector-fb","128","697107","0.0-37.0-0.0","null","pics2/SA1.jpg,pics2/SW2.jpg","","","","","","","false","null","","","noS.png","","",""
"image-slider-2AFC","129","702113","0.0-37.0-1.0","null","","","","null","","","","","","","","heartS.png","4833","-37",""
"html-keyboard-response","130","702967","0.0-37.0-2.0","null","","","","","","","null","","","","","","","",""
"image-selector-fb","131","706801","0.0-37.1-0.1","3327","pics2/VE2.jpg,pics2/SW2.jpg","","","","","","","true","1","","","heartS.png","","",""
"image-slider-2AFC","132","709908","0.0-37.1-1.1","3104","","","","13","","","","","","","","heartS.png","2565","13",""
"html-keyboard-response","133","710661","0.0-37.1-2.1","null","","","","","","","null","","","","","","","",""
"image-selector-fb","134","713115","0.0-37.2-0.2","1948","pics2/VE1.jpg,pics2/FR5.jpg","","","","","","","true","1","","","heartS.png","","",""
"image-slider-2AFC","135","718119","0.0-37.2-1.2","null","","","","null","","","","","","","","sizeS.png","3374","16",""
"html-keyboard-response","136","718973","0.0-37.2-2.2","null","","","","","","","null","","","","","","","",""
"image-selector-fb","137","721596","0.0-37.3-0.3","2116","pics2/VE2.jpg,pics2/SA5.jpg","","","","","","","false","0","","","heartS.png","","",""
"image-slider-2AFC","138","725621","0.0-37.3-1.3","4021","","","","-36","","","","","","","","sizeS.png","3471","-36",""
"html-keyboard-response","139","726475","0.0-37.3-2.3","null","","","","","","","null","","","","","","","",""
"image-selector-fb","140","729928","0.0-37.4-0.4","2947","pics2/SW1.jpg,pics2/FR1.jpg","","","","","","","false","0","","","heartS.png","","",""
"image-slider-2AFC","141","734934","0.0-37.4-1.4","null","","","","null","","","","","","","","sizeS.png","3214,4915","-13,-69",""
"html-keyboard-response","142","735737","0.0-37.4-2.4","null","","","","","","","null","","","","","","","",""
"image-selector-fb","143","737528","0.0-37.5-0.5","1284","pics2/FR3.jpg,pics2/SW1.jpg","","","","","","","true","1","","","sizeS.png","","",""
"image-slider-2AFC","144","742262","0.0-37.5-1.5","4731","","","","19","","","","","","","","heartS.png","2993","19",""
"html-keyboard-response","145","742967","0.0-37.5-2.5","null","","","","","","","null","","","","","","","",""
"image-selector-fb","146","745977","0.0-37.6-0.6","null","pics2/FR5.jpg,pics2/VE5.jpg","","","","","","","false","null","","","noS.png","","",""
"image-slider-2AFC","147","750353","0.0-37.6-1.6","4372","","","","-24","","","","","","","","sizeS.png","3821","-24",""
"html-keyboard-response","148","751107","0.0-37.6-2.6","null","","","","","","","null","","","","","","","",""
"image-selector-fb","149","753877","0.0-37.7-0.7","2264","pics2/VE3.jpg,pics2/SW2.jpg","","","","","","","false","0","","","sizeS.png","","",""
"image-slider-2AFC","150","757658","0.0-37.7-1.7","3777","","","","-33","","","","","","","","sizeS.png","3031","-33",""
"html-keyboard-response","151","758512","0.0-37.7-2.7","null","","","","","","","null","","","","","","","",""
"image-selector-fb","152","761521","0.0-37.8-0.8","null","pics2/FR5.jpg,pics2/SA1.jpg","","","","","","","false","null","","","noS.png","","",""
"image-slider-2AFC","153","766527","0.0-37.8-1.8","null","","","","null","","","","","","","","heartS.png","","",""
"html-keyboard-response","154","767280","0.0-37.8-2.8","null","","","","","","","null","","","","","","","",""
"image-selector-fb","155","769297","0.0-37.9-0.9","1510","pics2/FR3.jpg,pics2/SW2.jpg","","","","","","","true","1","","","sizeS.png","","",""
"image-slider-2AFC","156","772772","0.0-37.9-1.9","3471","","","","61","","","","","","","","sizeS.png","2896","61",""
"html-keyboard-response","157","773475","0.0-37.9-2.9","null","","","","","","","null","","","","","","","",""
"image-selector-fb","158","776677","0.0-37.10-0.10","2695","pics2/VE1.jpg,pics2/SA1.jpg","","","","","","","true","1","","","heartS.png","","",""
"image-slider-2AFC","159","779281","0.0-37.10-1.10","2601","","","","24","","","","","","","","heartS.png","2002","24",""
"html-keyboard-response","160","780086","0.0-37.10-2.10","null","","","","","","","null","","","","","","","",""
"image-selector-fb","161","783096","0.0-37.11-0.11","null","pics2/SA1.jpg,pics2/SW3.jpg","","","","","","","false","null","","","noS.png","","",""
"image-slider-2AFC","162","788100","0.0-37.11-1.11","null","","","","null","","","","","","","","heartS.png","","",""
"html-keyboard-response","163","788903","0.0-37.11-2.11","null","","","","","","","null","","","","","","","",""
"html-button-response","164","792202","0.0-38.0","3297","<i><font size=10>Good job!</font></i> <br><br>Before we begin, you have a chance to review the rules, in case something was not clear.<br><br>","0","","","","","","","","","","","","",""
"instructions","165","799166","0.0-39.0","6963","","","","","","","","","","","","","","","[{""page_index"":0,""viewing_time"":2862},{""page_index"":1,""viewing_time"":2925},{""page_index"":2,""viewing_time"":1175}]"
"html-button-response","166","802163","0.0-40.0","2996","<div style='width: 900px;'> <font size='40'>Great! Now you're ready to begin</font><br><br>The main part of the experiment will consist of <u>3 blocks</u>. Each block consists of 66 decisions and judgements. You will have time for a short break between blocks.<br><br><br><i><u>Do your best to respond within the time limit.</u></i><br><br><i> Press the button to start the experiment<br><br></i>","0","","","","","","","","","","","","",""
"image-selector-fb","167","804072","0.0-41.0-0.0","1405","pics2/VE4.jpg,pics2/SA2.jpg","","","","","","","false","0","","","sizeS.png","","",""
"image-slider-2AFC","168","807059","0.0-41.0-1.0","2983","","","","-31","","","","","","","","heartS.png","2041","-31",""
"html-keyboard-response","169","807912","0.0-41.0-2.0","null","","","","","","","null","","","","","","","",""
"image-selector-fb","170","810241","0.0-41.1-0.1","1823","pics2/SA4.jpg,pics2/FR2.jpg","","","","","","","false","0","","","heartS.png","","",""
"image-slider-2AFC","171","812664","0.0-41.1-1.1","2419","","","","-89","","","","","","","","heartS.png","1648","-89",""
"html-keyboard-response","172","813416","0.0-41.1-2.1","null","","","","","","","null","","","","","","","",""
"image-selector-fb","173","815932","0.0-41.2-0.2","2012","pics2/VE4.jpg,pics2/SW5.jpg","","","","","","","false","0","","","sizeS.png","","",""
"image-slider-2AFC","174","818256","0.0-41.2-1.2","2321","","","","-87","","","","","","","","heartS.png","1550","-87",""
"html-keyboard-response","175","818964","0.0-41.2-2.2","null","","","","","","","null","","","","","","","",""
"image-selector-fb","176","821970","0.0-41.3-0.3","null","pics2/SA6.jpg,pics2/VE6.jpg","","","","","","","false","null","","","noS.png","","",""
"image-slider-2AFC","177","826974","0.0-41.3-1.3","null","","","","null","","","","","","","","heartS.png","","",""
"html-keyboard-response","178","827729","0.0-41.3-2.3","null","","","","","","","null","","","","","","","",""
"image-selector-fb","179","830274","0.0-41.4-0.4","2040","pics2/SW4.jpg,pics2/FR6.jpg","","","","","","","false","0","","","heartS.png","","",""
"image-slider-2AFC","180","833505","0.0-41.4-1.4","3227","","","","-67","","","","","","","","heartS.png","2542","-67",""
"html-keyboard-response","181","834307","0.0-41.4-2.4","null","","","","","","","null","","","","","","","",""
"image-selector-fb","182","836639","0.0-41.5-0.5","1826","pics2/SW5.jpg,pics2/FR2.jpg","","","","","","","true","1","","","sizeS.png","","",""
"image-slider-2AFC","183","839098","0.0-41.5-1.5","2458","","","","60","","","","","","","","sizeS.png","1834","60",""
"html-keyboard-response","184","839801","0.0-41.5-2.5","null","","","","","","","null","","","","","","","",""
"image-selector-fb","185","841560","0.0-41.6-0.6","1253","pics2/SA2.jpg,pics2/SA4.jpg","","","","","","","false","0","","","sizeS.png","","",""
"image-slider-2AFC","186","844742","0.0-41.6-1.6","3178","","","","-92","","","","","","","","sizeS.png","2309","-92",""
"html-keyboard-response","187","845546","0.0-41.6-2.6","null","","","","","","","null","","","","","","","",""
"image-selector-fb","188","848551","0.0-41.7-0.7","null","pics2/SW5.jpg,pics2/VE4.jpg","","","","","","","false","null","","","noS.png","","",""
"image-slider-2AFC","189","853556","0.0-41.7-1.7","null","","","","null","","","","","","","","heartS.png","4388","35",""
"html-keyboard-response","190","854260","0.0-41.7-2.7","null","","","","","","","null","","","","","","","",""
"image-selector-fb","191","856884","0.0-41.8-0.8","2119","pics2/VE6.jpg,pics2/VE4.jpg","","","","","","","true","1","","","heartS.png","","",""
"image-slider-2AFC","192","859210","0.0-41.8-1.8","2321","","","","69","","","","","","","","sizeS.png","1770","69",""
"html-keyboard-response","193","860014","0.0-41.8-2.8","null","","","","","","","null","","","","","","","",""
"image-selector-fb","194","862821","0.0-41.9-0.9","2300","pics2/SW4.jpg,pics2/SA3.jpg","","","","","","","false","0","","","sizeS.png","","",""
"image-slider-2AFC","195","865463","0.0-41.9-1.9","2638","","","","-47","","","","","","","","sizeS.png","1745","-47",""
"html-keyboard-response","196","866166","0.0-41.9-2.9","null","","","","","","","null","","","","","","","",""
"image-selector-fb","197","868218","0.0-41.10-0.10","1545","pics2/SW6.jpg,pics2/SW4.jpg","","","","","","","true","1","","","sizeS.png","","",""
"image-slider-2AFC","198","871167","0.0-41.10-1.10","2946","","","","42","","","","","","","","heartS.png","1893","42",""
"html-keyboard-response","199","872021","0.0-41.10-2.10","null","","","","","","","null","","","","","","","",""
"image-selector-fb","200","874274","0.0-41.11-0.11","1747","pics2/SW5.jpg,pics2/SA4.jpg","","","","","","","true","1","","","sizeS.png","","",""
"image-slider-2AFC","201","876489","0.0-41.11-1.11","2211","","","","88","","","","","","","","sizeS.png","1539","88",""
"html-keyboard-response","202","877343","0.0-41.11-2.11","null","","","","","","","null","","","","","","","",""
"image-selector-fb","203","880354","0.0-41.12-0.12","null","pics2/FR2.jpg,pics2/SW4.jpg","","","","","","","false","null","","","noS.png","","",""
"image-slider-2AFC","204","884566","0.0-41.12-1.12","4208","","","","54","","","","","","","","heartS.png","3683","54",""
"html-keyboard-response","205","885369","0.0-41.12-2.12","null","","","","","","","null","","","","","","","",""
"image-selector-fb","206","887589","0.0-41.13-0.13","1712","pics2/VE6.jpg,pics2/FR6.jpg","","","","","","","false","0","","","heartS.png","","",""
"image-slider-2AFC","207","890636","0.0-41.13-1.13","3043","","","","-35","","","","","","","","sizeS.png","1464,2358","-17,-35",""
"html-keyboard-response","208","891450","0.0-41.13-2.13","null","","","","","","","null","","","","","","","",""
"image-selector-fb","209","894458","0.0-41.14-0.14","null","pics2/FR4.jpg,pics2/SW4.jpg","","","","","","","false","null","","","noS.png","","",""
"image-slider-2AFC","210","899463","0.0-41.14-1.14","null","","","","null","","","","","","","","sizeS.png","4596","48",""
"html-keyboard-response","211","900267","0.0-41.14-2.14","null","","","","","","","null","","","","","","","",""
"image-selector-fb","212","902497","0.0-41.15-0.15","1724","pics2/SW4.jpg,pics2/SA4.jpg","","","","","","","true","1","","","sizeS.png","","",""
"image-slider-2AFC","213","904332","0.0-41.15-1.15","1831","","","","50","","","","","","","","sizeS.png","1356","50",""
"html-keyboard-response","214","905037","0.0-41.15-2.15","null","","","","","","","null","","","","","","","",""
"image-selector-fb","215","908045","0.0-41.16-0.16","null","pics2/SA2.jpg,pics2/SA4.jpg","","","","","","","false","null","","","noS.png","","",""
"image-slider-2AFC","216","912094","0.0-41.16-1.16","4045","","","","-51","","","","","","","","heartS.png","3616","-51",""
"html-keyboard-response","217","912797","0.0-41.16-2.16","null","","","","","","","null","","","","","","","",""
"image-selector-fb","218","914702","0.0-41.17-0.17","1398","pics2/VE4.jpg,pics2/SW4.jpg","","","","","","","false","0","","","sizeS.png","","",""
"image-slider-2AFC","219","917123","0.0-41.17-1.17","2418","","","","-72","","","","","","","","sizeS.png","1795","-72",""
"html-keyboard-response","220","917827","0.0-41.17-2.17","null","","","","","","","null","","","","","","","",""
"image-selector-fb","221","921434","0.0-41.18-0.18","3101","pics2/FR2.jpg,pics2/FR4.jpg","","","","","","","false","0","","","heartS.png","","",""
"image-slider-2AFC","222","924921","0.0-41.18-1.18","3484","","","","-18","","","","","","","","heartS.png","2456,3031","-13,-18",""
"html-keyboard-response","223","925623","0.0-41.18-2.18","null","","","","","","","null","","","","","","","",""
"image-selector-fb","224","927405","0.0-41.19-0.19","1277","pics2/FR6.jpg,pics2/FR4.jpg","","","","","","","true","1","","","sizeS.png","","",""
"image-slider-2AFC","225","930564","0.0-41.19-1.19","3157","","","","33","","","","","","","","sizeS.png","2520","33",""
"html-keyboard-response","226","931316","0.0-41.19-2.19","null","","","","","","","null","","","","","","","",""
"image-selector-fb","227","934322","0.0-41.20-0.20","null","pics2/SA3.jpg,pics2/SA4.jpg","","","","","","","false","null","","","noS.png","","",""
"image-slider-2AFC","228","938531","0.0-41.20-1.20","4206","","","","56","","","","","","","","heartS.png","3570","56",""
"html-keyboard-response","229","939384","0.0-41.20-2.20","null","","","","","","","null","","","","","","","",""
"image-selector-fb","230","942277","0.0-41.21-0.21","2388","pics2/SA4.jpg,pics2/VE4.jpg","","","","","","","true","1","","","heartS.png","","",""
"image-slider-2AFC","231","944884","0.0-41.21-1.21","2604","","","","37","","","","","","","","sizeS.png","1382","37",""
"html-keyboard-response","232","945743","0.0-41.21-2.21","null","","","","","","","null","","","","","","","",""
"image-selector-fb","233","947934","0.0-41.22-0.22","1687","pics2/FR2.jpg,pics2/SA6.jpg","","","","","","","true","1","","","heartS.png","","",""
"image-slider-2AFC","234","951030","0.0-41.22-1.22","3093","","","","34","","","","","","","","sizeS.png","1306,2066","28,34",""
"html-keyboard-response","235","951832","0.0-41.22-2.22","null","","","","","","","null","","","","","","","",""
"image-selector-fb","236","954838","0.0-41.23-0.23","null","pics2/SA3.jpg,pics2/FR4.jpg","","","","","","","false","null","","","noS.png","","",""
"image-slider-2AFC","237","959746","0.0-41.23-1.23","4904","","","","45","","","","","","","","heartS.png","4428","45",""
"html-keyboard-response","238","960599","0.0-41.23-2.23","null","","","","","","","null","","","","","","","",""
"image-selector-fb","239","962377","0.0-41.24-0.24","1274","pics2/SA2.jpg,pics2/FR6.jpg","","","","","","","false","0","","","heartS.png","","",""
"image-slider-2AFC","240","965476","0.0-41.24-1.24","3095","","","","-65","","","","","","","","heartS.png","2373","-65",""
"html-keyboard-response","241","966279","0.0-41.24-2.24","null","","","","","","","null","","","","","","","",""
"image-selector-fb","242","968990","0.0-41.25-0.25","2205","pics2/SA2.jpg,pics2/VE4.jpg","","","","","","","true","1","","","heartS.png","","",""
"image-slider-2AFC","243","971377","0.0-41.25-1.25","2383","","","","36","","","","","","","","heartS.png","1735","36",""
"html-keyboard-response","244","972129","0.0-41.25-2.25","null","","","","","","","null","","","","","","","",""
"image-selector-fb","245","975590","0.0-41.26-0.26","2954","pics2/FR2.jpg,pics2/SW5.jpg","","","","","","","true","1","","","heartS.png","","",""
"image-slider-2AFC","246","977217","0.0-41.26-1.26","1624","","","","17","","","","","","","","heartS.png","939","17",""
"html-keyboard-response","247","978020","0.0-41.26-2.26","null","","","","","","","null","","","","","","","",""
"image-selector-fb","248","980536","0.0-41.27-0.27","2010","pics2/SA6.jpg,pics2/SA3.jpg","","","","","","","false","0","","","sizeS.png","","",""
"image-slider-2AFC","249","982800","0.0-41.27-1.27","2261","","","","-33","","","","","","","","sizeS.png","1772","-33",""
"html-keyboard-response","250","983553","0.0-41.27-2.27","null","","","","","","","null","","","","","","","",""
"image-selector-fb","251","986561","0.0-41.28-0.28","null","pics2/SA6.jpg,pics2/SW5.jpg","","","","","","","false","null","","","noS.png","","",""
"image-slider-2AFC","252","991455","0.0-41.28-1.28","4891","","","","-40","","","","","","","","sizeS.png","4132","-40",""
"html-keyboard-response","253","992209","0.0-41.28-2.28","null","","","","","","","null","","","","","","","",""
"image-selector-fb","254","994847","0.0-41.29-0.29","2130","pics2/VE4.jpg,pics2/SA6.jpg","","","","","","","false","0","","","sizeS.png","","",""
"image-slider-2AFC","255","997428","0.0-41.29-1.29","2577","","","","-57","","","","","","","","sizeS.png","1978","-57",""
"html-keyboard-response","256","998131","0.0-41.29-2.29","null","","","","","","","null","","","","","","","",""
"image-selector-fb","257","999963","0.0-41.30-0.30","1325","pics2/SW6.jpg,pics2/SW5.jpg","","","","","","","true","1","","","sizeS.png","","",""
"image-slider-2AFC","258","1002128","0.0-41.30-1.30","2162","","","","53","","","","","","","","sizeS.png","1588","53",""
"html-keyboard-response","259","1002832","0.0-41.30-2.30","null","","","","","","","null","","","","","","","",""
"image-selector-fb","260","1004628","0.0-41.31-0.31","1288","pics2/FR2.jpg,pics2/SA2.jpg","","","","","","","true","1","","","heartS.png","","",""
"image-slider-2AFC","261","1007896","0.0-41.31-1.31","3264","","","","81","","","","","","","","heartS.png","2603","81",""
"html-keyboard-response","262","1008699","0.0-41.31-2.31","null","","","","","","","null","","","","","","","",""
"image-selector-fb","263","1011707","0.0-41.32-0.32","null","pics2/FR6.jpg,pics2/SW6.jpg","","","","","","","false","null","","","noS.png","","",""
"image-slider-2AFC","264","1016712","0.0-41.32-1.32","null","","","","null","","","","","","","","sizeS.png","","",""
"html-keyboard-response","265","1017416","0.0-41.32-2.32","null","","","","","","","null","","","","","","","",""
"image-selector-fb","266","1019601","0.0-41.33-0.33","1678","pics2/SA6.jpg,pics2/FR6.jpg","","","","","","","false","0","","","sizeS.png","","",""
"image-slider-2AFC","267","1021976","0.0-41.33-1.33","2371","","","","-51","","","","","","","","heartS.png","1635","-51",""
"html-keyboard-response","268","1022780","0.0-41.33-2.33","null","","","","","","","null","","","","","","","",""
"image-selector-fb","269","1024743","0.0-41.34-0.34","1456","pics2/FR2.jpg,pics2/SW4.jpg","","","","","","","true","1","","","heartS.png","","",""
"image-slider-2AFC","270","1027068","0.0-41.34-1.34","2322","","","","57","","","","","","","","sizeS.png","1796","57",""
"html-keyboard-response","271","1027822","0.0-41.34-2.34","null","","","","","","","null","","","","","","","",""
"image-selector-fb","272","1030832","0.0-41.35-0.35","null","pics2/SA4.jpg,pics2/VE4.jpg","","","","","","","false","null","","","noS.png","","",""
"image-slider-2AFC","273","1035617","0.0-41.35-1.35","4781","","","","56","","","","","","","","heartS.png","4303","56",""
"html-keyboard-response","274","1036374","0.0-41.35-2.35","null","","","","","","","null","","","","","","","",""
"image-selector-fb","275","1038458","0.0-41.36-0.36","1578","pics2/SA4.jpg,pics2/FR4.jpg","","","","","","","false","0","","","heartS.png","","",""
"image-slider-2AFC","276","1043463","0.0-41.36-1.36","null","","","","null","","","","","","","","sizeS.png","","",""
"html-keyboard-response","277","1044167","0.0-41.36-2.36","null","","","","","","","null","","","","","","","",""
"image-selector-fb","278","1046307","0.0-41.37-0.37","1636","pics2/SA6.jpg,pics2/VE4.jpg","","","","","","","true","1","","","heartS.png","","",""
"image-slider-2AFC","279","1048475","0.0-41.37-1.37","2165","","","","48","","","","","","","","heartS.png","1639","48",""
"html-keyboard-response","280","1049228","0.0-41.37-2.37","null","","","","","","","null","","","","","","","",""
"image-selector-fb","281","1051255","0.0-41.38-0.38","1521","pics2/VE6.jpg,pics2/FR4.jpg","","","","","","","false","0","","","heartS.png","","",""
"image-slider-2AFC","282","1054475","0.0-41.38-1.38","3217","","","","-49","","","","","","","","sizeS.png","2471","-49",""
"html-keyboard-response","283","1055279","0.0-41.38-2.38","null","","","","","","","null","","","","","","","",""
"image-selector-fb","284","1057279","0.0-41.39-0.39","1495","pics2/SW6.jpg,pics2/FR6.jpg","","","","","","","false","0","","","heartS.png","","",""
"image-slider-2AFC","285","1061186","0.0-41.39-1.39","3905","","","","-43","","","","","","","","sizeS.png","3169","-43",""
"html-keyboard-response","286","1061989","0.0-41.39-2.39","null","","","","","","","null","","","","","","","",""
"image-selector-fb","287","1064997","0.0-41.40-0.40","null","pics2/FR2.jpg,pics2/SA6.jpg","","","","","","","false","null","","","noS.png","","",""
"image-slider-2AFC","288","1070001","0.0-41.40-1.40","null","","","","null","","","","","","","","heartS.png","4353","47",""
"html-keyboard-response","289","1070703","0.0-41.40-2.40","null","","","","","","","null","","","","","","","",""
"image-selector-fb","290","1072818","0.0-41.41-0.41","1609","pics2/SA3.jpg,pics2/SA4.jpg","","","","","","","true","1","","","sizeS.png","","",""
"image-slider-2AFC","291","1076064","0.0-41.41-1.41","3243","","","","38","","","","","","","","heartS.png","2240","38",""
"html-keyboard-response","292","1076917","0.0-41.41-2.41","null","","","","","","","null","","","","","","","",""
"image-selector-fb","293","1079924","0.0-41.42-0.42","null","pics2/VE4.jpg,pics2/VE6.jpg","","","","","","","false","null","","","noS.png","","",""
"image-slider-2AFC","294","1083730","0.0-41.42-1.42","3802","","","","-43","","","","","","","","heartS.png","3202","-43",""
"html-keyboard-response","295","1084433","0.0-41.42-2.42","null","","","","","","","null","","","","","","","",""
"image-selector-fb","296","1087440","0.0-41.43-0.43","null","pics2/SA4.jpg,pics2/VE6.jpg","","","","","","","false","null","","","noS.png","","",""
"image-slider-2AFC","297","1091150","0.0-41.43-1.43","3708","","","","-42","","","","","","","","sizeS.png","3033","-42",""
"html-keyboard-response","298","1091903","0.0-41.43-2.43","null","","","","","","","null","","","","","","","",""
"image-selector-fb","299","1094138","0.0-41.44-0.44","1730","pics2/SA2.jpg,pics2/SA3.jpg","","","","","","","false","0","","","heartS.png","","",""
"image-slider-2AFC","300","1097112","0.0-41.44-1.44","2971","","","","-83","","","","","","","","sizeS.png","2310","-83",""
"html-keyboard-response","301","1097825","0.0-41.44-2.44","null","","","","","","","null","","","","","","","",""
"image-selector-fb","302","1099807","0.0-41.45-0.45","1476","pics2/SW4.jpg,pics2/FR2.jpg","","","","","","","true","1","","","sizeS.png","","",""
"image-slider-2AFC","303","1102587","0.0-41.45-1.45","2776","","","","40","","","","","","","","sizeS.png","1001","23",""
"html-keyboard-response","304","1103440","0.0-41.45-2.45","null","","","","","","","null","","","","","","","",""
"image-selector-fb","305","1106995","0.0-41.46-0.46","3049","pics2/FR6.jpg,pics2/VE6.jpg","","","","","","","true","1","","","sizeS.png","","",""
"image-slider-2AFC","306","1109922","0.0-41.46-1.46","2923","","","","68","","","","","","","","sizeS.png","794,2153","36,68",""
"html-keyboard-response","307","1110627","0.0-41.46-2.46","null","","","","","","","null","","","","","","","",""
"image-selector-fb","308","1112458","0.0-41.47-0.47","1324","pics2/VE6.jpg,pics2/SW6.jpg","","","","","","","true","1","","","heartS.png","","",""
"image-slider-2AFC","309","1117172","0.0-41.47-1.47","4711","","","","53","","","","","","","","heartS.png","3941","53",""
"html-keyboard-response","310","1118025","0.0-41.47-2.47","null","","","","","","","null","","","","","","","",""
"image-selector-fb","311","1119611","0.0-41.48-0.48","1066","pics2/SA6.jpg,pics2/SW5.jpg","","","","","","","false","0","","","sizeS.png","","",""
"image-slider-2AFC","312","1123454","0.0-41.48-1.48","3839","","","","-32","","","","","","","","heartS.png","2346","-32",""
"html-keyboard-response","313","1124308","0.0-41.48-2.48","null","","","","","","","null","","","","","","","",""
"image-selector-fb","314","1127091","0.0-41.49-0.49","2277","pics2/FR6.jpg,pics2/SW6.jpg","","","","","","","true","1","","","sizeS.png","","",""
"image-slider-2AFC","315","1131648","0.0-41.49-1.49","4553","","","","53","","","","","","","","heartS.png","3548","53",""
"html-keyboard-response","316","1132450","0.0-41.49-2.49","null","","","","","","","null","","","","","","","",""
"image-selector-fb","317","1135248","0.0-41.50-0.50","2292","pics2/SW6.jpg,pics2/SA3.jpg","","","","","","","false","0","","","sizeS.png","","",""
"image-slider-2AFC","318","1139154","0.0-41.50-1.50","3903","","","","-46","","","","","","","","heartS.png","3253","-46",""
"html-keyboard-response","319","1139958","0.0-41.50-2.50","null","","","","","","","null","","","","","","","",""
"image-selector-fb","320","1142967","0.0-41.51-0.51","null","pics2/FR2.jpg,pics2/SW5.jpg","","","","","","","false","null","","","noS.png","","",""
"image-slider-2AFC","321","1147972","0.0-41.51-1.51","null","","","","null","","","","","","","","heartS.png","4364","47",""
"html-keyboard-response","322","1148676","0.0-41.51-2.51","null","","","","","","","null","","","","","","","",""
"image-selector-fb","323","1151596","0.0-41.52-0.52","2413","pics2/SA2.jpg,pics2/SW6.jpg","","","","","","","false","0","","","heartS.png","","",""
"image-slider-2AFC","324","1156604","0.0-41.52-1.52","5002","","","","-71","","","","","","","","sizeS.png","2467","-71",""
"html-keyboard-response","325","1157358","0.0-41.52-2.52","null","","","","","","","null","","","","","","","",""
"image-selector-fb","326","1159592","0.0-41.53-0.53","1728","pics2/VE6.jpg,pics2/SW5.jpg","","","","","","","true","1","","","heartS.png","","",""
"image-slider-2AFC","327","1163253","0.0-41.53-1.53","3657","","","","-52","","","","","","","","sizeS.png","2801","-52",""
"html-keyboard-response","328","1163957","0.0-41.53-2.53","null","","","","","","","null","","","","","","","",""
"image-selector-fb","329","1165655","0.0-41.54-0.54","1187","pics2/SA6.jpg,pics2/FR4.jpg","","","","","","","false","0","","","sizeS.png","","",""
"image-slider-2AFC","330","1169451","0.0-41.54-1.54","3792","","","","-72","","","","","","","","heartS.png","2739","-72",""
"html-keyboard-response","331","1170156","0.0-41.54-2.54","null","","","","","","","null","","","","","","","",""
"image-selector-fb","332","1173444","0.0-41.55-0.55","2781","pics2/SW5.jpg,pics2/SA6.jpg","","","","","","","true","1","","","heartS.png","","",""
"image-slider-2AFC","333","1176100","0.0-41.55-1.55","2653","","","","69","","","","","","","","sizeS.png","2065","69",""
"html-keyboard-response","334","1176804","0.0-41.55-2.55","null","","","","","","","null","","","","","","","",""
"image-selector-fb","335","1179811","0.0-41.56-0.56","null","pics2/SA4.jpg,pics2/FR6.jpg","","","","","","","false","null","","","noS.png","","",""
"image-slider-2AFC","336","1184815","0.0-41.56-1.56","null","","","","null","","","","","","","","sizeS.png","4259","-99",""
"html-keyboard-response","337","1185667","0.0-41.56-2.56","null","","","","","","","null","","","","","","","",""
"image-selector-fb","338","1188211","0.0-41.57-0.57","2039","pics2/SA6.jpg,pics2/SA4.jpg","","","","","","","true","1","","","sizeS.png","","",""
"image-slider-2AFC","339","1190049","0.0-41.57-1.57","1835","","","","50","","","","","","","","sizeS.png","1333","50",""
"html-keyboard-response","340","1190902","0.0-41.57-2.57","null","","","","","","","null","","","","","","","",""
"image-selector-fb","341","1193910","0.0-41.58-0.58","null","pics2/SA3.jpg,pics2/SW4.jpg","","","","","","","false","null","","","noS.png","","",""
"image-slider-2AFC","342","1198463","0.0-41.58-1.58","4550","","","","19","","","","","","","","sizeS.png","4013","19",""
"html-keyboard-response","343","1199216","0.0-41.58-2.58","null","","","","","","","null","","","","","","","",""
"image-selector-fb","344","1201244","0.0-41.59-0.59","1523","pics2/SW6.jpg,pics2/SA4.jpg","","","","","","","true","1","","","sizeS.png","","",""
"image-slider-2AFC","345","1204710","0.0-41.59-1.59","3463","","","","50","","","","","","","","heartS.png","2888","50",""
"html-keyboard-response","346","1205573","0.0-41.59-2.59","null","","","","","","","null","","","","","","","",""
"image-selector-fb","347","1210051","0.0-41.60-0.60","3972","pics2/SA2.jpg,pics2/SW5.jpg","","","","","","","false","0","","","heartS.png","","",""
"image-slider-2AFC","348","1212561","0.0-41.60-1.60","2508","","","","-40","","","","","","","","heartS.png","1748","-40",""
"html-keyboard-response","349","1213365","0.0-41.60-2.60","null","","","","","","","null","","","","","","","",""
"image-selector-fb","350","1217870","0.0-41.61-0.61","null","pics2/SA4.jpg,pics2/SW4.jpg","","","","","","","false","null","","","heartS.png","","",""
"image-slider-2AFC","351","1217871","0.0-41.61-1.61","null","","","","null","","","","","","","","heartS.png","","",""
"html-keyboard-response","352","1218625","0.0-41.61-2.61","null","","","","","","","null","","","","","","","",""
"image-selector-fb","353","1221633","0.0-41.62-0.62","null","pics2/SA4.jpg,pics2/FR4.jpg","","","","","","","false","null","","","noS.png","","",""
"image-slider-2AFC","354","1225360","0.0-41.62-1.62","3723","","","","-36","","","","","","","","sizeS.png","3244","-36",""
"html-keyboard-response","355","1226063","0.0-41.62-2.62","null","","","","","","","null","","","","","","","",""
"image-selector-fb","356","1228004","0.0-41.63-0.63","1436","pics2/FR6.jpg,pics2/SW5.jpg","","","","","","","true","1","","","sizeS.png","","",""
"image-slider-2AFC","357","1231312","0.0-41.63-1.63","3305","","","","41","","","","","","","","sizeS.png","2313","41",""
"html-keyboard-response","358","1232065","0.0-41.63-2.63","null","","","","","","","null","","","","","","","",""
"image-selector-fb","359","1235084","0.0-41.64-0.64","null","pics2/FR6.jpg,pics2/VE4.jpg","","","","","","","false","null","","","noS.png","","",""
"image-slider-2AFC","360","1239689","0.0-41.64-1.64","4601","","","","31","","","","","","","","heartS.png","4076","31",""
"html-keyboard-response","361","1240394","0.0-41.64-2.64","null","","","","","","","null","","","","","","","",""
"image-selector-fb","362","1242225","0.0-41.65-0.65","1325","pics2/SW5.jpg,pics2/FR6.jpg","","","","","","","false","0","","","heartS.png","","",""
"image-slider-2AFC","363","1244920","0.0-41.65-1.65","2692","","","","-51","","","","","","","","heartS.png","1761","-51",""
"html-keyboard-response","364","1245674","0.0-41.65-2.65","null","","","","","","","null","","","","","","","",""
"pavlovia","365","1245709","0.0-42.0","","","","","","","","","","","","","","","",""
"html-keyboard-response","366","1250713","0.0-43.0","null","<div style='width: 700px;'> <font size=6><b>SHORT BREAK</font></b><br><br><i> Please wait 5 seconds to continue</i></div> ","","","","","","null","","","","","","","",""
"pavlovia","367","1250716","0.0-44.0","","","","","","","","","","","","","","","",""
"html-button-response","368","1256360","0.0-45.0","5643","<div style='width: 700px;'> <font size=6><b>BLOCK 2</font></b><br><br>Press the button whenever you feel ready to start the second block (there are 3 in total)</div>","0","","","","","","","","","","","","",""
"image-selector-fb","369","1260231","0.0-46.0-0.0","3366","pics2/FR4.jpg,pics2/FR2.jpg","","","","","","","true","1","","","sizeS.png","","",""
"image-slider-2AFC","370","1265237","0.0-46.0-1.0","null","","","","null","","","","","","","","heartS.png","","",""
"html-keyboard-response","371","1265992","0.0-46.0-2.0","null","","","","","","","null","","","","","","","",""
"image-selector-fb","372","1268525","0.0-46.1-0.1","2028","pics2/VE6.jpg,pics2/SA3.jpg","","","","","","","false","0","","","heartS.png","","",""
"image-slider-2AFC","373","1272064","0.0-46.1-1.1","3536","","","","-50","","","","","","","","heartS.png","2900","-50",""
"html-keyboard-response","374","1272819","0.0-46.1-2.1","null","","","","","","","null","","","","","","","",""
"image-selector-fb","375","1275347","0.0-46.2-0.2","2023","pics2/SA6.jpg,pics2/SW4.jpg","","","","","","","false","0","","","sizeS.png","","",""
"image-slider-2AFC","376","1277834","0.0-46.2-1.2","2484","","","","-38","","","","","","","","sizeS.png","1885","-38",""
"html-keyboard-response","377","1278638","0.0-46.2-2.2","null","","","","","","","null","","","","","","","",""
"image-selector-fb","378","1281648","0.0-46.3-0.3","null","pics2/SA2.jpg,pics2/SW6.jpg","","","","","","","false","null","","","noS.png","","",""
"image-slider-2AFC","379","1286653","0.0-46.3-1.3","null","","","","null","","","","","","","","heartS.png","","",""
"html-keyboard-response","380","1287458","0.0-46.3-2.3","null","","","","","","","null","","","","","","","",""
"image-selector-fb","381","1291811","0.0-46.4-0.4","3847","pics2/SW5.jpg,pics2/FR4.jpg","","","","","","","false","0","","","sizeS.png","","",""
"image-slider-2AFC","382","1295437","0.0-46.4-1.4","3622","","","","-33","","","","","","","","heartS.png","2005,2020,3157","-88,-88,-33",""
"html-keyboard-response","383","1296241","0.0-46.4-2.4","null","","","","","","","null","","","","","","","",""
"image-selector-fb","384","1299249","0.0-46.5-0.5","null","pics2/SA2.jpg,pics2/FR6.jpg","","","","","","","false","null","","","noS.png","","",""
"image-slider-2AFC","385","1304255","0.0-46.5-1.5","null","","","","null","","","","","","","","heartS.png","4818","-34",""
"html-keyboard-response","386","1305108","0.0-46.5-2.5","null","","","","","","","null","","","","","","","",""
"image-selector-fb","387","1308117","0.0-46.6-0.6","null","pics2/SW6.jpg,pics2/SW4.jpg","","","","","","","false","null","","","noS.png","","",""
"image-slider-2AFC","388","1312875","0.0-46.6-1.6","4755","","","","40","","","","","","","","sizeS.png","3445","40",""
"html-keyboard-response","389","1313629","0.0-46.6-2.6","null","","","","","","","null","","","","","","","",""
"image-selector-fb","390","1316637","0.0-46.7-0.7","null","pics2/SW6.jpg,pics2/VE4.jpg","","","","","","","false","null","","","noS.png","","",""
"image-slider-2AFC","391","1321642","0.0-46.7-1.7","null","","","","null","","","","","","","","sizeS.png","4110","10",""
"html-keyboard-response","392","1322495","0.0-46.7-2.7","null","","","","","","","null","","","","","","","",""
"image-selector-fb","393","1325502","0.0-46.8-0.8","null","pics2/SA2.jpg,pics2/SW4.jpg","","","","","","","false","null","","","noS.png","","",""
"image-slider-2AFC","394","1330506","0.0-46.8-1.8","null","","","","null","","","","","","","","sizeS.png","4325","-26",""
"html-keyboard-response","395","1331309","0.0-46.8-2.8","null","","","","","","","null","","","","","","","",""
"image-selector-fb","396","1334141","0.0-46.9-0.9","2326","pics2/VE6.jpg,pics2/SW4.jpg","","","","","","","false","0","","","heartS.png","","",""
"image-slider-2AFC","397","1336604","0.0-46.9-1.9","2459","","","","-45","","","","","","","","heartS.png","1919","-45",""
"html-keyboard-response","398","1337314","0.0-46.9-2.9","null","","","","","","","null","","","","","","","",""
"image-selector-fb","399","1339260","0.0-46.10-0.10","1443","pics2/SA4.jpg,pics2/SW5.jpg","","","","","","","false","0","","","heartS.png","","",""
"image-slider-2AFC","400","1344265","0.0-46.10-1.10","null","","","","null","","","","","","","","sizeS.png","3502","-43",""
"html-keyboard-response","401","1345022","0.0-46.10-2.10","null","","","","","","","null","","","","","","","",""
"image-selector-fb","402","1347605","0.0-46.11-0.11","2078","pics2/VE4.jpg,pics2/VE6.jpg","","","","","","","false","0","","","sizeS.png","","",""
"image-slider-2AFC","403","1352609","0.0-46.11-1.11","null","","","","null","","","","","","","","heartS.png","","",""
"html-keyboard-response","404","1353311","0.0-46.11-2.11","null","","","","","","","null","","","","","","","",""
"image-selector-fb","405","1355703","0.0-46.12-0.12","1887","pics2/VE6.jpg,pics2/SA2.jpg","","","","","","","true","1","","","heartS.png","","",""
"image-slider-2AFC","406","1359011","0.0-46.12-1.12","3304","","","","62","","","","","","","","sizeS.png","2448","62",""
"html-keyboard-response","407","1359714","0.0-46.12-2.12","null","","","","","","","null","","","","","","","",""
"image-selector-fb","408","1361780","0.0-46.13-0.13","1561","pics2/SA3.jpg,pics2/FR4.jpg","","","","","","","true","1","","","heartS.png","","",""
"image-slider-2AFC","409","1365125","0.0-46.13-1.13","3343","","","","-32","","","","","","","","sizeS.png","2351","-32",""
"html-keyboard-response","410","1365982","0.0-46.13-2.13","null","","","","","","","null","","","","","","","",""
"image-selector-fb","411","1368988","0.0-46.14-0.14","null","pics2/SW5.jpg,pics2/VE6.jpg","","","","","","","false","null","","","noS.png","","",""
"image-slider-2AFC","412","1373993","0.0-46.14-1.14","null","","","","null","","","","","","","","sizeS.png","4146,4660","-8,-37",""
"html-keyboard-response","413","1374696","0.0-46.14-2.14","null","","","","","","","null","","","","","","","",""
"image-selector-fb","414","1376948","0.0-46.15-0.15","1746","pics2/SW6.jpg,pics2/SA2.jpg","","","","","","","true","1","","","sizeS.png","","",""
"image-slider-2AFC","415","1379054","0.0-46.15-1.15","2103","","","","59","","","","","","","","sizeS.png","1603","59",""
"html-keyboard-response","416","1379757","0.0-46.15-2.15","null","","","","","","","null","","","","","","","",""
"image-selector-fb","417","1381690","0.0-46.16-0.16","1427","pics2/SA2.jpg,pics2/SW4.jpg","","","","","","","false","0","","","heartS.png","","",""
"image-slider-2AFC","418","1384569","0.0-46.16-1.16","2877","","","","-73","","","","","","","","sizeS.png","1896","-73",""
"html-keyboard-response","419","1385323","0.0-46.16-2.16","null","","","","","","","null","","","","","","","",""
"image-selector-fb","420","1388330","0.0-46.17-0.17","null","pics2/FR4.jpg,pics2/SW5.jpg","","","","","","","false","null","","","noS.png","","",""
"image-slider-2AFC","421","1392825","0.0-46.17-1.17","4492","","","","53","","","","","","","","sizeS.png","3929","53",""
"html-keyboard-response","422","1393678","0.0-46.17-2.17","null","","","","","","","null","","","","","","","",""
"image-selector-fb","423","1396721","0.0-46.18-0.18","2537","pics2/SW5.jpg,pics2/SW6.jpg","","","","","","","false","0","","","heartS.png","","",""
"image-slider-2AFC","424","1399601","0.0-46.18-1.18","2875","","","","-37","","","","","","","","sizeS.png","2141","-37",""
"html-keyboard-response","425","1400361","0.0-46.18-2.18","null","","","","","","","null","","","","","","","",""
"image-selector-fb","426","1403369","0.0-46.19-0.19","null","pics2/SW5.jpg,pics2/SW6.jpg","","","","","","","false","null","","","noS.png","","",""
"image-slider-2AFC","427","1408378","0.0-46.19-1.19","null","","","","null","","","","","","","","sizeS.png","","",""
"html-keyboard-response","428","1409082","0.0-46.19-2.19","null","","","","","","","null","","","","","","","",""
"image-selector-fb","429","1411065","0.0-46.20-0.20","1478","pics2/SW4.jpg,pics2/VE6.jpg","","","","","","","true","1","","","sizeS.png","","",""
"image-slider-2AFC","430","1414875","0.0-46.20-1.20","3806","","","","-46","","","","","","","","heartS.png","3305","-46",""
"html-keyboard-response","431","1415629","0.0-46.20-2.20","null","","","","","","","null","","","","","","","",""
"image-selector-fb","432","1417827","0.0-46.21-0.21","1693","pics2/FR6.jpg,pics2/SA6.jpg","","","","","","","true","1","","","heartS.png","","",""
"image-slider-2AFC","433","1420718","0.0-46.21-1.21","2888","","","","65","","","","","","","","heartS.png","1650","65",""
"html-keyboard-response","434","1421472","0.0-46.21-2.21","null","","","","","","","null","","","","","","","",""
"image-selector-fb","435","1422947","0.0-46.22-0.22","968","pics2/SW4.jpg,pics2/SA6.jpg","","","","","","","true","1","","","heartS.png","","",""
"image-slider-2AFC","436","1425995","0.0-46.22-1.22","3044","","","","72","","","","","","","","sizeS.png","2432","72",""
"html-keyboard-response","437","1426699","0.0-46.22-2.22","null","","","","","","","null","","","","","","","",""
"image-selector-fb","438","1429707","0.0-46.23-0.23","null","pics2/FR4.jpg,pics2/SA6.jpg","","","","","","","false","null","","","noS.png","","",""
"image-slider-2AFC","439","1434617","0.0-46.23-1.23","4907","","","","47","","","","","","","","sizeS.png","3035,3744","42,47",""
"html-keyboard-response","440","1435471","0.0-46.23-2.23","null","","","","","","","null","","","","","","","",""
"image-selector-fb","441","1437372","0.0-46.24-0.24","1395","pics2/VE4.jpg,pics2/SA4.jpg","","","","","","","false","0","","","sizeS.png","","",""
"image-slider-2AFC","442","1442377","0.0-46.24-1.24","null","","","","null","","","","","","","","sizeS.png","3232,3795","-60,-68",""
"html-keyboard-response","443","1443181","0.0-46.24-2.24","null","","","","","","","null","","","","","","","",""
"image-selector-fb","444","1446058","0.0-46.25-0.25","2369","pics2/FR6.jpg,pics2/SA4.jpg","","","","","","","true","1","","","sizeS.png","","",""
"image-slider-2AFC","445","1450379","0.0-46.25-1.25","4318","","","","59","","","","","","","","heartS.png","3450","59",""
"html-keyboard-response","446","1451183","0.0-46.25-2.25","null","","","","","","","null","","","","","","","",""
"image-selector-fb","447","1454192","0.0-46.26-0.26","null","pics2/SA3.jpg,pics2/SW5.jpg","","","","","","","false","null","","","noS.png","","",""
"image-slider-2AFC","448","1459199","0.0-46.26-1.26","null","","","","null","","","","","","","","sizeS.png","","",""
"html-keyboard-response","449","1459902","0.0-46.26-2.26","null","","","","","","","null","","","","","","","",""
"image-selector-fb","450","1462910","0.0-46.27-0.27","null","pics2/SA4.jpg,pics2/SW5.jpg","","","","","","","false","null","","","noS.png","","",""
"image-slider-2AFC","451","1466205","0.0-46.27-1.27","3291","","","","-64","","","","","","","","heartS.png","2703","-64",""
"html-keyboard-response","452","1466957","0.0-46.27-2.27","null","","","","","","","null","","","","","","","",""
"image-selector-fb","453","1469560","0.0-46.28-0.28","2098","pics2/SW6.jpg,pics2/VE4.jpg","","","","","","","true","1","","","heartS.png","","",""
"image-slider-2AFC","454","1473065","0.0-46.28-1.28","3503","","","","88","","","","","","","","sizeS.png","2853","88",""
"html-keyboard-response","455","1473869","0.0-46.28-2.28","null","","","","","","","null","","","","","","","",""
"image-selector-fb","456","1476875","0.0-46.29-0.29","null","pics2/SA3.jpg,pics2/SA2.jpg","","","","","","","false","null","","","noS.png","","",""
"image-slider-2AFC","457","1480843","0.0-46.29-1.29","3965","","","","92","","","","","","","","sizeS.png","3279","92",""
"html-keyboard-response","458","1481547","0.0-46.29-2.29","null","","","","","","","null","","","","","","","",""
"image-selector-fb","459","1484553","0.0-46.30-0.30","null","pics2/SA3.jpg,pics2/SA6.jpg","","","","","","","false","null","","","noS.png","","",""
"image-slider-2AFC","460","1489381","0.0-46.30-1.30","4826","","","","65","","","","","","","","sizeS.png","4019","65",""
"html-keyboard-response","461","1490136","0.0-46.30-2.30","null","","","","","","","null","","","","","","","",""
"image-selector-fb","462","1494379","0.0-46.31-0.31","3739","pics2/SA3.jpg,pics2/VE6.jpg","","","","","","","true","1","","","sizeS.png","","",""
"image-slider-2AFC","463","1497271","0.0-46.31-1.31","2890","","","","44","","","","","","","","sizeS.png","1604,2082","33,44",""
"html-keyboard-response","464","1498124","0.0-46.31-2.31","null","","","","","","","null","","","","","","","",""
"image-selector-fb","465","1501241","0.0-46.32-0.32","2611","pics2/SA2.jpg,pics2/FR2.jpg","","","","","","","false","0","","","sizeS.png","","",""
"image-slider-2AFC","466","1504941","0.0-46.32-1.32","3697","","","","-42","","","","","","","","sizeS.png","3046","-42",""
"html-keyboard-response","467","1505794","0.0-46.32-2.32","null","","","","","","","null","","","","","","","",""
"image-selector-fb","468","1509068","0.0-46.33-0.33","2768","pics2/SA2.jpg,pics2/FR4.jpg","","","","","","","false","0","","","heartS.png","","",""
"image-slider-2AFC","469","1512168","0.0-46.33-1.33","3096","","","","-25","","","","","","","","heartS.png","2460","-25",""
"html-keyboard-response","470","1512871","0.0-46.33-2.33","null","","","","","","","null","","","","","","","",""
"image-selector-fb","471","1515878","0.0-46.34-0.34","null","pics2/SA2.jpg,pics2/VE6.jpg","","","","","","","false","null","","","noS.png","","",""
"image-slider-2AFC","472","1520883","0.0-46.34-1.34","null","","","","null","","","","","","","","heartS.png","3699","-53",""
"html-keyboard-response","473","1521588","0.0-46.34-2.34","null","","","","","","","null","","","","","","","",""
"image-selector-fb","474","1523905","0.0-46.35-0.35","1810","pics2/SW6.jpg,pics2/SA6.jpg","","","","","","","true","1","","","heartS.png","","",""
"image-slider-2AFC","475","1528229","0.0-46.35-1.35","4322","","","","44","","","","","","","","heartS.png","3599","44",""
"html-keyboard-response","476","1528983","0.0-46.35-2.35","null","","","","","","","null","","","","","","","",""
"image-selector-fb","477","1531995","0.0-46.36-0.36","null","pics2/SA2.jpg,pics2/FR2.jpg","","","","","","","false","null","","","noS.png","","",""
"image-slider-2AFC","478","1536999","0.0-46.36-1.36","null","","","","null","","","","","","","","sizeS.png","4784","-60",""
"html-keyboard-response","479","1537753","0.0-46.36-2.36","null","","","","","","","null","","","","","","","",""
"image-selector-fb","480","1540760","0.0-46.37-0.37","null","pics2/SW5.jpg,pics2/SW4.jpg","","","","","","","false","null","","","noS.png","","",""
"image-slider-2AFC","481","1544891","0.0-46.37-1.37","4127","","","","44","","","","","","","","heartS.png","3516","44",""
"html-keyboard-response","482","1545744","0.0-46.37-2.37","null","","","","","","","null","","","","","","","",""
"image-selector-fb","483","1547954","0.0-46.38-0.38","1704","pics2/FR4.jpg,pics2/SA6.jpg","","","","","","","true","1","","","heartS.png","","",""
"image-slider-2AFC","484","1550882","0.0-46.38-1.38","2924","","","","38","","","","","","","","heartS.png","1455,1736,2336","29,29,38",""
"html-keyboard-response","485","1551735","0.0-46.38-2.38","null","","","","","","","null","","","","","","","",""
"image-selector-fb","486","1554743","0.0-46.39-0.39","null","pics2/FR2.jpg,pics2/VE6.jpg","","","","","","","false","null","","","noS.png","","",""
"image-slider-2AFC","487","1559666","0.0-46.39-1.39","4919","","","","-22","","","","","","","","sizeS.png","4306,4392,4404,4417,4430,4442,4454,4467,4478","-45,-45,-45,-45,-43,-40,-35,-29,-22",""
"html-keyboard-response","488","1560532","0.0-46.39-2.39","null","","","","","","","null","","","","","","","",""
"image-selector-fb","489","1562826","0.0-46.40-0.40","1788","pics2/SA4.jpg,pics2/VE6.jpg","","","","","","","false","0","","","heartS.png","","",""
"image-slider-2AFC","490","1566488","0.0-46.40-1.40","3659","","","","-55","","","","","","","","sizeS.png","3035","-55",""
"html-keyboard-response","491","1567343","0.0-46.40-2.40","null","","","","","","","null","","","","","","","",""
"image-selector-fb","492","1570352","0.0-46.41-0.41","null","pics2/FR6.jpg,pics2/SW5.jpg","","","","","","","false","null","","","noS.png","","",""
"image-slider-2AFC","493","1574022","0.0-46.41-1.41","3666","","","","52","","","","","","","","heartS.png","3116","52",""
"html-keyboard-response","494","1574825","0.0-46.41-2.41","null","","","","","","","null","","","","","","","",""
"image-selector-fb","495","1577905","0.0-46.42-0.42","2573","pics2/SW4.jpg,pics2/FR4.jpg","","","","","","","false","0","","","sizeS.png","","",""
"image-slider-2AFC","496","1581802","0.0-46.42-1.42","3894","","","","-71","","","","","","","","heartS.png","2547","-71",""
"html-keyboard-response","497","1582556","0.0-46.42-2.42","null","","","","","","","null","","","","","","","",""
"image-selector-fb","498","1585564","0.0-46.43-0.43","null","pics2/SA6.jpg,pics2/FR6.jpg","","","","","","","false","null","","","noS.png","","",""
"image-slider-2AFC","499","1590570","0.0-46.43-1.43","null","","","","null","","","","","","","","heartS.png","4502","-48",""
"html-keyboard-response","500","1591374","0.0-46.43-2.43","null","","","","","","","null","","","","","","","",""
"image-selector-fb","501","1593439","0.0-46.44-0.44","1558","pics2/SW6.jpg,pics2/VE6.jpg","","","","","","","true","1","","","sizeS.png","","",""
"image-slider-2AFC","502","1596060","0.0-46.44-1.44","2617","","","","43","","","","","","","","sizeS.png","2016","43",""
"html-keyboard-response","503","1596864","0.0-46.44-2.44","null","","","","","","","null","","","","","","","",""
"image-selector-fb","504","1599873","0.0-46.45-0.45","null","pics2/VE6.jpg,pics2/SW4.jpg","","","","","","","false","null","","","noS.png","","",""
"image-slider-2AFC","505","1604081","0.0-46.45-1.45","4204","","","","39","","","","","","","","heartS.png","3286,3433","39,39",""
"html-keyboard-response","506","1604937","0.0-46.45-2.45","null","","","","","","","null","","","","","","","",""
"image-selector-fb","507","1607988","0.0-46.46-0.46","2544","pics2/SA3.jpg,pics2/FR6.jpg","","","","","","","false","0","","","heartS.png","","",""
"image-slider-2AFC","508","1610891","0.0-46.46-1.46","2899","","","","-29","","","","","","","","sizeS.png","2017","-29",""
"html-keyboard-response","509","1611644","0.0-46.46-2.46","null","","","","","","","null","","","","","","","",""
"image-selector-fb","510","1614650","0.0-46.47-0.47","null","pics2/SA4.jpg,pics2/FR2.jpg","","","","","","","false","null","","","noS.png","","",""
"image-slider-2AFC","511","1619329","0.0-46.47-1.47","4675","","","","-37","","","","","","","","heartS.png","4221","-37",""
"html-keyboard-response","512","1620181","0.0-46.47-2.47","null","","","","","","","null","","","","","","","",""
"image-selector-fb","513","1623144","0.0-46.48-0.48","2448","pics2/FR4.jpg,pics2/SW4.jpg","","","","","","","true","1","","","heartS.png","","",""
"image-slider-2AFC","514","1625428","0.0-46.48-1.48","2280","","","","31","","","","","","","","heartS.png","1864","31",""
"html-keyboard-response","515","1626280","0.0-46.48-2.48","null","","","","","","","null","","","","","","","",""
"image-selector-fb","516","1629287","0.0-46.49-0.49","null","pics2/FR2.jpg,pics2/VE4.jpg","","","","","","","false","null","","","noS.png","","",""
"image-slider-2AFC","517","1634291","0.0-46.49-1.49","null","","","","null","","","","","","","","heartS.png","4676","55",""
"html-keyboard-response","518","1635094","0.0-46.49-2.49","null","","","","","","","null","","","","","","","",""
"image-selector-fb","519","1637139","0.0-46.50-0.50","1539","pics2/SA3.jpg,pics2/SA2.jpg","","","","","","","true","1","","","sizeS.png","","",""
"image-slider-2AFC","520","1639553","0.0-46.50-1.50","2411","","","","81","","","","","","","","sizeS.png","1750","81",""
"html-keyboard-response","521","1640256","0.0-46.50-2.50","null","","","","","","","null","","","","","","","",""
"image-selector-fb","522","1643262","0.0-46.51-0.51","null","pics2/SA4.jpg,pics2/SW4.jpg","","","","","","","false","null","","","noS.png","","",""
"image-slider-2AFC","523","1648250","0.0-46.51-1.51","4985","","","","-57","","","","","","","","heartS.png","3393,3419","-57,-57",""
"html-keyboard-response","524","1649004","0.0-46.51-2.51","null","","","","","","","null","","","","","","","",""
"image-selector-fb","525","1653509","0.0-46.52-0.52","null","pics2/SW6.jpg,pics2/FR4.jpg","","","","","","","false","null","","","sizeS.png","","",""
"image-slider-2AFC","526","1653511","0.0-46.52-1.52","null","","","","null","","","","","","","","sizeS.png","","",""
"html-keyboard-response","527","1654263","0.0-46.52-2.52","null","","","","","","","null","","","","","","","",""
"image-selector-fb","528","1656078","0.0-46.53-0.53","1309","pics2/SW5.jpg,pics2/VE6.jpg","","","","","","","true","1","","","sizeS.png","","",""
"image-slider-2AFC","529","1659631","0.0-46.53-1.53","3550","","","","35","","","","","","","","heartS.png","3024","35",""
"html-keyboard-response","530","1660384","0.0-46.53-2.53","null","","","","","","","null","","","","","","","",""
"image-selector-fb","531","1662327","0.0-46.54-0.54","1436","pics2/SW4.jpg,pics2/SA2.jpg","","","","","","","false","0","","","sizeS.png","","",""
"image-slider-2AFC","532","1665143","0.0-46.54-1.54","2814","","","","43","","","","","","","","heartS.png","2336","43",""
"html-keyboard-response","533","1665947","0.0-46.54-2.54","null","","","","","","","null","","","","","","","",""
"image-selector-fb","534","1668954","0.0-46.55-0.55","null","pics2/SA3.jpg,pics2/VE6.jpg","","","","","","","false","null","","","noS.png","","",""
"image-slider-2AFC","535","1673958","0.0-46.55-1.55","null","","","","null","","","","","","","","heartS.png","4431","44",""
"html-keyboard-response","536","1674711","0.0-46.55-2.55","null","","","","","","","null","","","","","","","",""
"image-selector-fb","537","1677393","0.0-46.56-0.56","2178","pics2/FR4.jpg,pics2/VE4.jpg","","","","","","","true","1","","","heartS.png","","",""
"image-slider-2AFC","538","1679733","0.0-46.56-1.56","2336","","","","63","","","","","","","","sizeS.png","1821","63",""
"html-keyboard-response","539","1680485","0.0-46.56-2.56","null","","","","","","","null","","","","","","","",""
"image-selector-fb","540","1682207","0.0-46.57-0.57","1216","pics2/FR4.jpg,pics2/SW6.jpg","","","","","","","true","1","","","heartS.png","","",""
"image-slider-2AFC","541","1685171","0.0-46.57-1.57","2960","","","","43","","","","","","","","heartS.png","2067","43",""
"html-keyboard-response","542","1686024","0.0-46.57-2.57","null","","","","","","","null","","","","","","","",""
"image-selector-fb","543","1689274","0.0-46.58-0.58","2745","pics2/SA3.jpg,pics2/SW4.jpg","","","","","","","true","1","","","heartS.png","","",""
"image-slider-2AFC","544","1691296","0.0-46.58-1.58","2018","","","","38","","","","","","","","heartS.png","1541","38",""
"html-keyboard-response","545","1691999","0.0-46.58-2.58","null","","","","","","","null","","","","","","","",""
"image-selector-fb","546","1694431","0.0-46.59-0.59","1927","pics2/SA4.jpg,pics2/SW6.jpg","","","","","","","false","0","","","heartS.png","","",""
"image-slider-2AFC","547","1697875","0.0-46.59-1.59","3440","","","","-41","","","","","","","","heartS.png","2325,2889","-35,-41",""
"html-keyboard-response","548","1698630","0.0-46.59-2.59","null","","","","","","","null","","","","","","","",""
"image-selector-fb","549","1701145","0.0-46.60-0.60","2009","pics2/FR4.jpg,pics2/SA2.jpg","","","","","","","true","1","","","sizeS.png","","",""
"image-slider-2AFC","550","1704317","0.0-46.60-1.60","3168","","","","85","","","","","","","","sizeS.png","1723,1906,2593","65,65,85",""
"html-keyboard-response","551","1705170","0.0-46.60-2.60","null","","","","","","","null","","","","","","","",""
"image-selector-fb","552","1708179","0.0-46.61-0.61","null","pics2/FR2.jpg,pics2/SW6.jpg","","","","","","","false","null","","","noS.png","","",""
"image-slider-2AFC","553","1712157","0.0-46.61-1.61","3975","","","","-36","","","","","","","","sizeS.png","3460","-36",""
"html-keyboard-response","554","1712860","0.0-46.61-2.61","null","","","","","","","null","","","","","","","",""
"image-selector-fb","555","1715869","0.0-46.62-0.62","null","pics2/FR6.jpg,pics2/VE6.jpg","","","","","","","false","null","","","noS.png","","",""
"image-slider-2AFC","556","1720875","0.0-46.62-1.62","null","","","","null","","","","","","","","sizeS.png","","",""
"html-keyboard-response","557","1721630","0.0-46.62-2.62","null","","","","","","","null","","","","","","","",""
"image-selector-fb","558","1724075","0.0-46.63-0.63","1939","pics2/FR4.jpg,pics2/SW5.jpg","","","","","","","true","1","","","heartS.png","","",""
"image-slider-2AFC","559","1726316","0.0-46.63-1.63","2237","","","","36","","","","","","","","sizeS.png","1771","36",""
"html-keyboard-response","560","1727020","0.0-46.63-2.63","null","","","","","","","null","","","","","","","",""
"image-selector-fb","561","1729012","0.0-46.64-0.64","1485","pics2/SW6.jpg,pics2/FR2.jpg","","","","","","","true","1","","","sizeS.png","","",""
"image-slider-2AFC","562","1732306","0.0-46.64-1.64","3290","","","","-33","","","","","","","","heartS.png","2799","-33",""
"html-keyboard-response","563","1733159","0.0-46.64-2.64","null","","","","","","","null","","","","","","","",""
"image-selector-fb","564","1736169","0.0-46.65-0.65","null","pics2/SW6.jpg,pics2/VE6.jpg","","","","","","","false","null","","","noS.png","","",""
"image-slider-2AFC","565","1740698","0.0-46.65-1.65","4526","","","","37","","","","","","","","heartS.png","3975","37",""
"html-keyboard-response","566","1741401","0.0-46.65-2.65","null","","","","","","","null","","","","","","","",""
"pavlovia","567","1741436","0.0-47.0","","","","","","","","","","","","","","","",""
"html-keyboard-response","568","1746441","0.0-48.0","null","<div style='width: 700px;'> <font size=6><b>SHORT BREAK</font></b><br><br><i> Please wait 5 seconds to continue</i></div> ","","","","","","null","","","","","","","",""
"pavlovia","569","1746444","0.0-49.0","","","","","","","","","","","","","","","",""
"html-button-response","570","1755727","0.0-50.0","9281","<div style='width: 700px;'> <font size=6><b>BLOCK 3</font></b><br><br>Press the button whenever you feel ready to start the third and final block</div>","0","","","","","","","","","","","","",""
"image-selector-fb","571","1757405","0.0-51.0-0.0","1174","pics2/VE4.jpg,pics2/SW6.jpg","","","","","","","false","0","","","sizeS.png","","",""
"image-slider-2AFC","572","1760809","0.0-51.0-1.0","3401","","","","-68","","","","","","","","sizeS.png","2581","-68",""
"html-keyboard-response","573","1761514","0.0-51.0-2.0","null","","","","","","","null","","","","","","","",""
"image-selector-fb","574","1766021","0.0-51.1-0.1","null","pics2/SW5.jpg,pics2/SW4.jpg","","","","","","","false","null","","","sizeS.png","","",""
"image-slider-2AFC","575","1766023","0.0-51.1-1.1","null","","","","null","","","","","","","","sizeS.png","","",""
"html-keyboard-response","576","1766827","0.0-51.1-2.1","null","","","","","","","null","","","","","","","",""
"image-selector-fb","577","1768403","0.0-51.2-0.2","1071","pics2/FR6.jpg,pics2/VE4.jpg","","","","","","","true","1","","","heartS.png","","",""
"image-slider-2AFC","578","1771307","0.0-51.2-1.2","2901","","","","84","","","","","","","","sizeS.png","2264","84",""
"html-keyboard-response","579","1772060","0.0-51.2-2.2","null","","","","","","","null","","","","","","","",""
"image-selector-fb","580","1774110","0.0-51.3-0.3","1545","pics2/SA3.jpg,pics2/FR2.jpg","","","","","","","true","1","","","sizeS.png","","",""
"image-slider-2AFC","581","1777309","0.0-51.3-1.3","3196","","","","-33","","","","","","","","heartS.png","2523","-33",""
"html-keyboard-response","582","1778111","0.0-51.3-2.3","null","","","","","","","null","","","","","","","",""
"image-selector-fb","583","1781117","0.0-51.4-0.4","null","pics2/SA2.jpg,pics2/FR4.jpg","","","","","","","false","null","","","noS.png","","",""
"image-slider-2AFC","584","1785625","0.0-51.4-1.4","4506","","","","-71","","","","","","","","heartS.png","3649","-71",""
"html-keyboard-response","585","1786328","0.0-51.4-2.4","null","","","","","","","null","","","","","","","",""
"image-selector-fb","586","1790134","0.0-51.5-0.5","3300","pics2/SA2.jpg,pics2/VE6.jpg","","","","","","","false","0","","","sizeS.png","","",""
"image-slider-2AFC","587","1795139","0.0-51.5-1.5","null","","","","null","","","","","","","","heartS.png","2030,4444","39,-14",""
"html-keyboard-response","588","1795998","0.0-51.5-2.5","null","","","","","","","null","","","","","","","",""
"image-selector-fb","589","1798673","0.0-51.6-0.6","2168","pics2/SA4.jpg,pics2/SA6.jpg","","","","","","","true","1","","","heartS.png","","",""
"image-slider-2AFC","590","1802346","0.0-51.6-1.6","3671","","","","38","","","","","","","","heartS.png","2960","38",""
"html-keyboard-response","591","1803100","0.0-51.6-2.6","null","","","","","","","null","","","","","","","",""
"image-selector-fb","592","1805518","0.0-51.7-0.7","1913","pics2/FR2.jpg,pics2/SA4.jpg","","","","","","","true","1","","","sizeS.png","","",""
"image-slider-2AFC","593","1808263","0.0-51.7-1.7","2741","","","","68","","","","","","","","sizeS.png","2215","68",""
"html-keyboard-response","594","1809016","0.0-51.7-2.7","null","","","","","","","null","","","","","","","",""
"image-selector-fb","595","1812023","0.0-51.8-0.8","null","pics2/SA3.jpg,pics2/VE4.jpg","","","","","","","false","null","","","noS.png","","",""
"image-slider-2AFC","596","1815552","0.0-51.8-1.8","3525","","","","52","","","","","","","","sizeS.png","2681","52",""
"html-keyboard-response","597","1816306","0.0-51.8-2.8","null","","","","","","","null","","","","","","","",""
"image-selector-fb","598","1817781","0.0-51.9-0.9","970","pics2/SA2.jpg,pics2/SA6.jpg","","","","","","","false","0","","","heartS.png","","",""
"image-slider-2AFC","599","1820280","0.0-51.9-1.9","2496","","","","-85","","","","","","","","sizeS.png","1871","-85",""
"html-keyboard-response","600","1821096","0.0-51.9-2.9","null","","","","","","","null","","","","","","","",""
"image-selector-fb","601","1822828","0.0-51.10-0.10","1227","pics2/FR2.jpg,pics2/VE4.jpg","","","","","","","true","1","","","heartS.png","","",""
"image-slider-2AFC","602","1825057","0.0-51.10-1.10","2225","","","","34","","","","","","","","heartS.png","1772","34",""
"html-keyboard-response","603","1825860","0.0-51.10-2.10","null","","","","","","","null","","","","","","","",""
"image-selector-fb","604","1827678","0.0-51.11-0.11","1314","pics2/SA6.jpg,pics2/VE6.jpg","","","","","","","false","0","","","sizeS.png","","",""
"image-slider-2AFC","605","1831084","0.0-51.11-1.11","3403","","","","-44","","","","","","","","heartS.png","2914","-44",""
"html-keyboard-response","606","1831887","0.0-51.11-2.11","null","","","","","","","null","","","","","","","",""
"image-selector-fb","607","1833902","0.0-51.12-0.12","1509","pics2/VE4.jpg,pics2/FR2.jpg","","","","","","","false","0","","","sizeS.png","","",""
"image-slider-2AFC","608","1836487","0.0-51.12-1.12","2582","","","","-75","","","","","","","","sizeS.png","1859","-75",""
"html-keyboard-response","609","1837264","0.0-51.12-2.12","null","","","","","","","null","","","","","","","",""
"image-selector-fb","610","1839536","0.0-51.13-0.13","1767","pics2/FR2.jpg,pics2/VE6.jpg","","","","","","","true","1","","","sizeS.png","","",""
"image-slider-2AFC","611","1843897","0.0-51.13-1.13","4358","","","","59","","","","","","","","heartS.png","3488","59",""
"html-keyboard-response","612","1844651","0.0-51.13-2.13","null","","","","","","","null","","","","","","","",""
"image-selector-fb","613","1846763","0.0-51.14-0.14","1607","pics2/SA3.jpg,pics2/SA6.jpg","","","","","","","true","1","","","heartS.png","","",""
"image-slider-2AFC","614","1850156","0.0-51.14-1.14","3390","","","","59","","","","","","","","heartS.png","2864","59",""
"html-keyboard-response","615","1850959","0.0-51.14-2.14","null","","","","","","","null","","","","","","","",""
"image-selector-fb","616","1852643","0.0-51.15-0.15","1179","pics2/SW5.jpg,pics2/VE4.jpg","","","","","","","true","1","","","heartS.png","","",""
"image-slider-2AFC","617","1855876","0.0-51.15-1.15","3230","","","","57","","","","","","","","heartS.png","2178","57",""
"html-keyboard-response","618","1856728","0.0-51.15-2.15","null","","","","","","","null","","","","","","","",""
"image-selector-fb","619","1859736","0.0-51.16-0.16","null","pics2/SA3.jpg,pics2/FR6.jpg","","","","","","","false","null","","","noS.png","","",""
"image-slider-2AFC","620","1864742","0.0-51.16-1.16","null","","","","null","","","","","","","","heartS.png","4799","56",""
"html-keyboard-response","621","1865496","0.0-51.16-2.16","null","","","","","","","null","","","","","","","",""
"image-selector-fb","622","1869621","0.0-51.17-0.17","3619","pics2/FR4.jpg,pics2/FR6.jpg","","","","","","","true","1","","","heartS.png","","",""
"image-slider-2AFC","623","1873505","0.0-51.17-1.17","3880","","","","49","","","","","","","","sizeS.png","3354","49",""
"html-keyboard-response","624","1874208","0.0-51.17-2.17","null","","","","","","","null","","","","","","","",""
"image-selector-fb","625","1876667","0.0-51.18-0.18","1952","pics2/SA4.jpg,pics2/SA3.jpg","","","","","","","false","0","","","heartS.png","","",""
"image-slider-2AFC","626","1880341","0.0-51.18-1.18","3671","","","","-56","","","","","","","","heartS.png","2692","-56",""
"html-keyboard-response","627","1881144","0.0-51.18-2.18","null","","","","","","","null","","","","","","","",""
"image-selector-fb","628","1884153","0.0-51.19-0.19","null","pics2/SA2.jpg,pics2/SW5.jpg","","","","","","","false","null","","","noS.png","","",""
"image-slider-2AFC","629","1887800","0.0-51.19-1.19","3643","","","","-74","","","","","","","","sizeS.png","3031","-74",""
"html-keyboard-response","630","1888515","0.0-51.19-2.19","null","","","","","","","null","","","","","","","",""
"image-selector-fb","631","1891524","0.0-51.20-0.20","null","pics2/SA6.jpg,pics2/SW6.jpg","","","","","","","false","null","","","noS.png","","",""
"image-slider-2AFC","632","1895736","0.0-51.20-1.20","4209","","","","-58","","","","","","","","heartS.png","3548","-58",""
"html-keyboard-response","633","1896606","0.0-51.20-2.20","null","","","","","","","null","","","","","","","",""
"image-selector-fb","634","1899616","0.0-51.21-0.21","null","pics2/FR6.jpg,pics2/SW4.jpg","","","","","","","false","null","","","noS.png","","",""
"image-slider-2AFC","635","1903453","0.0-51.21-1.21","3834","","","","52","","","","","","","","heartS.png","3320","52",""
"html-keyboard-response","636","1904307","0.0-51.21-2.21","null","","","","","","","null","","","","","","","",""
"image-selector-fb","637","1906735","0.0-51.22-0.22","1923","pics2/SA3.jpg,pics2/SW6.jpg","","","","","","","true","1","","","heartS.png","","",""
"image-slider-2AFC","638","1909405","0.0-51.22-1.22","2667","","","","69","","","","","","","","heartS.png","1932","69",""
"html-keyboard-response","639","1910221","0.0-51.22-2.22","null","","","","","","","null","","","","","","","",""
"image-selector-fb","640","1913228","0.0-51.23-0.23","null","pics2/FR2.jpg,pics2/FR6.jpg","","","","","","","false","null","","","noS.png","","",""
"image-slider-2AFC","641","1917050","0.0-51.23-1.23","3819","","","","-83","","","","","","","","sizeS.png","3134","-83",""
"html-keyboard-response","642","1917853","0.0-51.23-2.23","null","","","","","","","null","","","","","","","",""
"image-selector-fb","643","1920860","0.0-51.24-0.24","null","pics2/SA3.jpg,pics2/FR2.jpg","","","","","","","false","null","","","noS.png","","",""
"image-slider-2AFC","644","1925037","0.0-51.24-1.24","4175","","","","80","","","","","","","","sizeS.png","3612","80",""
"html-keyboard-response","645","1925841","0.0-51.24-2.24","null","","","","","","","null","","","","","","","",""
"image-selector-fb","646","1928922","0.0-51.25-0.25","2574","pics2/FR6.jpg,pics2/SA3.jpg","","","","","","","false","0","","","sizeS.png","","",""
"image-slider-2AFC","647","1932437","0.0-51.25-1.25","3513","","","","-40","","","","","","","","heartS.png","2913","-40",""
"html-keyboard-response","648","1933141","0.0-51.25-2.25","null","","","","","","","null","","","","","","","",""
"image-selector-fb","649","1935732","0.0-51.26-0.26","2086","pics2/SA6.jpg,pics2/SW6.jpg","","","","","","","false","0","","","sizeS.png","","",""
"image-slider-2AFC","650","1938538","0.0-51.26-1.26","2802","","","","-64","","","","","","","","sizeS.png","2190","-64",""
"html-keyboard-response","651","1939291","0.0-51.26-2.26","null","","","","","","","null","","","","","","","",""
"image-selector-fb","652","1942298","0.0-51.27-0.27","null","pics2/SA3.jpg,pics2/SW6.jpg","","","","","","","false","null","","","noS.png","","",""
"image-slider-2AFC","653","1946207","0.0-51.27-1.27","3905","","","","52","","","","","","","","heartS.png","3453","52",""
"html-keyboard-response","654","1947011","0.0-51.27-2.27","null","","","","","","","null","","","","","","","",""
"image-selector-fb","655","1950018","0.0-51.28-0.28","null","pics2/SA6.jpg,pics2/SW4.jpg","","","","","","","false","null","","","noS.png","","",""
"image-slider-2AFC","656","1954831","0.0-51.28-1.28","4809","","","","-64","","","","","","","","sizeS.png","4209","-64",""
"html-keyboard-response","657","1955534","0.0-51.28-2.28","null","","","","","","","null","","","","","","","",""
"image-selector-fb","658","1958603","0.0-51.29-0.29","2563","pics2/FR2.jpg,pics2/FR6.jpg","","","","","","","false","0","","","heartS.png","","",""
"image-slider-2AFC","659","1962402","0.0-51.29-1.29","3795","","","","-35","","","","","","","","heartS.png","1566,2571,3159","-50,-29,-35",""
"html-keyboard-response","660","1963155","0.0-51.29-2.29","null","","","","","","","null","","","","","","","",""
"image-selector-fb","661","1966163","0.0-51.30-0.30","null","pics2/VE4.jpg,pics2/SW4.jpg","","","","","","","false","null","","","noS.png","","",""
"image-slider-2AFC","662","1970108","0.0-51.30-1.30","3941","","","","-60","","","","","","","","sizeS.png","3341","-60",""
"html-keyboard-response","663","1970913","0.0-51.30-2.30","null","","","","","","","null","","","","","","","",""
"image-selector-fb","664","1972755","0.0-51.31-0.31","1337","pics2/SA6.jpg,pics2/FR2.jpg","","","","","","","false","0","","","sizeS.png","","",""
"image-slider-2AFC","665","1975684","0.0-51.31-1.31","2925","","","","-54","","","","","","","","sizeS.png","2275","-54",""
"html-keyboard-response","666","1976388","0.0-51.31-2.31","null","","","","","","","null","","","","","","","",""
"image-selector-fb","667","1979396","0.0-51.32-0.32","null","pics2/FR2.jpg,pics2/FR4.jpg","","","","","","","false","null","","","noS.png","","",""
"image-slider-2AFC","668","1984412","0.0-51.32-1.32","null","","","","null","","","","","","","","sizeS.png","","",""
"html-keyboard-response","669","1985165","0.0-51.32-2.32","null","","","","","","","null","","","","","","","",""
"image-selector-fb","670","1987199","0.0-51.33-0.33","1529","pics2/VE4.jpg,pics2/FR4.jpg","","","","","","","false","0","","","sizeS.png","","",""
"image-slider-2AFC","671","1990397","0.0-51.33-1.33","3195","","","","-55","","","","","","","","heartS.png","2142","-55",""
"html-keyboard-response","672","1991250","0.0-51.33-2.33","null","","","","","","","null","","","","","","","",""
"image-selector-fb","673","1993424","0.0-51.34-0.34","1668","pics2/SA4.jpg,pics2/SA2.jpg","","","","","","","true","1","","","heartS.png","","",""
"image-slider-2AFC","674","1997797","0.0-51.34-1.34","4370","","","","76","","","","","","","","sizeS.png","1712,3734","3,76",""
"html-keyboard-response","675","1998601","0.0-51.34-2.34","null","","","","","","","null","","","","","","","",""
"image-selector-fb","676","2001252","0.0-51.35-0.35","2146","pics2/FR4.jpg,pics2/VE6.jpg","","","","","","","false","0","","","sizeS.png","","",""
"image-slider-2AFC","677","2004559","0.0-51.35-1.35","3303","","","","54","","","","","","","","sizeS.png","2764","54",""
"html-keyboard-response","678","2005312","0.0-51.35-2.35","null","","","","","","","null","","","","","","","",""
"image-selector-fb","679","2007366","0.0-51.36-0.36","1548","pics2/SA6.jpg,pics2/SA2.jpg","","","","","","","true","1","","","sizeS.png","","",""
"image-slider-2AFC","680","2010527","0.0-51.36-1.36","3158","","","","47","","","","","","","","heartS.png","2606","47",""
"html-keyboard-response","681","2011231","0.0-51.36-2.36","null","","","","","","","null","","","","","","","",""
"image-selector-fb","682","2014241","0.0-51.37-0.37","null","pics2/SA2.jpg,pics2/SA6.jpg","","","","","","","false","null","","","noS.png","","",""
"image-slider-2AFC","683","2019246","0.0-51.37-1.37","null","","","","null","","","","","","","","sizeS.png","3340","-100",""
"html-keyboard-response","684","2020099","0.0-51.37-2.37","null","","","","","","","null","","","","","","","",""
"image-selector-fb","685","2022166","0.0-51.38-0.38","1560","pics2/SW4.jpg,pics2/SW5.jpg","","","","","","","false","0","","","heartS.png","","",""
"image-slider-2AFC","686","2024738","0.0-51.38-1.38","2568","","","","-48","","","","","","","","heartS.png","1882","-48",""
"html-keyboard-response","687","2025504","0.0-51.38-2.38","null","","","","","","","null","","","","","","","",""
"image-selector-fb","688","2028513","0.0-51.39-0.39","null","pics2/FR4.jpg,pics2/FR6.jpg","","","","","","","false","null","","","noS.png","","",""
"image-slider-2AFC","689","2033518","0.0-51.39-1.39","null","","","","null","","","","","","","","heartS.png","3511","-32",""
"html-keyboard-response","690","2034323","0.0-51.39-2.39","null","","","","","","","null","","","","","","","",""
"image-selector-fb","691","2036696","0.0-51.40-0.40","1865","pics2/FR2.jpg,pics2/SW6.jpg","","","","","","","true","1","","","heartS.png","","",""
"image-slider-2AFC","692","2039071","0.0-51.40-1.40","2372","","","","-35","","","","","","","","sizeS.png","1956","-35",""
"html-keyboard-response","693","2039782","0.0-51.40-2.40","null","","","","","","","null","","","","","","","",""
"image-selector-fb","694","2042356","0.0-51.41-0.41","2066","pics2/SW4.jpg,pics2/VE4.jpg","","","","","","","true","1","","","heartS.png","","",""
"image-slider-2AFC","695","2043997","0.0-51.41-1.41","1638","","","","39","","","","","","","","heartS.png","1148","39",""
"html-keyboard-response","696","2044756","0.0-51.41-2.41","null","","","","","","","null","","","","","","","",""
"image-selector-fb","697","2046839","0.0-51.42-0.42","1578","pics2/FR4.jpg,pics2/SA3.jpg","","","","","","","true","1","","","sizeS.png","","",""
"image-slider-2AFC","698","2051189","0.0-51.42-1.42","4347","","","","-36","","","","","","","","heartS.png","3586","-36",""
"html-keyboard-response","699","2051992","0.0-51.42-2.42","null","","","","","","","null","","","","","","","",""
"image-selector-fb","700","2054999","0.0-51.43-0.43","null","pics2/SA4.jpg,pics2/SW6.jpg","","","","","","","false","null","","","noS.png","","",""
"image-slider-2AFC","701","2059740","0.0-51.43-1.43","4739","","","","-65","","","","","","","","sizeS.png","2743,3097,3525,3992","-35,-40,-54,-65",""
"html-keyboard-response","702","2060444","0.0-51.43-2.43","null","","","","","","","null","","","","","","","",""
"image-selector-fb","703","2063477","0.0-51.44-0.44","2527","pics2/SW4.jpg,pics2/SW6.jpg","","","","","","","false","0","","","heartS.png","","",""
"image-slider-2AFC","704","2066001","0.0-51.44-1.44","2522","","","","-46","","","","","","","","sizeS.png","1995","-46",""
"html-keyboard-response","705","2066703","0.0-51.44-2.44","null","","","","","","","null","","","","","","","",""
"image-selector-fb","706","2068976","0.0-51.45-0.45","1769","pics2/FR6.jpg,pics2/SW4.jpg","","","","","","","true","1","","","sizeS.png","","",""
"image-slider-2AFC","707","2072493","0.0-51.45-1.45","3512","","","","24","","","","","","","","heartS.png","1039,2644","10,24",""
