"trial_type","trial_index","time_elapsed","internal_node_id","rt","stimulus","button_pressed","success","response","cat","value","key_press","correct","image_click","first_click_rt","first_click_val","symbol","all_click_rt","all_click_val","view_history"
"pavlovia","0","4","0.0-0.0","","","","","","","","","","","","","","","",""
"html-button-response","1","2820","0.0-1.0","2815","<div style='width: 700px; font-size: 150%'><font size='40'>  Welcome to our study!</font><br><br><br> <small> Our experiment is about <i>decision making</i>. You will choose and rate different food items, such as these: <br><br> <div><img src='food_combo2.png', height = '400px'></img></div>","0","","","","","","","","","","","","",""
"html-button-response","2","11411","0.0-2.0","8589","<div style='width: 700px; font-size: 150%'><br><br><br><small> <u><i>This is a multi-part study.</i></u><br><br> In the first part you will rate 24 food items twice.<br><br><div><img src=""rat1.png"" style=""width: 25%""></img></div><br>In the second part (longest) you will make repeated choices and judgements concerning the food items.<br><br><div><img src=""mainx.png"" style=""width: 50%""></img></div><br>In the third and final part, you will rate the items again and answer few short questionnaires.<br><br><div><img src=""rat2.png"" style=""width: 50%""></img></div><br><br>","0","","","","","","","","","","","","",""
"fullscreen","3","14381","0.0-3.0","","","","true","","","","","","","","","","","",""
"html-button-response","4","15603","0.0-4.0","1221","<div style='width: 900px; font-size: 150%;' <font size='20%'> In the first part of the task you will use the mouse to rate food items on <i>2 scales</i> </font></div><br><br><div style='width: 900px'><div style='float: left; width: 50%; margin-right:2.5em'><img src='heartS.png'></img><p class='small' style='text-align: justify'>When you see the heart cue you will rate food items in terms of how much like them/would like to eat them <i>right now</i>. You will rate them on a continuous scale from left (strong dislike) to right (strong liking). Before submitting your rating, try imagining how the item tastes and how much you desire it.<br><br></p></div><div ><img src='sizeS.png'></img><p class='small' style='text-align: justify'>When you see the size cue, you will rate the same food items in terms of their size. The scale goes from left (tiny) to right (very large). You should assess picture size <i><u>relative</i></u> to the white background. <b>Remember:</b> rate the size of the picture, <u>not</u> the size of the item in real life. </p></div><div style='width: 900px'><br><br><b><i>Notice:</b> by starting the rating you agree that your sumbission might be rejected at an early stage and the experiment might end, if your size ratings are not at least modestly related to objective sizes, or if you repeat the same value ratings too many times. If you don't agree, please exit by closing the browser window. </i><br><br><br>","0","","","","","","","","","","","","",""
"html-button-response","5","16643","0.0-5.0","1039","<div><img src='heartS.png'></img></div><br><div style='text-align: justify; width: 700px'>Using the mouse, rate the <b><i>likeness</b></i> of the food items (how much you like them/would like to eat them <i>right now</i>). Far right-end of the scale indicates an item you <i>like a lot</i>. Far left-end indicates an item you <i>dislike a lot</i>. Think about each answer.   <ul><li>Try <b><i>not</b></i> to give identical rating to different items.</li><li>Use the whole scale, and <b><i>not</b></i> just the extremes</ul></div><br>","0","","","","","","","","","","","","",""
"image-slider-response","6","19755","0.0-6.0-0.0-0.0","3111","pics2/VE1.jpg","","","45","VE","","","","","","","","","",""
"image-slider-response","7","22003","0.0-6.0-0.0-0.1","2041","pics2/SW3.jpg","","","74","SW","","","","","","","","","",""
"image-slider-response","8","24003","0.0-6.0-0.0-0.2","1796","pics2/FR5.jpg","","","55","FR","","","","","","","","","",""
"image-slider-response","9","26411","0.0-6.0-0.0-0.3","2206","pics2/SA4.jpg","","","37","SA","","","","","","","","","",""
"image-slider-response","10","28643","0.0-6.0-0.0-0.4","2030","pics2/SW5.jpg","","","63","SW","","","","","","","","","",""
"image-slider-response","11","30795","0.0-6.0-0.0-0.5","1951","pics2/SA3.jpg","","","87","SA","","","","","","","","","",""
"image-slider-response","12","32907","0.0-6.0-0.0-0.6","1910","pics2/SW6.jpg","","","64","SW","","","","","","","","","",""
"image-slider-response","13","36227","0.0-6.0-0.0-0.7","3117","pics2/SA1.jpg","","","9","SA","","","","","","","","","",""
"image-slider-response","14","38603","0.0-6.0-0.0-0.8","2174","pics2/FR1.jpg","","","42","FR","","","","","","","","","",""
"image-slider-response","15","40939","0.0-6.0-0.0-0.9","2134","pics2/SW1.jpg","","","76","SW","","","","","","","","","",""
"image-slider-response","16","43652","0.0-6.0-0.0-0.10","2510","pics2/SA5.jpg","","","13","SA","","","","","","","","","",""
"image-slider-response","17","45891","0.0-6.0-0.0-0.11","2035","pics2/FR3.jpg","","","90","FR","","","","","","","","","",""
"image-slider-response","18","48075","0.0-6.0-0.0-0.12","1981","pics2/VE2.jpg","","","75","VE","","","","","","","","","",""
"image-slider-response","19","51315","0.0-6.0-0.0-0.13","3035","pics2/FR6.jpg","","","45","FR","","","","","","","","","",""
"image-slider-response","20","53675","0.0-6.0-0.0-0.14","2156","pics2/FR4.jpg","","","86","FR","","","","","","","","","",""
"image-slider-response","21","57947","0.0-6.0-0.0-0.15","4070","pics2/FR2.jpg","","","59","FR","","","","","","","","","",""
"image-slider-response","22","60388","0.0-6.0-0.0-0.16","2239","pics2/SA6.jpg","","","90","SA","","","","","","","","","",""
"image-slider-response","23","62451","0.0-6.0-0.0-0.17","1859","pics2/SW2.jpg","","","90","SW","","","","","","","","","",""
"image-slider-response","24","64691","0.0-6.0-0.0-0.18","2037","pics2/VE4.jpg","","","54","VE","","","","","","","","","",""
"image-slider-response","25","67140","0.0-6.0-0.0-0.19","2246","pics2/SA2.jpg","","","73","SA","","","","","","","","","",""
"image-slider-response","26","69435","0.0-6.0-0.0-0.20","2091","pics2/VE3.jpg","","","69","VE","","","","","","","","","",""
"image-slider-response","27","72179","0.0-6.0-0.0-0.21","2538","pics2/VE5.jpg","","","28","VE","","","","","","","","","",""
"image-slider-response","28","74627","0.0-6.0-0.0-0.22","2247","pics2/VE6.jpg","","","0","VE","","","","","","","","","",""
"image-slider-response","29","77091","0.0-6.0-0.0-0.23","2263","pics2/SW4.jpg","","","76","SW","","","","","","","","","",""
"html-button-response","30","79274","0.0-7.0","1980","<div style='width: 900px;'> <font size = 6><b> End of the first rating</b><br><br>","0","","","","","","","","","","","","",""
"html-button-response","31","277499","0.0-9.0","198224","<div ><img src='sizeS.png'></img></div><br><div style='text-align: justify; width: 700px'> Using the mouse, rate the <b><i>size</b></i> of the food items <b><i> relative to the white background.</b></i> Right-end of the scale indicates a <i>very large item</i>, which covers a large portion of the white rectangle. Left-end indicates a <i>very tiny</i> item which covers a tiny portion of the white rectangle.<br><br><i><u>Remember</i></u>: everything that is not the white background also contributes to item size (e.g. packing, plates, ect.)<br><br> Please keep in mind that if the accuracy of ratings do not allign well with actual sizes, the experiment will end.  As a result it will be consider incomplete and therefore no payment would be made. Good luck!<br><br></div><br>","0","","","","","","","","","","","","",""
"html-button-response","32","282035","0.0-10.0","4535","<div ><img src='sizeS.png'></img></div><br><b><font size=6>Examples of items that you might encounter</b><br><div style='width: 750px;'><div style='width: 33.33%; float:left'><br><br><br><i>Large Item</i><br><br><img src='large.jpg', width=200px></img></div><div style='float:right'><br><br><br><i>Small Item</i><br><br><img src='small.jpg', width=200px></img></div><div ><br><br><br><i>Medium Item</i><br><br><img src='med.jpg', width=200px></img></div></div><br><br>","0","","","","","","","","","","","","",""
"image-slider-response","33","284467","0.0-11.0-0.0-0.0","2431","pics2/VE4.jpg","","","53","null","","","","","","","","","",""
"image-slider-response","34","286900","0.0-11.0-0.0-0.1","2232","pics2/SA3.jpg","","","55","null","","","","","","","","","",""
"image-slider-response","35","288979","0.0-11.0-0.0-0.2","1877","pics2/SA2.jpg","","","48","null","","","","","","","","","",""
"image-slider-response","36","292523","0.0-11.0-0.0-0.3","3342","pics2/FR3.jpg","","","54","null","","","","","","","","","",""
"image-slider-response","37","295331","0.0-11.0-0.0-0.4","2606","pics2/SA5.jpg","","","46","null","","","","","","","","","",""
"image-slider-response","38","298947","0.0-11.0-0.0-0.5","3413","pics2/SW5.jpg","","","57","null","","","","","","","","","",""
"image-slider-response","39","303363","0.0-11.0-0.0-0.6","4214","pics2/SW4.jpg","","","54","null","","","","","","","","","",""
"image-slider-response","40","306332","0.0-11.0-0.0-0.7","2767","pics2/FR6.jpg","","","54","null","","","","","","","","","",""
"image-slider-response","41","308564","0.0-11.0-0.0-0.8","2027","pics2/FR1.jpg","","","58","null","","","","","","","","","",""
"image-slider-response","42","311627","0.0-11.0-0.0-0.9","2861","pics2/FR4.jpg","","","60","null","","","","","","","","","",""
"image-slider-response","43","313707","0.0-11.0-0.0-0.10","1877","pics2/VE3.jpg","","","55","null","","","","","","","","","",""
"image-slider-response","44","316684","0.0-11.0-0.0-0.11","2774","pics2/SW2.jpg","","","74","null","","","","","","","","","",""
"image-slider-response","45","320291","0.0-11.0-0.0-0.12","3405","pics2/SA6.jpg","","","60","null","","","","","","","","","",""
"image-slider-response","46","322187","0.0-11.0-0.0-0.13","1693","pics2/FR5.jpg","","","55","null","","","","","","","","","",""
"image-slider-response","47","324507","0.0-11.0-0.0-0.14","2116","pics2/VE1.jpg","","","62","null","","","","","","","","","",""
"image-slider-response","48","327700","0.0-11.0-0.0-0.15","2991","pics2/SW6.jpg","","","49","null","","","","","","","","","",""
"image-slider-response","49","329611","0.0-11.0-0.0-0.16","1708","pics2/SW3.jpg","","","60","null","","","","","","","","","",""
"image-slider-response","50","331691","0.0-11.0-0.0-0.17","1878","pics2/VE2.jpg","","","67","null","","","","","","","","","",""
"image-slider-response","51","335283","0.0-11.0-0.0-0.18","3390","pics2/SA1.jpg","","","76","null","","","","","","","","","",""
"image-slider-response","52","338555","0.0-11.0-0.0-0.19","3068","pics2/VE6.jpg","","","53","null","","","","","","","","","",""
"image-slider-response","53","341123","0.0-11.0-0.0-0.20","2366","pics2/SA4.jpg","","","48","null","","","","","","","","","",""
"image-slider-response","54","343963","0.0-11.0-0.0-0.21","2636","pics2/FR2.jpg","","","69","null","","","","","","","","","",""
"image-slider-response","55","346162","0.0-11.0-0.0-0.22","1998","pics2/SW1.jpg","","","81","null","","","","","","","","","",""
"image-slider-response","56","348195","0.0-11.0-0.0-0.23","1829","pics2/VE5.jpg","","","60","null","","","","","","","","","",""
"html-button-response","57","349851","0.0-12.0","1455","<div style='width: 900px;'> <font size = 6><b> End of the second rating</b><br><br>","0","","","","","","","","","","","","",""
"html-button-response","58","352891","0.0-13.0","3039","<div style='width: 900px;'>Now please rate the items for the second time. <br><br>This is not a memory test - you don't need to be consistent with your previous ratings. Just as before, try to make accurate judgements.<br><br>","0","","","","","","","","","","","","",""
"html-button-response","59","353954","0.0-14.0","1063","<div><img src='heartS.png'></img></div><br><div style='text-align: justify; width: 700px'>Using the mouse, rate the <b><i>likeness</b></i> of the food items (how much you like them/would like to eat them <i>right now</i>). Far right-end of the scale indicates an item you <i>like a lot</i>. Far left-end indicates an item you <i>dislike a lot</i>. Think about each answer.   <ul><li>Try <b><i>not</b></i> to give identical rating to different items.</li><li>Use the whole scale, and <b><i>not</b></i> just the extremes</ul></div><br>","0","","","","","","","","","","","","",""
"image-slider-response","60","356354","0.0-15.0-0.0-0.0","2399","pics2/SA4.jpg","","","38","SA","","","","","","","","","",""
"image-slider-response","61","358954","0.0-15.0-0.0-0.1","2398","pics2/SW2.jpg","","","70","SW","","","","","","","","","",""
"image-slider-response","62","360786","0.0-15.0-0.0-0.2","1630","pics2/SW5.jpg","","","63","SW","","","","","","","","","",""
"image-slider-response","63","362571","0.0-15.0-0.0-0.3","1583","pics2/SW3.jpg","","","74","SW","","","","","","","","","",""
"image-slider-response","64","365259","0.0-15.0-0.0-0.4","2485","pics2/FR5.jpg","","","54","FR","","","","","","","","","",""
"image-slider-response","65","366979","0.0-15.0-0.0-0.5","1519","pics2/FR3.jpg","","","74","FR","","","","","","","","","",""
"image-slider-response","66","368850","0.0-15.0-0.0-0.6","1668","pics2/VE3.jpg","","","76","VE","","","","","","","","","",""
"image-slider-response","67","370764","0.0-15.0-0.0-0.7","1712","pics2/FR1.jpg","","","44","FR","","","","","","","","","",""
"image-slider-response","68","373851","0.0-15.0-0.0-0.8","2885","pics2/VE4.jpg","","","58","VE","","","","","","","","","",""
"image-slider-response","69","375651","0.0-15.0-0.0-0.9","1596","pics2/SW1.jpg","","","83","SW","","","","","","","","","",""
"image-slider-response","70","377747","0.0-15.0-0.0-0.10","1895","pics2/SA1.jpg","","","14","SA","","","","","","","","","",""
"image-slider-response","71","380187","0.0-15.0-0.0-0.11","2236","pics2/FR2.jpg","","","47","FR","","","","","","","","","",""
"image-slider-response","72","382243","0.0-15.0-0.0-0.12","1854","pics2/VE5.jpg","","","27","VE","","","","","","","","","",""
"image-slider-response","73","384147","0.0-15.0-0.0-0.13","1703","pics2/SA3.jpg","","","79","SA","","","","","","","","","",""
"image-slider-response","74","386971","0.0-15.0-0.0-0.14","2620","pics2/SA2.jpg","","","65","SA","","","","","","","","","",""
"image-slider-response","75","388788","0.0-15.0-0.0-0.15","1615","pics2/SA6.jpg","","","77","SA","","","","","","","","","",""
"image-slider-response","76","390651","0.0-15.0-0.0-0.16","1661","pics2/SW4.jpg","","","82","SW","","","","","","","","","",""
"image-slider-response","77","392674","0.0-15.0-0.0-0.17","1820","pics2/FR4.jpg","","","63","FR","","","","","","","","","",""
"image-slider-response","78","394587","0.0-15.0-0.0-0.18","1710","pics2/FR6.jpg","","","46","FR","","","","","","","","","",""
"image-slider-response","79","396539","0.0-15.0-0.0-0.19","1749","pics2/VE1.jpg","","","37","VE","","","","","","","","","",""
"image-slider-response","80","398259","0.0-15.0-0.0-0.20","1519","pics2/VE2.jpg","","","75","VE","","","","","","","","","",""
"image-slider-response","81","400915","0.0-15.0-0.0-0.21","2454","pics2/SA5.jpg","","","7","SA","","","","","","","","","",""
"image-slider-response","82","402787","0.0-15.0-0.0-0.22","1671","pics2/SW6.jpg","","","60","SW","","","","","","","","","",""
"image-slider-response","83","405043","0.0-15.0-0.0-0.23","2053","pics2/VE6.jpg","","","0","VE","","","","","","","","","",""
"call-function","84","405251","0.0-16.0","","","","","","","","","","","","","","","",""
"call-function","85","405253","0.0-17.0","","","","","","","","","","","","","","","",""
"html-button-response","86","406292","0.0-18.0","1038","<div style='width: 900px;'> <font size = 6><b> End of the first rating</b><br><br>","0","","","","","","","","","","","","",""
"html-button-response","87","408835","0.0-19.0","2542","<div ><img src='sizeS.png'></img></div><br><div style='text-align: justify; width: 700px'> Using the mouse, rate the <b><i>size</b></i> of the food items <b><i> relative to the white background.</b></i> Right-end of the scale indicates a <i>very large item</i>, which covers a large portion of the white rectangle. Left-end indicates a <i>very tiny</i> item which covers a tiny portion of the white rectangle.<br><br><i><u>Remember</i></u>: everything that is not the white background also contributes to item size (e.g. packing, plates, ect.)<br><br> Please keep in mind that if the accuracy of ratings do not allign well with actual sizes, the experiment will end.  As a result it will be consider incomplete and therefore no payment would be made. Good luck!<br><br></div><br>","0","","","","","","","","","","","","",""
"image-slider-response","88","410411","0.0-20.0-0.0-0.0","1576","pics2/SW4.jpg","","","60","null","","","","","","","","","",""
"image-slider-response","89","412371","0.0-20.0-0.0-0.1","1756","pics2/FR4.jpg","","","77","null","","","","","","","","","",""
"image-slider-response","90","414147","0.0-20.0-0.0-0.2","1574","pics2/SW2.jpg","","","87","null","","","","","","","","","",""
"image-slider-response","91","416300","0.0-20.0-0.0-0.3","1951","pics2/FR3.jpg","","","71","null","","","","","","","","","",""
"image-slider-response","92","418059","0.0-20.0-0.0-0.4","1555","pics2/VE2.jpg","","","71","null","","","","","","","","","",""
"image-slider-response","93","419835","0.0-20.0-0.0-0.5","1575","pics2/VE3.jpg","","","68","null","","","","","","","","","",""
"image-slider-response","94","422147","0.0-20.0-0.0-0.6","2109","pics2/FR2.jpg","","","77","null","","","","","","","","","",""
"image-slider-response","95","424155","0.0-20.0-0.0-0.7","1804","pics2/SA2.jpg","","","54","null","","","","","","","","","",""
"image-slider-response","96","427379","0.0-20.0-0.0-0.8","3021","pics2/FR1.jpg","","","66","null","","","","","","","","","",""
"image-slider-response","97","429987","0.0-20.0-0.0-0.9","2407","pics2/SA5.jpg","","","46","null","","","","","","","","","",""
"image-slider-response","98","432323","0.0-20.0-0.0-0.10","2133","pics2/SW3.jpg","","","64","null","","","","","","","","","",""
"image-slider-response","99","434595","0.0-20.0-0.0-0.11","2068","pics2/SA3.jpg","","","63","null","","","","","","","","","",""
"image-slider-response","100","437124","0.0-20.0-0.0-0.12","2326","pics2/VE6.jpg","","","52","null","","","","","","","","","",""
"image-slider-response","101","439075","0.0-20.0-0.0-0.13","1749","pics2/FR6.jpg","","","55","null","","","","","","","","","",""
"image-slider-response","102","441059","0.0-20.0-0.0-0.14","1779","pics2/FR5.jpg","","","60","null","","","","","","","","","",""
"image-slider-response","103","445155","0.0-20.0-0.0-0.15","3894","pics2/SA1.jpg","","","78","null","","","","","","","","","",""
"image-slider-response","104","447332","0.0-20.0-0.0-0.16","1975","pics2/VE5.jpg","","","63","null","","","","","","","","","",""
"image-slider-response","105","449883","0.0-20.0-0.0-0.17","2348","pics2/VE1.jpg","","","63","null","","","","","","","","","",""
"image-slider-response","106","452027","0.0-20.0-0.0-0.18","1941","pics2/SW1.jpg","","","83","null","","","","","","","","","",""
"image-slider-response","107","454827","0.0-20.0-0.0-0.19","2598","pics2/SW6.jpg","","","54","null","","","","","","","","","",""
"image-slider-response","108","456770","0.0-20.0-0.0-0.20","1742","pics2/VE4.jpg","","","58","null","","","","","","","","","",""
"image-slider-response","109","459491","0.0-20.0-0.0-0.21","2519","pics2/SA6.jpg","","","55","null","","","","","","","","","",""
"image-slider-response","110","461427","0.0-20.0-0.0-0.22","1734","pics2/SW5.jpg","","","56","null","","","","","","","","","",""
"image-slider-response","111","463179","0.0-20.0-0.0-0.23","1548","pics2/SA4.jpg","","","47","null","","","","","","","","","",""
"call-function","112","463380","0.0-21.0","","","","","","","","","","","","","","","",""
"html-button-response","113","464659","0.0-22.0","1277","<div style='width: 900px;'> <font size = 6><b> End of the second rating</b><br><br>","0","","","","","","","","","","","","",""
"pavlovia","114","464665","0.0-23.0","","","","","","","","","","","","","","","",""
"html-keyboard-response","115","469667","0.0-24.0","null","<div style='width: 700px;'> <font size=6><b>SHORT BREAK</font></b><br><br><i> Please wait 5 seconds to continue</i></div> ","","","","","","null","","","","","","","",""
"pavlovia","116","469668","0.0-25.0","","","","","","","","","","","","","","","",""
"html-button-response","117","473378","0.0-26.0","3710","<div style='width: 700px;'>In the main part of the study, you will be choosing between 2 items. When it's time to choose,  this symbol will appear: <br><br><img src='chooseS.png'></img><br><br>Below, a cue will signify the type of choice: </div><br><div style='width: 700px;'><div style='float: left; width: 50%'><img src='heartS.png'></img><p class='small'>Heart cue means you should choose the item you <b><i>prefer</b></i> more.</p></div><div class='float: right; width:50%'><img src='sizeS.png'></img><p class='small'>Size cue means you should choose the <b><i>larger</b></i> item. </p></div></div><br><div style='width: 700px;'>When you click, a green square will appear around the item you chose.<br></div><div><br>","0","","","","","","","","","","","","",""
"image-selector-fb-tut","118","476518","0.0-27.0","2136","0232.jpg,0123.jpg","","","","","","","false","0","","","","","",""
"image-selector-fb-tut","119","479572","0.0-28.0","2050","0232.jpg,0123.jpg","","","","","","","true","1","","","","","",""
"html-button-response","120","480514","0.0-29.0","941","<div style='width: 900px;'>Your choices should be both <b><i>fast and accurate</b></i>. <br><br>You will have <i>4 seconds</i> to make each choice, which should be enough consider the options and click on one of the items.<br><br>","0","","","","","","","","","","","","",""
"html-button-response","121","481450","0.0-30.0","935","<div style='width: 900px;'>Additionally, on some choice trials you will see the <b><i>no-choice cue</b></i>: <br><br><img src='noS.png'></img> <br><br>This cue means you can't make any choice. You can examine the items, but  can't click on any of them. Just wait patiently for the cue to dissapear.<br><br>","0","","","","","","","","","","","","",""
"image-selector-fb-tut","122","483455","0.0-31.0","null","0232.jpg,0123.jpg","","","","","","","false","null","","","","","",""
"html-button-response","123","484268","0.0-32.0","812","<div style='width: 900px;'>After each choice the items will remain on the screen and you will see this symbol: <br><br><img src='judgeS.png'></img> <br><br>This means you should rate<b> the magnitude of the difference</b> between the items using a scale: </div><br><div style='width: 900px; '><div style='float: left; width: 50%; margin-right: 2.5em; align-self:left'><img src='heartS.png'></img><p class='small' style = 'text-align: justify;'>Heart cue means you should rate <b>how much you prefer</b> one of the items over the other. Moving the scale indicator to the left means you prefer the left one; moving it to the right - right one. The more you prefer one of them, the more towards that side you should move the scale indicator. </p></div><div class='float: right; width: 50%; margin-left: 2.5em;'><img src='sizeS.png'></img><p class='small' style='text-align: justify'>Size cue means you should rate <b>how much larger</b> is one of the items over the other. Moving the scale indicator to the left means you think the left is larger; moving it to the right - right one. The greater the difference in size, the more towards that side you should move the scale indicator.</div><br>","0","","","","","","","","","","","","",""
"image-slider-2AFC-tut","124","487915","0.0-33.0","3646","","","","60","","","","","","3013","60","","","",""
"image-slider-2AFC-tut","125","490731","0.0-34.0","2813","","","","41","","","","","","2333","41","","","",""
"html-button-response","126","493411","0.0-35.0","2680","<br><br><font size = 36><b> Examples </b></font><br><br><i> 1) I would like to eat some croissants a <b>lot more</b> than doritos right now:</i><br><img src='ex1.PNG', width='62%'></img><br><br><br><i> 2) I would like to eat some doritos a <b>bit more</b> than croissants right now, but just slightly:</i><br><img src='ex2.PNG' width='62%'></img>","0","","","","","","","","","","","","",""
"html-button-response","127","496714","0.0-36.0","3302","<div style='width: 900px;'><i>Now you know everything you need to do the task!</i> <br><br>Let's start by doing a <b>short training</b>, so you'll get used to how it works. </div><br>","0","","","","","","","","","","","","",""
"image-selector-fb","128","499024","0.0-37.0-0.0","1806","pics2/VE5.jpg,pics2/SA4.jpg","","","","","","","false","0","","","sizeS.png","","",""
"image-slider-2AFC","129","501267","0.0-37.0-1.0","2242","","","","-4","","","","","","","","sizeS.png","1801","-4",""
"html-keyboard-response","130","502071","0.0-37.0-2.0","null","","","","","","","null","","","","","","","",""
"image-selector-fb","131","504680","0.0-37.1-0.1","2106","pics2/VE5.jpg,pics2/FR5.jpg","","","","","","","true","1","","","sizeS.png","","",""
"image-slider-2AFC","132","506211","0.0-37.1-1.1","1530","","","","2","","","","","","","","heartS.png","1081","2",""
"html-keyboard-response","133","507064","0.0-37.1-2.1","null","","","","","","","null","","","","","","","",""
"image-selector-fb","134","510067","0.0-37.2-0.2","null","pics2/FR1.jpg,pics2/VE1.jpg","","","","","","","false","null","","","noS.png","","",""
"image-slider-2AFC","135","513106","0.0-37.2-1.2","3037","","","","-5","","","","","","","","sizeS.png","2502","-5",""
"html-keyboard-response","136","513809","0.0-37.2-2.2","null","","","","","","","null","","","","","","","",""
"image-selector-fb","137","515568","0.0-37.3-0.3","1254","pics2/SW6.jpg,pics2/VE4.jpg","","","","","","","false","0","","","heartS.png","","",""
"image-slider-2AFC","138","517651","0.0-37.3-1.3","2082","","","","10","","","","","","","","sizeS.png","1594","10",""
"html-keyboard-response","139","518354","0.0-37.3-2.3","null","","","","","","","null","","","","","","","",""
"image-selector-fb","140","520017","0.0-37.4-0.4","1159","pics2/SW6.jpg,pics2/SA4.jpg","","","","","","","false","0","","","heartS.png","","",""
"image-slider-2AFC","141","522508","0.0-37.4-1.4","2490","","","","-57","","","","","","","","heartS.png","1881","-57",""
"html-keyboard-response","142","523310","0.0-37.4-2.4","null","","","","","","","null","","","","","","","",""
"image-selector-fb","143","525129","0.0-37.5-0.5","1316","pics2/FR6.jpg,pics2/VE1.jpg","","","","","","","false","0","","","heartS.png","","",""
"image-slider-2AFC","144","526523","0.0-37.5-1.5","1392","","","","-3","","","","","","","","heartS.png","944","-3",""
"html-keyboard-response","145","527325","0.0-37.5-2.5","null","","","","","","","null","","","","","","","",""
"image-selector-fb","146","529401","0.0-37.6-0.6","1572","pics2/VE5.jpg,pics2/VE1.jpg","","","","","","","true","1","","","sizeS.png","","",""
"image-slider-2AFC","147","531076","0.0-37.6-1.6","1673","","","","4","","","","","","","","sizeS.png","1226","4",""
"html-keyboard-response","148","531828","0.0-37.6-2.6","null","","","","","","","null","","","","","","","",""
"image-selector-fb","149","534834","0.0-37.7-0.7","null","pics2/VE6.jpg,pics2/SA4.jpg","","","","","","","false","null","","","noS.png","","",""
"image-slider-2AFC","150","536828","0.0-37.7-1.7","1992","","","","3","","","","","","","","heartS.png","1360","3",""
"html-keyboard-response","151","537631","0.0-37.7-2.7","null","","","","","","","null","","","","","","","",""
"image-selector-fb","152","540636","0.0-37.8-0.8","null","pics2/FR1.jpg,pics2/FR5.jpg","","","","","","","false","null","","","noS.png","","",""
"image-slider-2AFC","153","542971","0.0-37.8-1.8","2334","","","","7","","","","","","","","heartS.png","1782","7",""
"html-keyboard-response","154","543823","0.0-37.8-2.8","null","","","","","","","null","","","","","","","",""
"image-selector-fb","155","546831","0.0-37.9-0.9","null","pics2/VE4.jpg,pics2/VE1.jpg","","","","","","","false","null","","","noS.png","","",""
"image-slider-2AFC","156","548955","0.0-37.9-1.9","2124","","","","7","","","","","","","","sizeS.png","1620","7",""
"html-keyboard-response","157","549658","0.0-37.9-2.9","null","","","","","","","null","","","","","","","",""
"image-selector-fb","158","552663","0.0-37.10-0.10","null","pics2/FR2.jpg,pics2/FR1.jpg","","","","","","","false","null","","","noS.png","","",""
"image-slider-2AFC","159","555452","0.0-37.10-1.10","2787","","","","11","","","","","","","","sizeS.png","2011","11",""
"html-keyboard-response","160","556153","0.0-37.10-2.10","null","","","","","","","null","","","","","","","",""
"image-selector-fb","161","559258","0.0-37.11-0.11","2601","pics2/SW6.jpg,pics2/FR6.jpg","","","","","","","true","1","","","sizeS.png","","",""
"image-slider-2AFC","162","561691","0.0-37.11-1.11","2433","","","","-25","","","","","","","","heartS.png","1714","-25",""
"html-keyboard-response","163","562493","0.0-37.11-2.11","null","","","","","","","null","","","","","","","",""
"html-button-response","164","564915","0.0-38.0","2421","<i><font size=10>Good job!</font></i> <br><br>Before we begin, you have a chance to review the rules, in case something was not clear.<br><br>","0","","","","","","","","","","","","",""
"instructions","165","567955","0.0-39.0","3040","","","","","","","","","","","","","","","[{""page_index"":0,""viewing_time"":1000},{""page_index"":1,""viewing_time"":1033},{""page_index"":2,""viewing_time"":1007}]"
"html-button-response","166","572403","0.0-40.0","4447","<div style='width: 900px;'> <font size='40'>Great! Now you're ready to begin</font><br><br>The main part of the experiment will consist of <u>3 blocks</u>. Each block consists of 66 decisions and judgements. You will have time for a short break between blocks.<br><br><br><i><u>Do your best to respond within the time limit.</u></i><br><br><i> Press the button to start the experiment<br><br></i>","0","","","","","","","","","","","","",""
"image-selector-fb","167","575408","0.0-41.0-0.0","null","pics2/SW1.jpg,pics2/SW5.jpg","","","","","","","false","null","","","noS.png","","",""
"image-slider-2AFC","168","577323","0.0-41.0-1.0","1914","","","","21","","","","","","","","heartS.png","1235","21",""
"html-keyboard-response","169","578176","0.0-41.0-2.0","null","","","","","","","null","","","","","","","",""
"image-selector-fb","170","581180","0.0-41.1-0.1","null","pics2/FR4.jpg,pics2/SA2.jpg","","","","","","","false","null","","","noS.png","","",""
"image-slider-2AFC","171","583739","0.0-41.1-1.1","2556","","","","-21","","","","","","","","sizeS.png","1828","-21",""
"html-keyboard-response","172","584492","0.0-41.1-2.1","null","","","","","","","null","","","","","","","",""
"image-selector-fb","173","587498","0.0-41.2-0.2","null","pics2/SW2.jpg,pics2/FR3.jpg","","","","","","","false","null","","","noS.png","","",""
"image-slider-2AFC","174","589523","0.0-41.2-1.2","2025","","","","-15","","","","","","","","heartS.png","1537","-15",""
"html-keyboard-response","175","590275","0.0-41.2-2.2","null","","","","","","","null","","","","","","","",""
"image-selector-fb","176","593281","0.0-41.3-0.3","null","pics2/SW1.jpg,pics2/SW4.jpg","","","","","","","false","null","","","noS.png","","",""
"image-slider-2AFC","177","595451","0.0-41.3-1.3","2169","","","","15","","","","","","","","heartS.png","1625","15",""
"html-keyboard-response","178","596204","0.0-41.3-2.3","null","","","","","","","null","","","","","","","",""
"image-selector-fb","179","598962","0.0-41.4-0.4","2254","pics2/SA2.jpg,pics2/VE3.jpg","","","","","","","true","1","","","heartS.png","","",""
"image-slider-2AFC","180","600715","0.0-41.4-1.4","1751","","","","11","","","","","","","","heartS.png","1208","11",""
"html-keyboard-response","181","601418","0.0-41.4-2.4","null","","","","","","","null","","","","","","","",""
"image-selector-fb","182","604421","0.0-41.5-0.5","null","pics2/VE2.jpg,pics2/SW3.jpg","","","","","","","false","null","","","noS.png","","",""
"image-slider-2AFC","183","606875","0.0-41.5-1.5","2454","","","","3","","","","","","","","sizeS.png","1982","3",""
"html-keyboard-response","184","607577","0.0-41.5-2.5","null","","","","","","","null","","","","","","","",""
"image-selector-fb","185","609753","0.0-41.6-0.6","1674","pics2/SW2.jpg,pics2/SA6.jpg","","","","","","","false","0","","","heartS.png","","",""
"image-slider-2AFC","186","613291","0.0-41.6-1.6","3537","","","","-27","","","","","","","","sizeS.png","2457,3001","-13,-27",""
"html-keyboard-response","187","614095","0.0-41.6-2.6","null","","","","","","","null","","","","","","","",""
"image-selector-fb","188","617099","0.0-41.7-0.7","null","pics2/SA3.jpg,pics2/FR3.jpg","","","","","","","false","null","","","noS.png","","",""
"image-slider-2AFC","189","618747","0.0-41.7-1.7","1645","","","","9","","","","","","","","sizeS.png","1078","9",""
"html-keyboard-response","190","619600","0.0-41.7-2.7","null","","","","","","","null","","","","","","","",""
"image-selector-fb","191","622081","0.0-41.8-0.8","1978","pics2/FR4.jpg,pics2/SW4.jpg","","","","","","","false","0","","","sizeS.png","","",""
"image-slider-2AFC","192","624723","0.0-41.8-1.8","2641","","","","18","","","","","","","","heartS.png","1977","18",""
"html-keyboard-response","193","625427","0.0-41.8-2.8","null","","","","","","","null","","","","","","","",""
"image-selector-fb","194","627488","0.0-41.9-0.9","1560","pics2/SW3.jpg,pics2/SW5.jpg","","","","","","","false","0","","","heartS.png","","",""
"image-slider-2AFC","195","630147","0.0-41.9-1.9","2656","","","","-11","","","","","","","","heartS.png","2177","-11",""
"html-keyboard-response","196","630850","0.0-41.9-2.9","null","","","","","","","null","","","","","","","",""
"image-selector-fb","197","633859","0.0-41.10-0.10","null","pics2/SA2.jpg,pics2/SW2.jpg","","","","","","","false","null","","","noS.png","","",""
"image-slider-2AFC","198","636131","0.0-41.10-1.10","2271","","","","29","","","","","","","","heartS.png","1695","29",""
"html-keyboard-response","199","636983","0.0-41.10-2.10","null","","","","","","","null","","","","","","","",""
"image-selector-fb","200","639178","0.0-41.11-0.11","1691","pics2/SA2.jpg,pics2/SW3.jpg","","","","","","","true","1","","","heartS.png","","",""
"image-slider-2AFC","201","641923","0.0-41.11-1.11","2744","","","","31","","","","","","","","heartS.png","1256,1817,2176","12,22,31",""
"html-keyboard-response","202","642676","0.0-41.11-2.11","null","","","","","","","null","","","","","","","",""
"image-selector-fb","203","645680","0.0-41.12-0.12","null","pics2/SA2.jpg,pics2/FR3.jpg","","","","","","","false","null","","","noS.png","","",""
"image-slider-2AFC","204","647451","0.0-41.12-1.12","1770","","","","31","","","","","","","","sizeS.png","1091","31",""
"html-keyboard-response","205","648253","0.0-41.12-2.12","null","","","","","","","null","","","","","","","",""
"image-selector-fb","206","650209","0.0-41.13-0.13","1451","pics2/VE3.jpg,pics2/SA6.jpg","","","","","","","false","0","","","heartS.png","","",""
"image-slider-2AFC","207","652723","0.0-41.13-1.13","2513","","","","-9","","","","","","","","sizeS.png","2017","-9",""
"html-keyboard-response","208","653424","0.0-41.13-2.13","null","","","","","","","null","","","","","","","",""
"image-selector-fb","209","656430","0.0-41.14-0.14","null","pics2/SW2.jpg,pics2/SW1.jpg","","","","","","","false","null","","","noS.png","","",""
"image-slider-2AFC","210","658547","0.0-41.14-1.14","2116","","","","4","","","","","","","","sizeS.png","1524","4",""
"html-keyboard-response","211","659350","0.0-41.14-2.14","null","","","","","","","null","","","","","","","",""
"image-selector-fb","212","662355","0.0-41.15-0.15","null","pics2/FR4.jpg,pics2/SA3.jpg","","","","","","","false","null","","","noS.png","","",""
"image-slider-2AFC","213","664812","0.0-41.15-1.15","2455","","","","17","","","","","","","","heartS.png","1863","17",""
"html-keyboard-response","214","665515","0.0-41.15-2.15","null","","","","","","","null","","","","","","","",""
"image-selector-fb","215","667978","0.0-41.16-0.16","1960","pics2/SW1.jpg,pics2/SW2.jpg","","","","","","","true","1","","","sizeS.png","","",""
"image-slider-2AFC","216","670748","0.0-41.16-1.16","2769","","","","5","","","","","","","","sizeS.png","1360,2104","7,5",""
"html-keyboard-response","217","671500","0.0-41.16-2.16","null","","","","","","","null","","","","","","","",""
"image-selector-fb","218","673817","0.0-41.17-0.17","1815","pics2/FR4.jpg,pics2/SA6.jpg","","","","","","","true","1","","","heartS.png","","",""
"image-slider-2AFC","219","675803","0.0-41.17-1.17","1985","","","","14","","","","","","","","heartS.png","1514","14",""
"html-keyboard-response","220","676655","0.0-41.17-2.17","null","","","","","","","null","","","","","","","",""
"image-selector-fb","221","678466","0.0-41.18-0.18","1307","pics2/SW3.jpg,pics2/VE2.jpg","","","","","","","false","0","","","heartS.png","","",""
"image-slider-2AFC","222","681483","0.0-41.18-1.18","3016","","","","-2","","","","","","","","sizeS.png","2641","-2",""
"html-keyboard-response","223","682285","0.0-41.18-2.18","null","","","","","","","null","","","","","","","",""
"image-selector-fb","224","685287","0.0-41.19-0.19","null","pics2/SA2.jpg,pics2/SA3.jpg","","","","","","","false","null","","","noS.png","","",""
"image-slider-2AFC","225","688451","0.0-41.19-1.19","3163","","","","5","","","","","","","","sizeS.png","2235,2659","8,5",""
"html-keyboard-response","226","689254","0.0-41.19-2.19","null","","","","","","","null","","","","","","","",""
"image-selector-fb","227","691657","0.0-41.20-0.20","1899","pics2/SW5.jpg,pics2/VE2.jpg","","","","","","","true","1","","","sizeS.png","","",""
"image-slider-2AFC","228","694235","0.0-41.20-1.20","2577","","","","4","","","","","","","","sizeS.png","2170","4",""
"html-keyboard-response","229","694987","0.0-41.20-2.20","null","","","","","","","null","","","","","","","",""
"image-selector-fb","230","698280","0.0-41.21-0.21","2791","pics2/VE2.jpg,pics2/SW1.jpg","","","","","","","true","1","","","sizeS.png","","",""
"image-slider-2AFC","231","702459","0.0-41.21-1.21","4178","","","","12","","","","","","","","heartS.png","3026,3682","-6,12",""
"html-keyboard-response","232","703212","0.0-41.21-2.21","null","","","","","","","null","","","","","","","",""
"image-selector-fb","233","706215","0.0-41.22-0.22","null","pics2/SA6.jpg,pics2/SW3.jpg","","","","","","","false","null","","","noS.png","","",""
"image-slider-2AFC","234","708939","0.0-41.22-1.22","2721","","","","14","","","","","","","","heartS.png","1753","14",""
"html-keyboard-response","235","709693","0.0-41.22-2.22","null","","","","","","","null","","","","","","","",""
"image-selector-fb","236","712016","0.0-41.23-0.23","1821","pics2/FR3.jpg,pics2/VE3.jpg","","","","","","","false","0","","","heartS.png","","",""
"image-slider-2AFC","237","714075","0.0-41.23-1.23","2056","","","","-4","","","","","","","","heartS.png","1552","-4",""
"html-keyboard-response","238","714778","0.0-41.23-2.23","null","","","","","","","null","","","","","","","",""
"image-selector-fb","239","717776","0.0-41.24-0.24","2496","pics2/FR4.jpg,pics2/VE3.jpg","","","","","","","false","0","","","sizeS.png","","",""
"image-slider-2AFC","240","720260","0.0-41.24-1.24","2480","","","","9","","","","","","","","heartS.png","1942","9",""
"html-keyboard-response","241","721061","0.0-41.24-2.24","null","","","","","","","null","","","","","","","",""
"image-selector-fb","242","723672","0.0-41.25-0.25","2107","pics2/FR3.jpg,pics2/FR4.jpg","","","","","","","false","0","","","heartS.png","","",""
"image-slider-2AFC","243","726323","0.0-41.25-1.25","2650","","","","7","","","","","","","","sizeS.png","1962","7",""
"html-keyboard-response","244","727075","0.0-41.25-2.25","null","","","","","","","null","","","","","","","",""
"image-selector-fb","245","729073","0.0-41.26-0.26","1493","pics2/SA6.jpg,pics2/VE3.jpg","","","","","","","true","1","","","sizeS.png","","",""
"image-slider-2AFC","246","732059","0.0-41.26-1.26","2985","","","","11","","","","","","","","sizeS.png","1689,2530","7,11",""
"html-keyboard-response","247","732913","0.0-41.26-2.26","null","","","","","","","null","","","","","","","",""
"image-selector-fb","248","735916","0.0-41.27-0.27","null","pics2/SA2.jpg,pics2/SW5.jpg","","","","","","","false","null","","","noS.png","","",""
"image-slider-2AFC","249","738299","0.0-41.27-1.27","2381","","","","28","","","","","","","","heartS.png","1861","28",""
"html-keyboard-response","250","739151","0.0-41.27-2.27","null","","","","","","","null","","","","","","","",""
"image-selector-fb","251","741322","0.0-41.28-0.28","1667","pics2/VE2.jpg,pics2/SA3.jpg","","","","","","","true","1","","","heartS.png","","",""
"image-slider-2AFC","252","743411","0.0-41.28-1.28","2089","","","","6","","","","","","","","heartS.png","1129","6",""
"html-keyboard-response","253","744215","0.0-41.28-2.28","null","","","","","","","null","","","","","","","",""
"image-selector-fb","254","747220","0.0-41.29-0.29","null","pics2/SA3.jpg,pics2/SW3.jpg","","","","","","","false","null","","","noS.png","","",""
"image-slider-2AFC","255","750619","0.0-41.29-1.29","3398","","","","4","","","","","","","","sizeS.png","2767","4",""
"html-keyboard-response","256","751323","0.0-41.29-2.29","null","","","","","","","null","","","","","","","",""
"image-selector-fb","257","754326","0.0-41.30-0.30","null","pics2/VE3.jpg,pics2/SA6.jpg","","","","","","","false","null","","","noS.png","","",""
"image-slider-2AFC","258","756562","0.0-41.30-1.30","2234","","","","9","","","","","","","","heartS.png","1683","9",""
"html-keyboard-response","259","757414","0.0-41.30-2.30","null","","","","","","","null","","","","","","","",""
"image-selector-fb","260","759808","0.0-41.31-0.31","1891","pics2/VE3.jpg,pics2/SW5.jpg","","","","","","","true","1","","","heartS.png","","",""
"image-slider-2AFC","261","763427","0.0-41.31-1.31","3619","","","","0","","","","","","","","sizeS.png","2250,3203","2,0",""
"html-keyboard-response","262","764231","0.0-41.31-2.31","null","","","","","","","null","","","","","","","",""
"image-selector-fb","263","766976","0.0-41.32-0.32","2243","pics2/SW5.jpg,pics2/SW4.jpg","","","","","","","true","1","","","sizeS.png","","",""
"image-slider-2AFC","264","769994","0.0-41.32-1.32","3016","","","","11","","","","","","","","heartS.png","1912,2600","6,11",""
"html-keyboard-response","265","770796","0.0-41.32-2.32","null","","","","","","","null","","","","","","","",""
"image-selector-fb","266","773184","0.0-41.33-0.33","1885","pics2/VE3.jpg,pics2/SW1.jpg","","","","","","","true","1","","","heartS.png","","",""
"image-slider-2AFC","267","775226","0.0-41.33-1.33","2041","","","","3","","","","","","","","heartS.png","1473","3",""
"html-keyboard-response","268","775929","0.0-41.33-2.33","null","","","","","","","null","","","","","","","",""
"image-selector-fb","269","777960","0.0-41.34-0.34","1528","pics2/FR3.jpg,pics2/VE2.jpg","","","","","","","false","0","","","heartS.png","","",""
"image-slider-2AFC","270","780354","0.0-41.34-1.34","2393","","","","1","","","","","","","","sizeS.png","1650","1",""
"html-keyboard-response","271","781106","0.0-41.34-2.34","null","","","","","","","null","","","","","","","",""
"image-selector-fb","272","783168","0.0-41.35-0.35","1559","pics2/SA6.jpg,pics2/SA3.jpg","","","","","","","true","1","","","heartS.png","","",""
"image-slider-2AFC","273","785696","0.0-41.35-1.35","2527","","","","6","","","","","","","","heartS.png","1241","6",""
"html-keyboard-response","274","786547","0.0-41.35-2.35","null","","","","","","","null","","","","","","","",""
"image-selector-fb","275","789549","0.0-41.36-0.36","null","pics2/SA6.jpg,pics2/SW4.jpg","","","","","","","false","null","","","noS.png","","",""
"image-slider-2AFC","276","791875","0.0-41.36-1.36","2323","","","","6","","","","","","","","sizeS.png","1315","6",""
"html-keyboard-response","277","792728","0.0-41.36-2.36","null","","","","","","","null","","","","","","","",""
"image-selector-fb","278","795734","0.0-41.37-0.37","null","pics2/VE3.jpg,pics2/FR3.jpg","","","","","","","false","null","","","noS.png","","",""
"image-slider-2AFC","279","798243","0.0-41.37-1.37","2508","","","","9","","","","","","","","heartS.png","1988","9",""
"html-keyboard-response","280","799095","0.0-41.37-2.37","null","","","","","","","null","","","","","","","",""
"image-selector-fb","281","801775","0.0-41.38-0.38","2178","pics2/SW2.jpg,pics2/SW1.jpg","","","","","","","false","0","","","heartS.png","","",""
"image-slider-2AFC","282","803386","0.0-41.38-1.38","1609","","","","6","","","","","","","","heartS.png","1098","6",""
"html-keyboard-response","283","804237","0.0-41.38-2.38","null","","","","","","","null","","","","","","","",""
"image-selector-fb","284","806480","0.0-41.39-0.39","1740","pics2/SA3.jpg,pics2/VE2.jpg","","","","","","","true","1","","","sizeS.png","","",""
"image-slider-2AFC","285","808627","0.0-41.39-1.39","2145","","","","-11","","","","","","","","heartS.png","1560","-11",""
"html-keyboard-response","286","809330","0.0-41.39-2.39","null","","","","","","","null","","","","","","","",""
"image-selector-fb","287","811104","0.0-41.40-0.40","1272","pics2/SA6.jpg,pics2/SW2.jpg","","","","","","","true","1","","","sizeS.png","","",""
"image-slider-2AFC","288","813474","0.0-41.40-1.40","2369","","","","13","","","","","","","","heartS.png","1585","13",""
"html-keyboard-response","289","814277","0.0-41.40-2.40","null","","","","","","","null","","","","","","","",""
"image-selector-fb","290","817282","0.0-41.41-0.41","null","pics2/FR4.jpg,pics2/SW5.jpg","","","","","","","false","null","","","noS.png","","",""
"image-slider-2AFC","291","819627","0.0-41.41-1.41","2343","","","","4","","","","","","","","sizeS.png","1775","4",""
"html-keyboard-response","292","820328","0.0-41.41-2.41","null","","","","","","","null","","","","","","","",""
"image-selector-fb","293","822745","0.0-41.42-0.42","1914","pics2/SW1.jpg,pics2/SW5.jpg","","","","","","","true","1","","","heartS.png","","",""
"image-slider-2AFC","294","824643","0.0-41.42-1.42","1898","","","","4","","","","","","","","heartS.png","1425","4",""
"html-keyboard-response","295","825346","0.0-41.42-2.42","null","","","","","","","null","","","","","","","",""
"image-selector-fb","296","827153","0.0-41.43-0.43","1303","pics2/SW1.jpg,pics2/SW4.jpg","","","","","","","true","1","","","heartS.png","","",""
"image-slider-2AFC","297","828547","0.0-41.43-1.43","1391","","","","14","","","","","","","","heartS.png","871","14",""
"html-keyboard-response","298","829398","0.0-41.43-2.43","null","","","","","","","null","","","","","","","",""
"image-selector-fb","299","831817","0.0-41.44-0.44","1915","pics2/SW3.jpg,pics2/SW1.jpg","","","","","","","false","0","","","heartS.png","","",""
"image-slider-2AFC","300","833283","0.0-41.44-1.44","1464","","","","-5","","","","","","","","sizeS.png","985","-5",""
"html-keyboard-response","301","834036","0.0-41.44-2.44","null","","","","","","","null","","","","","","","",""
"image-selector-fb","302","837040","0.0-41.45-0.45","null","pics2/VE3.jpg,pics2/FR4.jpg","","","","","","","false","null","","","noS.png","","",""
"image-slider-2AFC","303","840347","0.0-41.45-1.45","3305","","","","-2","","","","","","","","sizeS.png","2723","-2",""
"html-keyboard-response","304","841201","0.0-41.45-2.45","null","","","","","","","null","","","","","","","",""
"image-selector-fb","305","843554","0.0-41.46-0.46","1849","pics2/FR3.jpg,pics2/SW5.jpg","","","","","","","false","0","","","heartS.png","","",""
"image-slider-2AFC","306","845451","0.0-41.46-1.46","1893","","","","-1","","","","","","","","heartS.png","1277","-1",""
"html-keyboard-response","307","846254","0.0-41.46-2.46","null","","","","","","","null","","","","","","","",""
"image-selector-fb","308","850104","0.0-41.47-0.47","3347","pics2/SW2.jpg,pics2/SW3.jpg","","","","","","","false","0","","","heartS.png","","",""
"image-slider-2AFC","309","854186","0.0-41.47-1.47","4081","","","","-7","","","","","","","","sizeS.png","3210","-7",""
"html-keyboard-response","310","854988","0.0-41.47-2.47","null","","","","","","","null","","","","","","","",""
"image-selector-fb","311","857450","0.0-41.48-0.48","1956","pics2/FR4.jpg,pics2/SW3.jpg","","","","","","","true","1","","","sizeS.png","","",""
"image-slider-2AFC","312","860523","0.0-41.48-1.48","3071","","","","4","","","","","","","","heartS.png","2447","4",""
"html-keyboard-response","313","861375","0.0-41.48-2.48","null","","","","","","","null","","","","","","","",""
"image-selector-fb","314","864112","0.0-41.49-0.49","2234","pics2/VE3.jpg,pics2/VE2.jpg","","","","","","","false","0","","","heartS.png","","",""
"image-slider-2AFC","315","866203","0.0-41.49-1.49","2089","","","","-4","","","","","","","","heartS.png","1496","-4",""
"html-keyboard-response","316","867006","0.0-41.49-2.49","null","","","","","","","null","","","","","","","",""
"image-selector-fb","317","870010","0.0-41.50-0.50","null","pics2/VE2.jpg,pics2/SA6.jpg","","","","","","","false","null","","","noS.png","","",""
"image-slider-2AFC","318","872419","0.0-41.50-1.50","2407","","","","-5","","","","","","","","sizeS.png","1903","-5",""
"html-keyboard-response","319","873171","0.0-41.50-2.50","null","","","","","","","null","","","","","","","",""
"image-selector-fb","320","876121","0.0-41.51-0.51","2445","pics2/FR3.jpg,pics2/SW1.jpg","","","","","","","true","1","","","heartS.png","","",""
"image-slider-2AFC","321","879619","0.0-41.51-1.51","3496","","","","2","","","","","","","","sizeS.png","3009","2",""
"html-keyboard-response","322","880321","0.0-41.51-2.51","null","","","","","","","null","","","","","","","",""
"image-selector-fb","323","882184","0.0-41.52-0.52","1359","pics2/SA2.jpg,pics2/FR3.jpg","","","","","","","true","1","","","heartS.png","","",""
"image-slider-2AFC","324","885003","0.0-41.52-1.52","2818","","","","14","","","","","","","","sizeS.png","1841,2257","9,14",""
"html-keyboard-response","325","885755","0.0-41.52-2.52","null","","","","","","","null","","","","","","","",""
"image-selector-fb","326","888759","0.0-41.53-0.53","null","pics2/SW5.jpg,pics2/SW4.jpg","","","","","","","false","null","","","noS.png","","",""
"image-slider-2AFC","327","891315","0.0-41.53-1.53","2554","","","","0","","","","","","","","sizeS.png","1883","0",""
"html-keyboard-response","328","892018","0.0-41.53-2.53","null","","","","","","","null","","","","","","","",""
"image-selector-fb","329","893872","0.0-41.54-0.54","1352","pics2/SA2.jpg,pics2/FR4.jpg","","","","","","","true","1","","","heartS.png","","",""
"image-slider-2AFC","330","896564","0.0-41.54-1.54","2689","","","","12","","","","","","","","sizeS.png","2080","12",""
"html-keyboard-response","331","897417","0.0-41.54-2.54","null","","","","","","","null","","","","","","","",""
"image-selector-fb","332","899274","0.0-41.55-0.55","1353","pics2/SW2.jpg,pics2/SW5.jpg","","","","","","","false","0","","","heartS.png","","",""
"image-slider-2AFC","333","903171","0.0-41.55-1.55","3897","","","","-11","","","","","","","","sizeS.png","2176,2913,3528","-13,-7,-11",""
"html-keyboard-response","334","904023","0.0-41.55-2.55","null","","","","","","","null","","","","","","","",""
"image-selector-fb","335","905856","0.0-41.56-0.56","1331","pics2/FR3.jpg,pics2/SA3.jpg","","","","","","","false","0","","","heartS.png","","",""
"image-slider-2AFC","336","908818","0.0-41.56-1.56","2959","","","","-1","","","","","","","","sizeS.png","2504","-1",""
"html-keyboard-response","337","909572","0.0-41.56-2.56","null","","","","","","","null","","","","","","","",""
"image-selector-fb","338","912576","0.0-41.57-0.57","null","pics2/SA2.jpg,pics2/SW3.jpg","","","","","","","false","null","","","noS.png","","",""
"image-slider-2AFC","339","914843","0.0-41.57-1.57","2263","","","","21","","","","","","","","sizeS.png","1391","21",""
"html-keyboard-response","340","915695","0.0-41.57-2.57","null","","","","","","","null","","","","","","","",""
"image-selector-fb","341","918185","0.0-41.58-0.58","1986","pics2/SW4.jpg,pics2/SA2.jpg","","","","","","","false","0","","","sizeS.png","","",""
"image-slider-2AFC","342","921155","0.0-41.58-1.58","2969","","","","-2","","","","","","","","sizeS.png","2505","-2",""
"html-keyboard-response","343","921958","0.0-41.58-2.58","null","","","","","","","null","","","","","","","",""
"image-selector-fb","344","923929","0.0-41.59-0.59","1467","pics2/SA2.jpg,pics2/SW1.jpg","","","","","","","true","1","","","heartS.png","","",""
"image-slider-2AFC","345","926842","0.0-41.59-1.59","2913","","","","16","","","","","","","","sizeS.png","2145","16",""
"html-keyboard-response","346","927546","0.0-41.59-2.59","null","","","","","","","null","","","","","","","",""
"image-selector-fb","347","929321","0.0-41.60-0.60","1271","pics2/SA2.jpg,pics2/SW4.jpg","","","","","","","true","1","","","heartS.png","","",""
"image-slider-2AFC","348","932179","0.0-41.60-1.60","2856","","","","27","","","","","","","","heartS.png","2144","27",""
"html-keyboard-response","349","932931","0.0-41.60-2.60","null","","","","","","","null","","","","","","","",""
"image-selector-fb","350","935088","0.0-41.61-0.61","1654","pics2/VE2.jpg,pics2/SW2.jpg","","","","","","","true","1","","","sizeS.png","","",""
"image-slider-2AFC","351","937994","0.0-41.61-1.61","2905","","","","27","","","","","","","","heartS.png","2369","27",""
"html-keyboard-response","352","938847","0.0-41.61-2.61","null","","","","","","","null","","","","","","","",""
"image-selector-fb","353","940544","0.0-41.62-0.62","1194","pics2/SW4.jpg,pics2/VE2.jpg","","","","","","","false","0","","","heartS.png","","",""
"image-slider-2AFC","354","942474","0.0-41.62-1.62","1929","","","","-16","","","","","","","","heartS.png","1225","-16",""
"html-keyboard-response","355","943226","0.0-41.62-2.62","null","","","","","","","null","","","","","","","",""
"image-selector-fb","356","944937","0.0-41.63-0.63","1206","pics2/SW2.jpg,pics2/FR4.jpg","","","","","","","false","0","","","heartS.png","","",""
"image-slider-2AFC","357","947450","0.0-41.63-1.63","2512","","","","-5","","","","","","","","heartS.png","1920","-5",""
"html-keyboard-response","358","948203","0.0-41.63-2.63","null","","","","","","","null","","","","","","","",""
"image-selector-fb","359","950552","0.0-41.64-0.64","1847","pics2/SW4.jpg,pics2/SW1.jpg","","","","","","","true","1","","","sizeS.png","","",""
"image-slider-2AFC","360","953130","0.0-41.64-1.64","2577","","","","-19","","","","","","","","heartS.png","1481","-19",""
"html-keyboard-response","361","953831","0.0-41.64-2.64","null","","","","","","","null","","","","","","","",""
"image-selector-fb","362","955623","0.0-41.65-0.65","1289","pics2/SA2.jpg,pics2/SA6.jpg","","","","","","","true","1","","","heartS.png","","",""
"image-slider-2AFC","363","957635","0.0-41.65-1.65","2011","","","","11","","","","","","","","heartS.png","1458","11",""
"html-keyboard-response","364","958486","0.0-41.65-2.65","null","","","","","","","null","","","","","","","",""
"pavlovia","365","958494","0.0-42.0","","","","","","","","","","","","","","","",""
"html-keyboard-response","366","963496","0.0-43.0","null","<div style='width: 700px;'> <font size=6><b>SHORT BREAK</font></b><br><br><i> Please wait 5 seconds to continue</i></div> ","","","","","","null","","","","","","","",""
"pavlovia","367","963497","0.0-44.0","","","","","","","","","","","","","","","",""
"html-button-response","368","967163","0.0-45.0","3665","<div style='width: 700px;'> <font size=6><b>BLOCK 2</font></b><br><br>Press the button whenever you feel ready to start the second block (there are 3 in total)</div>","0","","","","","","","","","","","","",""
"image-selector-fb","369","969817","0.0-46.0-0.0","2150","pics2/SW3.jpg,pics2/FR3.jpg","","","","","","","false","0","","","sizeS.png","","",""
"image-slider-2AFC","370","971499","0.0-46.0-1.0","1682","","","","-2","","","","","","","","sizeS.png","794","-2",""
"html-keyboard-response","371","972352","0.0-46.0-2.0","null","","","","","","","null","","","","","","","",""
"image-selector-fb","372","974711","0.0-46.1-0.1","1857","pics2/VE2.jpg,pics2/FR3.jpg","","","","","","","false","0","","","sizeS.png","","",""
"image-slider-2AFC","373","976890","0.0-46.1-1.1","2178","","","","16","","","","","","","","heartS.png","1571","16",""
"html-keyboard-response","374","977592","0.0-46.1-2.1","null","","","","","","","null","","","","","","","",""
"image-selector-fb","375","979617","0.0-46.2-0.2","1521","pics2/SW2.jpg,pics2/FR3.jpg","","","","","","","false","0","","","sizeS.png","","",""
"image-slider-2AFC","376","981946","0.0-46.2-1.2","2327","","","","-6","","","","","","","","heartS.png","1751","-6",""
"html-keyboard-response","377","982650","0.0-46.2-2.2","null","","","","","","","null","","","","","","","",""
"image-selector-fb","378","985480","0.0-46.3-0.3","2328","pics2/FR4.jpg,pics2/FR3.jpg","","","","","","","true","1","","","sizeS.png","","",""
"image-slider-2AFC","379","987458","0.0-46.3-1.3","1975","","","","2","","","","","","","","sizeS.png","1319","2",""
"html-keyboard-response","380","988162","0.0-46.3-2.3","null","","","","","","","null","","","","","","","",""
"image-selector-fb","381","991165","0.0-46.4-0.4","null","pics2/VE2.jpg,pics2/SW1.jpg","","","","","","","false","null","","","noS.png","","",""
"image-slider-2AFC","382","994154","0.0-46.4-1.4","2988","","","","14","","","","","","","","heartS.png","2453","14",""
"html-keyboard-response","383","995007","0.0-46.4-2.4","null","","","","","","","null","","","","","","","",""
"image-selector-fb","384","998011","0.0-46.5-0.5","null","pics2/VE3.jpg,pics2/SW2.jpg","","","","","","","false","null","","","noS.png","","",""
"image-slider-2AFC","385","1000435","0.0-46.5-1.5","2421","","","","14","","","","","","","","sizeS.png","1510","14",""
"html-keyboard-response","386","1001187","0.0-46.5-2.5","null","","","","","","","null","","","","","","","",""
"image-selector-fb","387","1003345","0.0-46.6-0.6","1653","pics2/SW5.jpg,pics2/SW1.jpg","","","","","","","true","1","","","sizeS.png","","",""
"image-slider-2AFC","388","1006043","0.0-46.6-1.6","2696","","","","3","","","","","","","","sizeS.png","1593","3",""
"html-keyboard-response","389","1006845","0.0-46.6-2.6","null","","","","","","","null","","","","","","","",""
"image-selector-fb","390","1009851","0.0-46.7-0.7","null","pics2/FR4.jpg,pics2/SW2.jpg","","","","","","","false","null","","","noS.png","","",""
"image-slider-2AFC","391","1012235","0.0-46.7-1.7","2382","","","","9","","","","","","","","sizeS.png","1647","9",""
"html-keyboard-response","392","1013037","0.0-46.7-2.7","null","","","","","","","null","","","","","","","",""
"image-selector-fb","393","1014849","0.0-46.8-0.8","1308","pics2/VE3.jpg,pics2/SA2.jpg","","","","","","","false","0","","","sizeS.png","","",""
"image-slider-2AFC","394","1017291","0.0-46.8-1.8","2440","","","","-11","","","","","","","","sizeS.png","1368","-11",""
"html-keyboard-response","395","1018043","0.0-46.8-2.8","null","","","","","","","null","","","","","","","",""
"image-selector-fb","396","1020721","0.0-46.9-0.9","2174","pics2/SW3.jpg,pics2/VE3.jpg","","","","","","","false","0","","","sizeS.png","","",""
"image-slider-2AFC","397","1022947","0.0-46.9-1.9","2225","","","","-12","","","","","","","","heartS.png","1505","-12",""
"html-keyboard-response","398","1023800","0.0-46.9-2.9","null","","","","","","","null","","","","","","","",""
"image-selector-fb","399","1026806","0.0-46.10-0.10","null","pics2/VE2.jpg,pics2/FR3.jpg","","","","","","","false","null","","","noS.png","","",""
"image-slider-2AFC","400","1030819","0.0-46.10-1.10","4012","","","","4","","","","","","","","sizeS.png","3307","4",""
"html-keyboard-response","401","1031623","0.0-46.10-2.10","null","","","","","","","null","","","","","","","",""
"image-selector-fb","402","1034626","0.0-46.11-0.11","null","pics2/SW2.jpg,pics2/SW4.jpg","","","","","","","false","null","","","noS.png","","",""
"image-slider-2AFC","403","1036851","0.0-46.11-1.11","2223","","","","-7","","","","","","","","sizeS.png","1694","-7",""
"html-keyboard-response","404","1037604","0.0-46.11-2.11","null","","","","","","","null","","","","","","","",""
"image-selector-fb","405","1039473","0.0-46.12-0.12","1364","pics2/FR4.jpg,pics2/SA3.jpg","","","","","","","true","1","","","heartS.png","","",""
"image-slider-2AFC","406","1041867","0.0-46.12-1.12","2392","","","","-2","","","","","","","","sizeS.png","1841","-2",""
"html-keyboard-response","407","1042569","0.0-46.12-2.12","null","","","","","","","null","","","","","","","",""
"image-selector-fb","408","1045575","0.0-46.13-0.13","null","pics2/SW1.jpg,pics2/FR3.jpg","","","","","","","false","null","","","noS.png","","",""
"image-slider-2AFC","409","1048203","0.0-46.13-1.13","2628","","","","-16","","","","","","","","sizeS.png","2107","-16",""
"html-keyboard-response","410","1048956","0.0-46.13-2.13","null","","","","","","","null","","","","","","","",""
"image-selector-fb","411","1051752","0.0-46.14-0.14","2294","pics2/SW5.jpg,pics2/SA2.jpg","","","","","","","false","0","","","sizeS.png","","",""
"image-slider-2AFC","412","1054283","0.0-46.14-1.14","2530","","","","-15","","","","","","","","heartS.png","1770","-15",""
"html-keyboard-response","413","1054986","0.0-46.14-2.14","null","","","","","","","null","","","","","","","",""
"image-selector-fb","414","1057990","0.0-46.15-0.15","null","pics2/FR3.jpg,pics2/SW4.jpg","","","","","","","false","null","","","noS.png","","",""
"image-slider-2AFC","415","1060411","0.0-46.15-1.15","2420","","","","-4","","","","","","","","sizeS.png","1916","-4",""
"html-keyboard-response","416","1061264","0.0-46.15-2.15","null","","","","","","","null","","","","","","","",""
"image-selector-fb","417","1064267","0.0-46.16-0.16","null","pics2/VE2.jpg,pics2/SW2.jpg","","","","","","","false","null","","","noS.png","","",""
"image-slider-2AFC","418","1066003","0.0-46.16-1.16","1733","","","","11","","","","","","","","heartS.png","1061","11",""
"html-keyboard-response","419","1066706","0.0-46.16-2.16","null","","","","","","","null","","","","","","","",""
"image-selector-fb","420","1069097","0.0-46.17-0.17","1886","pics2/SW4.jpg,pics2/FR4.jpg","","","","","","","false","0","","","heartS.png","","",""
"image-slider-2AFC","421","1071484","0.0-46.17-1.17","2384","","","","-21","","","","","","","","heartS.png","1808","-21",""
"html-keyboard-response","422","1072335","0.0-46.17-2.17","null","","","","","","","null","","","","","","","",""
"image-selector-fb","423","1075342","0.0-46.18-0.18","null","pics2/SA2.jpg,pics2/SW1.jpg","","","","","","","false","null","","","noS.png","","",""
"image-slider-2AFC","424","1077467","0.0-46.18-1.18","2125","","","","15","","","","","","","","heartS.png","1597","15",""
"html-keyboard-response","425","1078221","0.0-46.18-2.18","null","","","","","","","null","","","","","","","",""
"image-selector-fb","426","1081225","0.0-46.19-0.19","null","pics2/FR4.jpg,pics2/SW3.jpg","","","","","","","false","null","","","noS.png","","",""
"image-slider-2AFC","427","1084019","0.0-46.19-1.19","2793","","","","15","","","","","","","","heartS.png","2081","15",""
"html-keyboard-response","428","1084872","0.0-46.19-2.19","null","","","","","","","null","","","","","","","",""
"image-selector-fb","429","1087201","0.0-46.20-0.20","1824","pics2/FR4.jpg,pics2/SW1.jpg","","","","","","","true","1","","","sizeS.png","","",""
"image-slider-2AFC","430","1089316","0.0-46.20-1.20","2113","","","","11","","","","","","","","sizeS.png","1465","11",""
"html-keyboard-response","431","1090017","0.0-46.20-2.20","null","","","","","","","null","","","","","","","",""
"image-selector-fb","432","1093033","0.0-46.21-0.21","null","pics2/SA6.jpg,pics2/SA3.jpg","","","","","","","false","null","","","noS.png","","",""
"image-slider-2AFC","433","1095228","0.0-46.21-1.21","2192","","","","14","","","","","","","","heartS.png","1696","14",""
"html-keyboard-response","434","1095980","0.0-46.21-2.21","null","","","","","","","null","","","","","","","",""
"image-selector-fb","435","1098082","0.0-46.22-0.22","1598","pics2/SW5.jpg,pics2/FR3.jpg","","","","","","","false","0","","","sizeS.png","","",""
"image-slider-2AFC","436","1100083","0.0-46.22-1.22","2001","","","","-1","","","","","","","","sizeS.png","1353","-1",""
"html-keyboard-response","437","1100935","0.0-46.22-2.22","null","","","","","","","null","","","","","","","",""
"image-selector-fb","438","1103939","0.0-46.23-0.23","null","pics2/VE2.jpg,pics2/SA3.jpg","","","","","","","false","null","","","noS.png","","",""
"image-slider-2AFC","439","1106227","0.0-46.23-1.23","2288","","","","-5","","","","","","","","sizeS.png","1865","-5",""
"html-keyboard-response","440","1107028","0.0-46.23-2.23","null","","","","","","","null","","","","","","","",""
"image-selector-fb","441","1109240","0.0-46.24-0.24","1710","pics2/VE2.jpg,pics2/SW4.jpg","","","","","","","false","0","","","sizeS.png","","",""
"image-slider-2AFC","442","1111660","0.0-46.24-1.24","2417","","","","-2","","","","","","","","sizeS.png","1673","-2",""
"html-keyboard-response","443","1112513","0.0-46.24-2.24","null","","","","","","","null","","","","","","","",""
"image-selector-fb","444","1114361","0.0-46.25-0.25","1343","pics2/FR3.jpg,pics2/SA2.jpg","","","","","","","false","0","","","sizeS.png","","",""
"image-slider-2AFC","445","1116507","0.0-46.25-1.25","2145","","","","-17","","","","","","","","heartS.png","1498","-17",""
"html-keyboard-response","446","1117208","0.0-46.25-2.25","null","","","","","","","null","","","","","","","",""
"image-selector-fb","447","1120214","0.0-46.26-0.26","null","pics2/SW2.jpg,pics2/SA3.jpg","","","","","","","false","null","","","noS.png","","",""
"image-slider-2AFC","448","1122187","0.0-46.26-1.26","1971","","","","-22","","","","","","","","heartS.png","1332","-22",""
"html-keyboard-response","449","1122939","0.0-46.26-2.26","null","","","","","","","null","","","","","","","",""
"image-selector-fb","450","1125544","0.0-46.27-0.27","2102","pics2/SW5.jpg,pics2/SW3.jpg","","","","","","","true","1","","","sizeS.png","","",""
"image-slider-2AFC","451","1127771","0.0-46.27-1.27","2225","","","","19","","","","","","","","heartS.png","1770","19",""
"html-keyboard-response","452","1128472","0.0-46.27-2.27","null","","","","","","","null","","","","","","","",""
"image-selector-fb","453","1130176","0.0-46.28-0.28","1202","pics2/SA2.jpg,pics2/SW2.jpg","","","","","","","true","1","","","heartS.png","","",""
"image-slider-2AFC","454","1132283","0.0-46.28-1.28","2105","","","","17","","","","","","","","sizeS.png","1473","17",""
"html-keyboard-response","455","1132986","0.0-46.28-2.28","null","","","","","","","null","","","","","","","",""
"image-selector-fb","456","1134664","0.0-46.29-0.29","1177","pics2/SA6.jpg,pics2/SW3.jpg","","","","","","","true","1","","","sizeS.png","","",""
"image-slider-2AFC","457","1137451","0.0-46.29-1.29","2786","","","","5","","","","","","","","sizeS.png","1890","5",""
"html-keyboard-response","458","1138303","0.0-46.29-2.29","null","","","","","","","null","","","","","","","",""
"image-selector-fb","459","1141522","0.0-46.30-0.30","2715","pics2/VE2.jpg,pics2/SA6.jpg","","","","","","","true","1","","","heartS.png","","",""
"image-slider-2AFC","460","1144435","0.0-46.30-1.30","2913","","","","-5","","","","","","","","sizeS.png","1953","-5",""
"html-keyboard-response","461","1145187","0.0-46.30-2.30","null","","","","","","","null","","","","","","","",""
"image-selector-fb","462","1148189","0.0-46.31-0.31","null","pics2/SA2.jpg,pics2/SA6.jpg","","","","","","","false","null","","","noS.png","","",""
"image-slider-2AFC","463","1151659","0.0-46.31-1.31","3467","","","","3","","","","","","","","sizeS.png","2963","3",""
"html-keyboard-response","464","1152461","0.0-46.31-2.31","null","","","","","","","null","","","","","","","",""
"image-selector-fb","465","1154873","0.0-46.32-0.32","1908","pics2/VE3.jpg,pics2/FR3.jpg","","","","","","","true","1","","","sizeS.png","","",""
"image-slider-2AFC","466","1156939","0.0-46.32-1.32","2064","","","","17","","","","","","","","heartS.png","1361","17",""
"html-keyboard-response","467","1157691","0.0-46.32-2.32","null","","","","","","","null","","","","","","","",""
"image-selector-fb","468","1159352","0.0-46.33-0.33","1158","pics2/SW5.jpg,pics2/SW2.jpg","","","","","","","true","1","","","sizeS.png","","",""
"image-slider-2AFC","469","1161707","0.0-46.33-1.33","2354","","","","17","","","","","","","","sizeS.png","1610","17",""
"html-keyboard-response","470","1162509","0.0-46.33-2.33","null","","","","","","","null","","","","","","","",""
"image-selector-fb","471","1165512","0.0-46.34-0.34","null","pics2/SA6.jpg,pics2/SW5.jpg","","","","","","","false","null","","","noS.png","","",""
"image-slider-2AFC","472","1169611","0.0-46.34-1.34","4096","","","","13","","","","","","","","sizeS.png","1752,2865,3697","7,16,13",""
"html-keyboard-response","473","1170414","0.0-46.34-2.34","null","","","","","","","null","","","","","","","",""
"image-selector-fb","474","1172392","0.0-46.35-0.35","1473","pics2/VE2.jpg,pics2/SA2.jpg","","","","","","","false","0","","","sizeS.png","","",""
"image-slider-2AFC","475","1174539","0.0-46.35-1.35","2146","","","","-14","","","","","","","","sizeS.png","1178","-14",""
"html-keyboard-response","476","1175292","0.0-46.35-2.35","null","","","","","","","null","","","","","","","",""
"image-selector-fb","477","1178295","0.0-46.36-0.36","null","pics2/SW2.jpg,pics2/SW3.jpg","","","","","","","false","null","","","noS.png","","",""
"image-slider-2AFC","478","1180555","0.0-46.36-1.36","2256","","","","17","","","","","","","","heartS.png","1793","17",""
"html-keyboard-response","479","1181306","0.0-46.36-2.36","null","","","","","","","null","","","","","","","",""
"image-selector-fb","480","1184310","0.0-46.37-0.37","null","pics2/SW5.jpg,pics2/SW3.jpg","","","","","","","false","null","","","noS.png","","",""
"image-slider-2AFC","481","1186091","0.0-46.37-1.37","1780","","","","13","","","","","","","","heartS.png","1212","13",""
"html-keyboard-response","482","1186942","0.0-46.37-2.37","null","","","","","","","null","","","","","","","",""
"image-selector-fb","483","1189944","0.0-46.38-0.38","null","pics2/VE2.jpg,pics2/SA2.jpg","","","","","","","false","null","","","noS.png","","",""
"image-slider-2AFC","484","1191794","0.0-46.38-1.38","1847","","","","-13","","","","","","","","heartS.png","1040","-13",""
"html-keyboard-response","485","1192597","0.0-46.38-2.38","null","","","","","","","null","","","","","","","",""
"image-selector-fb","486","1195601","0.0-46.39-0.39","null","pics2/FR4.jpg,pics2/SW1.jpg","","","","","","","false","null","","","noS.png","","",""
"image-slider-2AFC","487","1199187","0.0-46.39-1.39","3583","","","","6","","","","","","","","sizeS.png","2262","6",""
"html-keyboard-response","488","1199889","0.0-46.39-2.39","null","","","","","","","null","","","","","","","",""
"image-selector-fb","489","1202481","0.0-46.40-0.40","2088","pics2/SA3.jpg,pics2/FR3.jpg","","","","","","","true","1","","","sizeS.png","","",""
"image-slider-2AFC","490","1204690","0.0-46.40-1.40","2208","","","","9","","","","","","","","heartS.png","1601","9",""
"html-keyboard-response","491","1205544","0.0-46.40-2.40","null","","","","","","","null","","","","","","","",""
"image-selector-fb","492","1207680","0.0-46.41-0.41","1634","pics2/SW4.jpg,pics2/FR3.jpg","","","","","","","true","1","","","sizeS.png","","",""
"image-slider-2AFC","493","1209755","0.0-46.41-1.41","2074","","","","-14","","","","","","","","heartS.png","1449","-14",""
"html-keyboard-response","494","1210457","0.0-46.41-2.41","null","","","","","","","null","","","","","","","",""
"image-selector-fb","495","1212361","0.0-46.42-0.42","1401","pics2/SA3.jpg,pics2/SA2.jpg","","","","","","","false","0","","","sizeS.png","","",""
"image-slider-2AFC","496","1214468","0.0-46.42-1.42","2105","","","","-3","","","","","","","","sizeS.png","1280","-3",""
"html-keyboard-response","497","1215220","0.0-46.42-2.42","null","","","","","","","null","","","","","","","",""
"image-selector-fb","498","1217322","0.0-46.43-0.43","1598","pics2/SW1.jpg,pics2/SA3.jpg","","","","","","","false","0","","","heartS.png","","",""
"image-slider-2AFC","499","1220075","0.0-46.43-1.43","2753","","","","-4","","","","","","","","sizeS.png","2281","-4",""
"html-keyboard-response","500","1220827","0.0-46.43-2.43","null","","","","","","","null","","","","","","","",""
"image-selector-fb","501","1222832","0.0-46.44-0.44","1503","pics2/SA3.jpg,pics2/SW1.jpg","","","","","","","true","1","","","sizeS.png","","",""
"image-slider-2AFC","502","1225379","0.0-46.44-1.44","2545","","","","6","","","","","","","","heartS.png","1922","6",""
"html-keyboard-response","503","1226182","0.0-46.44-2.44","null","","","","","","","null","","","","","","","",""
"image-selector-fb","504","1228705","0.0-46.45-0.45","2020","pics2/VE2.jpg,pics2/SW5.jpg","","","","","","","true","1","","","heartS.png","","",""
"image-slider-2AFC","505","1231627","0.0-46.45-1.45","2919","","","","-2","","","","","","","","sizeS.png","2335","-2",""
"html-keyboard-response","506","1232479","0.0-46.45-2.45","null","","","","","","","null","","","","","","","",""
"image-selector-fb","507","1235441","0.0-46.46-0.46","2457","pics2/SW1.jpg,pics2/VE3.jpg","","","","","","","false","0","","","sizeS.png","","",""
"image-slider-2AFC","508","1237763","0.0-46.46-1.46","2320","","","","-6","","","","","","","","heartS.png","1537","-6",""
"html-keyboard-response","509","1238464","0.0-46.46-2.46","null","","","","","","","null","","","","","","","",""
"image-selector-fb","510","1240352","0.0-46.47-0.47","1385","pics2/VE3.jpg,pics2/SW4.jpg","","","","","","","true","1","","","heartS.png","","",""
"image-slider-2AFC","511","1243020","0.0-46.47-1.47","2666","","","","-4","","","","","","","","sizeS.png","2154","-4",""
"html-keyboard-response","512","1243771","0.0-46.47-2.47","null","","","","","","","null","","","","","","","",""
"image-selector-fb","513","1245481","0.0-46.48-0.48","1207","pics2/SW4.jpg,pics2/SW5.jpg","","","","","","","false","0","","","heartS.png","","",""
"image-slider-2AFC","514","1248484","0.0-46.48-1.48","2999","","","","2","","","","","","","","sizeS.png","2407","2",""
"html-keyboard-response","515","1249286","0.0-46.48-2.48","null","","","","","","","null","","","","","","","",""
"image-selector-fb","516","1251128","0.0-46.49-0.49","1340","pics2/SW5.jpg,pics2/SA3.jpg","","","","","","","false","0","","","heartS.png","","",""
"image-slider-2AFC","517","1255011","0.0-46.49-1.49","3882","","","","-1","","","","","","","","sizeS.png","3418","-1",""
"html-keyboard-response","518","1255762","0.0-46.49-2.49","null","","","","","","","null","","","","","","","",""
"image-selector-fb","519","1258765","0.0-46.50-0.50","null","pics2/FR3.jpg,pics2/SW3.jpg","","","","","","","false","null","","","noS.png","","",""
"image-slider-2AFC","520","1261116","0.0-46.50-1.50","2350","","","","16","","","","","","","","heartS.png","1501","16",""
"html-keyboard-response","521","1261820","0.0-46.50-2.50","null","","","","","","","null","","","","","","","",""
"image-selector-fb","522","1263800","0.0-46.51-0.51","1479","pics2/SA6.jpg,pics2/SW1.jpg","","","","","","","true","1","","","sizeS.png","","",""
"image-slider-2AFC","523","1266771","0.0-46.51-1.51","2967","","","","2","","","","","","","","heartS.png","2440","2",""
"html-keyboard-response","524","1267575","0.0-46.51-2.51","null","","","","","","","null","","","","","","","",""
"image-selector-fb","525","1269241","0.0-46.52-0.52","1164","pics2/SW3.jpg,pics2/SA3.jpg","","","","","","","false","0","","","heartS.png","","",""
"image-slider-2AFC","526","1273051","0.0-46.52-1.52","3810","","","","-2","","","","","","","","sizeS.png","3242","-2",""
"html-keyboard-response","527","1273904","0.0-46.52-2.52","null","","","","","","","null","","","","","","","",""
"image-selector-fb","528","1276908","0.0-46.53-0.53","null","pics2/VE3.jpg,pics2/SA2.jpg","","","","","","","false","null","","","noS.png","","",""
"image-slider-2AFC","529","1279124","0.0-46.53-1.53","2212","","","","-8","","","","","","","","sizeS.png","1564","-8",""
"html-keyboard-response","530","1279825","0.0-46.53-2.53","null","","","","","","","null","","","","","","","",""
"image-selector-fb","531","1282130","0.0-46.54-0.54","1801","pics2/SW4.jpg,pics2/SW2.jpg","","","","","","","true","1","","","sizeS.png","","",""
"image-slider-2AFC","532","1284691","0.0-46.54-1.54","2561","","","","-29","","","","","","","","heartS.png","1754","-29",""
"html-keyboard-response","533","1285392","0.0-46.54-2.54","null","","","","","","","null","","","","","","","",""
"image-selector-fb","534","1289050","0.0-46.55-0.55","3154","pics2/FR3.jpg,pics2/SA6.jpg","","","","","","","true","1","","","heartS.png","","",""
"image-slider-2AFC","535","1290876","0.0-46.55-1.55","1824","","","","4","","","","","","","","heartS.png","1296","4",""
"html-keyboard-response","536","1291628","0.0-46.55-2.55","null","","","","","","","null","","","","","","","",""
"image-selector-fb","537","1293512","0.0-46.56-0.56","1380","pics2/SW1.jpg,pics2/VE2.jpg","","","","","","","false","0","","","heartS.png","","",""
"image-slider-2AFC","538","1294947","0.0-46.56-1.56","1434","","","","-1","","","","","","","","sizeS.png","874","-1",""
"html-keyboard-response","539","1295649","0.0-46.56-2.56","null","","","","","","","null","","","","","","","",""
"image-selector-fb","540","1297160","0.0-46.57-0.57","1009","pics2/SW2.jpg,pics2/SA3.jpg","","","","","","","false","0","","","heartS.png","","",""
"image-slider-2AFC","541","1299058","0.0-46.57-1.57","1896","","","","-2","","","","","","","","heartS.png","1305","-2",""
"html-keyboard-response","542","1299911","0.0-46.57-2.57","null","","","","","","","null","","","","","","","",""
"image-selector-fb","543","1301537","0.0-46.58-0.58","1121","pics2/SW2.jpg,pics2/VE2.jpg","","","","","","","false","0","","","heartS.png","","",""
"image-slider-2AFC","544","1303083","0.0-46.58-1.58","1545","","","","-3","","","","","","","","heartS.png","969","-3",""
"html-keyboard-response","545","1303886","0.0-46.58-2.58","null","","","","","","","null","","","","","","","",""
"image-selector-fb","546","1306576","0.0-46.59-0.59","2188","pics2/SW5.jpg,pics2/FR4.jpg","","","","","","","false","0","","","heartS.png","","",""
"image-slider-2AFC","547","1309555","0.0-46.59-1.59","2978","","","","4","","","","","","","","sizeS.png","2314","4",""
"html-keyboard-response","548","1310409","0.0-46.59-2.59","null","","","","","","","null","","","","","","","",""
"image-selector-fb","549","1312408","0.0-46.60-0.60","1497","pics2/SA6.jpg,pics2/SW5.jpg","","","","","","","true","1","","","sizeS.png","","",""
"image-slider-2AFC","550","1314946","0.0-46.60-1.60","2536","","","","8","","","","","","","","sizeS.png","1520","8",""
"html-keyboard-response","551","1315749","0.0-46.60-2.60","null","","","","","","","null","","","","","","","",""
"image-selector-fb","552","1317816","0.0-46.61-0.61","1563","pics2/SA3.jpg,pics2/SW3.jpg","","","","","","","true","1","","","sizeS.png","","",""
"image-slider-2AFC","553","1320107","0.0-46.61-1.61","2289","","","","4","","","","","","","","sizeS.png","1449","4",""
"html-keyboard-response","554","1320910","0.0-46.61-2.61","null","","","","","","","null","","","","","","","",""
"image-selector-fb","555","1323914","0.0-46.62-0.62","null","pics2/VE3.jpg,pics2/VE2.jpg","","","","","","","false","null","","","noS.png","","",""
"image-slider-2AFC","556","1326099","0.0-46.62-1.62","2183","","","","-12","","","","","","","","heartS.png","1239","-12",""
"html-keyboard-response","557","1326950","0.0-46.62-2.62","null","","","","","","","null","","","","","","","",""
"image-selector-fb","558","1328609","0.0-46.63-0.63","1156","pics2/VE3.jpg,pics2/SW2.jpg","","","","","","","true","1","","","heartS.png","","",""
"image-slider-2AFC","559","1330954","0.0-46.63-1.63","2345","","","","6","","","","","","","","heartS.png","1621","6",""
"html-keyboard-response","560","1331808","0.0-46.63-2.63","null","","","","","","","null","","","","","","","",""
"image-selector-fb","561","1334815","0.0-46.64-0.64","null","pics2/SA6.jpg,pics2/FR3.jpg","","","","","","","false","null","","","noS.png","","",""
"image-slider-2AFC","562","1336930","0.0-46.64-1.64","2114","","","","-4","","","","","","","","heartS.png","1098","-4",""
"html-keyboard-response","563","1337732","0.0-46.64-2.64","null","","","","","","","null","","","","","","","",""
"image-selector-fb","564","1340737","0.0-46.65-0.65","null","pics2/SA2.jpg,pics2/SW4.jpg","","","","","","","false","null","","","noS.png","","",""
"image-slider-2AFC","565","1342771","0.0-46.65-1.65","2033","","","","32","","","","","","","","heartS.png","1393","32",""
"html-keyboard-response","566","1343574","0.0-46.65-2.65","null","","","","","","","null","","","","","","","",""
"pavlovia","567","1343586","0.0-47.0","","","","","","","","","","","","","","","",""
"html-keyboard-response","568","1348587","0.0-48.0","null","<div style='width: 700px;'> <font size=6><b>SHORT BREAK</font></b><br><br><i> Please wait 5 seconds to continue</i></div> ","","","","","","null","","","","","","","",""
"pavlovia","569","1348588","0.0-49.0","","","","","","","","","","","","","","","",""
"html-button-response","570","1351667","0.0-50.0","3077","<div style='width: 700px;'> <font size=6><b>BLOCK 3</font></b><br><br>Press the button whenever you feel ready to start the third and final block</div>","0","","","","","","","","","","","","",""
"image-selector-fb","571","1353760","0.0-51.0-0.0","1590","pics2/FR4.jpg,pics2/VE2.jpg","","","","","","","true","1","","","sizeS.png","","",""
"image-slider-2AFC","572","1355659","0.0-51.0-1.0","1895","","","","5","","","","","","","","sizeS.png","1239","5",""
"html-keyboard-response","573","1356360","0.0-51.0-2.0","null","","","","","","","null","","","","","","","",""
"image-selector-fb","574","1359364","0.0-51.1-0.1","null","pics2/FR4.jpg,pics2/SA6.jpg","","","","","","","false","null","","","noS.png","","",""
"image-slider-2AFC","575","1361603","0.0-51.1-1.1","2238","","","","8","","","","","","","","heartS.png","1262","8",""
"html-keyboard-response","576","1362455","0.0-51.1-2.1","null","","","","","","","null","","","","","","","",""
"image-selector-fb","577","1364289","0.0-51.2-0.2","1331","pics2/SA6.jpg,pics2/FR4.jpg","","","","","","","true","1","","","sizeS.png","","",""
"image-slider-2AFC","578","1367114","0.0-51.2-1.2","2824","","","","-6","","","","","","","","heartS.png","2096","-6",""
"html-keyboard-response","579","1367866","0.0-51.2-2.2","null","","","","","","","null","","","","","","","",""
"image-selector-fb","580","1369599","0.0-51.3-0.3","1231","pics2/FR3.jpg,pics2/SW4.jpg","","","","","","","true","1","","","heartS.png","","",""
"image-slider-2AFC","581","1371091","0.0-51.3-1.3","1489","","","","18","","","","","","","","heartS.png","992","18",""
"html-keyboard-response","582","1371944","0.0-51.3-2.3","null","","","","","","","null","","","","","","","",""
"image-selector-fb","583","1374951","0.0-51.4-0.4","null","pics2/VE3.jpg,pics2/SA3.jpg","","","","","","","false","null","","","noS.png","","",""
"image-slider-2AFC","584","1378354","0.0-51.4-1.4","3402","","","","-2","","","","","","","","heartS.png","2842","-2",""
"html-keyboard-response","585","1379108","0.0-51.4-2.4","null","","","","","","","null","","","","","","","",""
"image-selector-fb","586","1380504","0.0-51.5-0.5","894","pics2/SW4.jpg,pics2/SA3.jpg","","","","","","","false","0","","","heartS.png","","",""
"image-slider-2AFC","587","1382210","0.0-51.5-1.5","1705","","","","-11","","","","","","","","heartS.png","969","-11",""
"html-keyboard-response","588","1383064","0.0-51.5-2.5","null","","","","","","","null","","","","","","","",""
"image-selector-fb","589","1385808","0.0-51.6-0.6","2241","pics2/SA2.jpg,pics2/VE2.jpg","","","","","","","true","1","","","heartS.png","","",""
"image-slider-2AFC","590","1387851","0.0-51.6-1.6","2042","","","","6","","","","","","","","sizeS.png","1481","6",""
"html-keyboard-response","591","1388654","0.0-51.6-2.6","null","","","","","","","null","","","","","","","",""
"image-selector-fb","592","1391660","0.0-51.7-0.7","null","pics2/SA6.jpg,pics2/SW1.jpg","","","","","","","false","null","","","noS.png","","",""
"image-slider-2AFC","593","1394802","0.0-51.7-1.7","3141","","","","18","","","","","","","","sizeS.png","1941","18",""
"html-keyboard-response","594","1395605","0.0-51.7-2.7","null","","","","","","","null","","","","","","","",""
"image-selector-fb","595","1397089","0.0-51.8-0.8","978","pics2/SW2.jpg,pics2/SW4.jpg","","","","","","","false","0","","","heartS.png","","",""
"image-slider-2AFC","596","1400459","0.0-51.8-1.8","3369","","","","-4","","","","","","","","sizeS.png","2137","-4",""
"html-keyboard-response","597","1401311","0.0-51.8-2.8","null","","","","","","","null","","","","","","","",""
"image-selector-fb","598","1403129","0.0-51.9-0.9","1313","pics2/FR3.jpg,pics2/SW3.jpg","","","","","","","true","1","","","heartS.png","","",""
"image-slider-2AFC","599","1404891","0.0-51.9-1.9","1762","","","","3","","","","","","","","heartS.png","1289","3",""
"html-keyboard-response","600","1405693","0.0-51.9-2.9","null","","","","","","","null","","","","","","","",""
"image-selector-fb","601","1407992","0.0-51.10-0.10","1796","pics2/FR4.jpg,pics2/SW2.jpg","","","","","","","true","1","","","sizeS.png","","",""
"image-slider-2AFC","602","1411403","0.0-51.10-1.10","3410","","","","2","","","","","","","","sizeS.png","2433","2",""
"html-keyboard-response","603","1412205","0.0-51.10-2.10","null","","","","","","","null","","","","","","","",""
"image-selector-fb","604","1414904","0.0-51.11-0.11","2196","pics2/SW5.jpg,pics2/VE3.jpg","","","","","","","true","1","","","sizeS.png","","",""
"image-slider-2AFC","605","1417147","0.0-51.11-1.11","2242","","","","-9","","","","","","","","heartS.png","1522","-9",""
"html-keyboard-response","606","1418000","0.0-51.11-2.11","null","","","","","","","null","","","","","","","",""
"image-selector-fb","607","1421004","0.0-51.12-0.12","null","pics2/VE3.jpg,pics2/SW5.jpg","","","","","","","false","null","","","noS.png","","",""
"image-slider-2AFC","608","1423530","0.0-51.12-1.12","2525","","","","-3","","","","","","","","sizeS.png","1781","-3",""
"html-keyboard-response","609","1424282","0.0-51.12-2.12","null","","","","","","","null","","","","","","","",""
"image-selector-fb","610","1426136","0.0-51.13-0.13","1350","pics2/SW3.jpg,pics2/SW4.jpg","","","","","","","true","1","","","heartS.png","","",""
"image-slider-2AFC","611","1428170","0.0-51.13-1.13","2031","","","","21","","","","","","","","heartS.png","1335","21",""
"html-keyboard-response","612","1428873","0.0-51.13-2.13","null","","","","","","","null","","","","","","","",""
"image-selector-fb","613","1431919","0.0-51.14-0.14","2542","pics2/SW1.jpg,pics2/SA6.jpg","","","","","","","false","0","","","heartS.png","","",""
"image-slider-2AFC","614","1433650","0.0-51.14-1.14","1730","","","","-3","","","","","","","","heartS.png","979","-3",""
"html-keyboard-response","615","1434353","0.0-51.14-2.14","null","","","","","","","null","","","","","","","",""
"image-selector-fb","616","1436073","0.0-51.15-0.15","1214","pics2/SA6.jpg,pics2/SW4.jpg","","","","","","","true","1","","","sizeS.png","","",""
"image-slider-2AFC","617","1440227","0.0-51.15-1.15","4153","","","","2","","","","","","","","sizeS.png","3544","2",""
"html-keyboard-response","618","1441079","0.0-51.15-2.15","null","","","","","","","null","","","","","","","",""
"image-selector-fb","619","1444081","0.0-51.16-0.16","null","pics2/FR3.jpg,pics2/SW5.jpg","","","","","","","false","null","","","noS.png","","",""
"image-slider-2AFC","620","1447178","0.0-51.16-1.16","3096","","","","-3","","","","","","","","sizeS.png","2440","-3",""
"html-keyboard-response","621","1447881","0.0-51.16-2.16","null","","","","","","","null","","","","","","","",""
"image-selector-fb","622","1449728","0.0-51.17-0.17","1345","pics2/SA2.jpg,pics2/SW5.jpg","","","","","","","true","1","","","heartS.png","","",""
"image-slider-2AFC","623","1452027","0.0-51.17-1.17","2298","","","","19","","","","","","","","heartS.png","1737","19",""
"html-keyboard-response","624","1452779","0.0-51.17-2.17","null","","","","","","","null","","","","","","","",""
"image-selector-fb","625","1455017","0.0-51.18-0.18","1735","pics2/SW2.jpg,pics2/SA2.jpg","","","","","","","false","0","","","sizeS.png","","",""
"image-slider-2AFC","626","1458162","0.0-51.18-1.18","3144","","","","-25","","","","","","","","sizeS.png","1377,2176","-19,-25",""
"html-keyboard-response","627","1458964","0.0-51.18-2.18","null","","","","","","","null","","","","","","","",""
"image-selector-fb","628","1461970","0.0-51.19-0.19","null","pics2/VE2.jpg,pics2/SW5.jpg","","","","","","","false","null","","","noS.png","","",""
"image-slider-2AFC","629","1464298","0.0-51.19-1.19","2327","","","","12","","","","","","","","heartS.png","1576","12",""
"html-keyboard-response","630","1465002","0.0-51.19-2.19","null","","","","","","","null","","","","","","","",""
"image-selector-fb","631","1468231","0.0-51.20-0.20","2727","pics2/SW3.jpg,pics2/SW2.jpg","","","","","","","false","0","","","sizeS.png","","",""
"image-slider-2AFC","632","1472202","0.0-51.20-1.20","3970","","","","-3","","","","","","","","sizeS.png","3411","-3",""
"html-keyboard-response","633","1473003","0.0-51.20-2.20","null","","","","","","","null","","","","","","","",""
"image-selector-fb","634","1476007","0.0-51.21-0.21","null","pics2/FR4.jpg,pics2/SW4.jpg","","","","","","","false","null","","","noS.png","","",""
"image-slider-2AFC","635","1478970","0.0-51.21-1.21","2959","","","","-7","","","","","","","","sizeS.png","1392,2248","-4,-7",""
"html-keyboard-response","636","1479673","0.0-51.21-2.21","null","","","","","","","null","","","","","","","",""
"image-selector-fb","637","1482176","0.0-51.22-0.22","2000","pics2/VE3.jpg,pics2/SW3.jpg","","","","","","","true","1","","","heartS.png","","",""
"image-slider-2AFC","638","1486419","0.0-51.22-1.22","4242","","","","3","","","","","","","","sizeS.png","3561","3",""
"html-keyboard-response","639","1487172","0.0-51.22-2.22","null","","","","","","","null","","","","","","","",""
"image-selector-fb","640","1490856","0.0-51.23-0.23","3182","pics2/SA3.jpg,pics2/SW2.jpg","","","","","","","true","1","","","sizeS.png","","",""
"image-slider-2AFC","641","1493234","0.0-51.23-1.23","2375","","","","17","","","","","","","","heartS.png","1671","17",""
"html-keyboard-response","642","1494037","0.0-51.23-2.23","null","","","","","","","null","","","","","","","",""
"image-selector-fb","643","1497144","0.0-51.24-0.24","2602","pics2/SA3.jpg,pics2/SW5.jpg","","","","","","","true","1","","","sizeS.png","","",""
"image-slider-2AFC","644","1498811","0.0-51.24-1.24","1667","","","","3","","","","","","","","sizeS.png","1130","3",""
"html-keyboard-response","645","1499564","0.0-51.24-2.24","null","","","","","","","null","","","","","","","",""
"image-selector-fb","646","1502696","0.0-51.25-0.25","2628","pics2/VE3.jpg,pics2/FR4.jpg","","","","","","","false","0","","","heartS.png","","",""
"image-slider-2AFC","647","1505506","0.0-51.25-1.25","2809","","","","-8","","","","","","","","heartS.png","1802","-8",""
"html-keyboard-response","648","1506258","0.0-51.25-2.25","null","","","","","","","null","","","","","","","",""
"image-selector-fb","649","1508489","0.0-51.26-0.26","1727","pics2/SA6.jpg,pics2/VE2.jpg","","","","","","","true","1","","","sizeS.png","","",""
"image-slider-2AFC","650","1512186","0.0-51.26-1.26","3696","","","","-1","","","","","","","","heartS.png","2488,3097","1,-1",""
"html-keyboard-response","651","1512938","0.0-51.26-2.26","null","","","","","","","null","","","","","","","",""
"image-selector-fb","652","1515970","0.0-51.27-0.27","null","pics2/FR4.jpg,pics2/FR3.jpg","","","","","","","false","null","","","noS.png","","",""
"image-slider-2AFC","653","1518242","0.0-51.27-1.27","2271","","","","19","","","","","","","","heartS.png","1504","19",""
"html-keyboard-response","654","1518945","0.0-51.27-2.27","null","","","","","","","null","","","","","","","",""
"image-selector-fb","655","1521201","0.0-51.28-0.28","1753","pics2/SA3.jpg,pics2/SA6.jpg","","","","","","","false","0","","","sizeS.png","","",""
"image-slider-2AFC","656","1522922","0.0-51.28-1.28","1720","","","","-3","","","","","","","","sizeS.png","1208","-3",""
"html-keyboard-response","657","1523675","0.0-51.28-2.28","null","","","","","","","null","","","","","","","",""
"image-selector-fb","658","1526001","0.0-51.29-0.29","1823","pics2/SA3.jpg,pics2/VE3.jpg","","","","","","","true","1","","","sizeS.png","","",""
"image-slider-2AFC","659","1527939","0.0-51.29-1.29","1937","","","","4","","","","","","","","sizeS.png","1432","4",""
"html-keyboard-response","660","1528741","0.0-51.29-2.29","null","","","","","","","null","","","","","","","",""
"image-selector-fb","661","1531897","0.0-51.30-0.30","2652","pics2/VE2.jpg,pics2/VE3.jpg","","","","","","","true","1","","","sizeS.png","","",""
"image-slider-2AFC","662","1535162","0.0-51.30-1.30","3264","","","","1","","","","","","","","sizeS.png","1208,2640","-1,1",""
"html-keyboard-response","663","1536016","0.0-51.30-2.30","null","","","","","","","null","","","","","","","",""
"image-selector-fb","664","1537554","0.0-51.31-0.31","1032","pics2/SW5.jpg,pics2/SA6.jpg","","","","","","","false","0","","","heartS.png","","",""
"image-slider-2AFC","665","1539420","0.0-51.31-1.31","1864","","","","-10","","","","","","","","heartS.png","1360","-10",""
"html-keyboard-response","666","1540273","0.0-51.31-2.31","null","","","","","","","null","","","","","","","",""
"image-selector-fb","667","1541729","0.0-51.32-0.32","954","pics2/SW4.jpg,pics2/VE3.jpg","","","","","","","false","0","","","sizeS.png","","",""
"image-slider-2AFC","668","1545659","0.0-51.32-1.32","3929","","","","-2","","","","","","","","sizeS.png","2489","-2",""
"html-keyboard-response","669","1546511","0.0-51.32-2.32","null","","","","","","","null","","","","","","","",""
"image-selector-fb","670","1551014","0.0-51.33-0.33","null","pics2/FR4.jpg,pics2/SW5.jpg","","","","","","","false","null","","","sizeS.png","","",""
"image-slider-2AFC","671","1551015","0.0-51.33-1.33","null","","","","null","","","","","","","","heartS.png","","",""
"html-keyboard-response","672","1551766","0.0-51.33-2.33","null","","","","","","","null","","","","","","","",""
"image-selector-fb","673","1553738","0.0-51.34-0.34","1469","pics2/SA3.jpg,pics2/FR4.jpg","","","","","","","true","1","","","sizeS.png","","",""
"image-slider-2AFC","674","1556332","0.0-51.34-1.34","2593","","","","-10","","","","","","","","heartS.png","2072","-10",""
"html-keyboard-response","675","1557034","0.0-51.34-2.34","null","","","","","","","null","","","","","","","",""
"image-selector-fb","676","1559034","0.0-51.35-0.35","1496","pics2/FR4.jpg,pics2/SA2.jpg","","","","","","","false","0","","","sizeS.png","","",""
"image-slider-2AFC","677","1561116","0.0-51.35-1.35","2079","","","","-6","","","","","","","","heartS.png","1558","-6",""
"html-keyboard-response","678","1561868","0.0-51.35-2.35","null","","","","","","","null","","","","","","","",""
"image-selector-fb","679","1564874","0.0-51.36-0.36","null","pics2/FR4.jpg,pics2/VE2.jpg","","","","","","","false","null","","","noS.png","","",""
"image-slider-2AFC","680","1567275","0.0-51.36-1.36","2398","","","","8","","","","","","","","heartS.png","1942","8",""
"html-keyboard-response","681","1568127","0.0-51.36-2.36","null","","","","","","","null","","","","","","","",""
"image-selector-fb","682","1570209","0.0-51.37-0.37","1577","pics2/SW1.jpg,pics2/FR4.jpg","","","","","","","false","0","","","heartS.png","","",""
"image-slider-2AFC","683","1573635","0.0-51.37-1.37","3425","","","","-11","","","","","","","","sizeS.png","1642,2529","-7,-11",""
"html-keyboard-response","684","1574339","0.0-51.37-2.37","null","","","","","","","null","","","","","","","",""
"image-selector-fb","685","1577343","0.0-51.38-0.38","null","pics2/SW3.jpg,pics2/SW4.jpg","","","","","","","false","null","","","noS.png","","",""
"image-slider-2AFC","686","1580716","0.0-51.38-1.38","3371","","","","24","","","","","","","","heartS.png","1858,2914","32,24",""
"html-keyboard-response","687","1581518","0.0-51.38-2.38","null","","","","","","","null","","","","","","","",""
"image-selector-fb","688","1583778","0.0-51.39-0.39","1756","pics2/SA3.jpg,pics2/SW4.jpg","","","","","","","true","1","","","sizeS.png","","",""
"image-slider-2AFC","689","1585467","0.0-51.39-1.39","1688","","","","4","","","","","","","","sizeS.png","976","4",""
"html-keyboard-response","690","1586220","0.0-51.39-2.39","null","","","","","","","null","","","","","","","",""
"image-selector-fb","691","1589497","0.0-51.40-0.40","2774","pics2/VE2.jpg,pics2/FR4.jpg","","","","","","","false","0","","","heartS.png","","",""
"image-slider-2AFC","692","1591460","0.0-51.40-1.40","1961","","","","-19","","","","","","","","heartS.png","1401","-19",""
"html-keyboard-response","693","1592262","0.0-51.40-2.40","null","","","","","","","null","","","","","","","",""
"image-selector-fb","694","1595268","0.0-51.41-0.41","null","pics2/SW1.jpg,pics2/SW3.jpg","","","","","","","false","null","","","noS.png","","",""
"image-slider-2AFC","695","1598554","0.0-51.41-1.41","3285","","","","-3","","","","","","","","sizeS.png","2526","-3",""
"html-keyboard-response","696","1599257","0.0-51.41-2.41","null","","","","","","","null","","","","","","","",""
"image-selector-fb","697","1602261","0.0-51.42-0.42","null","pics2/SA3.jpg,pics2/SW4.jpg","","","","","","","false","null","","","noS.png","","",""
"image-slider-2AFC","698","1604850","0.0-51.42-1.42","2588","","","","30","","","","","","","","heartS.png","1996","30",""
"html-keyboard-response","699","1605552","0.0-51.42-2.42","null","","","","","","","null","","","","","","","",""
"image-selector-fb","700","1607768","0.0-51.43-0.43","1714","pics2/SW4.jpg,pics2/SW3.jpg","","","","","","","true","1","","","sizeS.png","","",""
"image-slider-2AFC","701","1609722","0.0-51.43-1.43","1953","","","","7","","","","","","","","sizeS.png","1113","7",""
"html-keyboard-response","702","1610524","0.0-51.43-2.43","null","","","","","","","null","","","","","","","",""
"image-selector-fb","703","1612928","0.0-51.44-0.44","1899","pics2/SA6.jpg,pics2/SA2.jpg","","","","","","","false","0","","","sizeS.png","","",""
"image-slider-2AFC","704","1616363","0.0-51.44-1.44","3434","","","","-6","","","","","","","","sizeS.png","1737,2705","-4,-6",""
"html-keyboard-response","705","1617216","0.0-51.44-2.44","null","","","","","","","null","","","","","","","",""
"image-selector-fb","706","1620220","0.0-51.45-0.45","null","pics2/SW2.jpg,pics2/SW5.jpg","","","","","","","false","null","","","noS.png","","",""
"image-slider-2AFC","707","1622930","0.0-51.45-1.45","2709","","","","-14","","","","","","","","sizeS.png","2070","-14",""
"html-keyboard-response","708","1623684","0.0-51.45-2.45","null","","","","","","","null","","","","","","","",""
"image-selector-fb","709","1626687","0.0-51.46-0.46","null","pics2/VE3.jpg,pics2/SW4.jpg","","","","","","","false","null","","","noS.png","","",""
"image-slider-2AFC","710","1629835","0.0-51.46-1.46","3146","","","","3","","","","","","","","sizeS.png","2427","3",""
"html-keyboard-response","711","1630637","0.0-51.46-2.46","null","","","","","","","null","","","","","","","",""
