"trial_type","trial_index","time_elapsed","internal_node_id","rt","stimulus","button_pressed","success","response","cat","value","key_press","correct","image_click","first_click_rt","first_click_val","symbol","all_click_rt","all_click_val","view_history"
"pavlovia","0","9","0.0-0.0","","","","","","","","","","","","","","","",""
"html-button-response","1","3505","0.0-1.0","3494","<div style='width: 700px; font-size: 150%'><font size='40'>  Welcome to our study!</font><br><br><br> <small> Our experiment is about <i>decision making</i>. You will choose and rate different food items, such as these: <br><br> <div><img src='food_combo2.png', height = '400px'></img></div>","0","","","","","","","","","","","","",""
"html-button-response","2","13035","0.0-2.0","9526","<div style='width: 700px; font-size: 150%'><br><br><br><small> <u><i>This is a multi-part study.</i></u><br><br> In the first part you will rate 24 food items twice.<br><br><div><img src=""rat1.png"" style=""width: 25%""></img></div><br>In the second part (longest) you will make repeated choices and judgements concerning the food items.<br><br><div><img src=""mainx.png"" style=""width: 50%""></img></div><br>In the third and final part, you will rate the items again and answer few short questionnaires.<br><br><div><img src=""rat2.png"" style=""width: 50%""></img></div><br><br>","0","","","","","","","","","","","","",""
"fullscreen","3","16023","0.0-3.0","","","","true","","","","","","","","","","","",""
"html-button-response","4","17414","0.0-4.0","1388","<div style='width: 900px; font-size: 150%;' <font size='20%'> In the first part of the task you will use the mouse to rate food items on <i>2 scales</i> </font></div><br><br><div style='width: 900px'><div style='float: left; width: 50%; margin-right:2.5em'><img src='heartS.png'></img><p class='small' style='text-align: justify'>When you see the heart cue you will rate food items in terms of how much like them/would like to eat them <i>right now</i>. You will rate them on a continuous scale from left (strong dislike) to right (strong liking). Before submitting your rating, try imagining how the item tastes and how much you desire it.<br><br></p></div><div ><img src='sizeS.png'></img><p class='small' style='text-align: justify'>When you see the size cue, you will rate the same food items in terms of their size. The scale goes from left (tiny) to right (very large). You should assess picture size <i><u>relative</i></u> to the white background. <b>Remember:</b> rate the size of the picture, <u>not</u> the size of the item in real life. </p></div><div style='width: 900px'><br><br><b><i>Notice:</b> by starting the rating you agree that your sumbission might be rejected at an early stage and the experiment might end, if your size ratings are not at least modestly related to objective sizes, or if you repeat the same value ratings too many times. If you don't agree, please exit by closing the browser window. </i><br><br><br>","0","","","","","","","","","","","","",""
"html-button-response","5","18863","0.0-5.0","1447","<div><img src='heartS.png'></img></div><br><div style='text-align: justify; width: 700px'>Using the mouse, rate the <b><i>likeness</b></i> of the food items (how much you like them/would like to eat them <i>right now</i>). Far right-end of the scale indicates an item you <i>like a lot</i>. Far left-end indicates an item you <i>dislike a lot</i>. Think about each answer.   <ul><li>Try <b><i>not</b></i> to give identical rating to different items.</li><li>Use the whole scale, and <b><i>not</b></i> just the extremes</ul></div><br>","0","","","","","","","","","","","","",""
"image-slider-response","6","24774","0.0-6.0-0.0-0.0","5907","pics2/FR5.jpg","","","91","FR","","","","","","","","","",""
"image-slider-response","7","28180","0.0-6.0-0.0-0.1","3203","pics2/VE4.jpg","","","31","VE","","","","","","","","","",""
"image-slider-response","8","31749","0.0-6.0-0.0-0.2","3366","pics2/SA6.jpg","","","58","SA","","","","","","","","","",""
"image-slider-response","9","38346","0.0-6.0-0.0-0.3","6390","pics2/FR2.jpg","","","69","FR","","","","","","","","","",""
"image-slider-response","10","40691","0.0-6.0-0.0-0.4","2142","pics2/SW4.jpg","","","59","SW","","","","","","","","","",""
"image-slider-response","11","43157","0.0-6.0-0.0-0.5","2264","pics2/VE1.jpg","","","83","VE","","","","","","","","","",""
"image-slider-response","12","46665","0.0-6.0-0.0-0.6","3305","pics2/VE6.jpg","","","0","VE","","","","","","","","","",""
"image-slider-response","13","50019","0.0-6.0-0.0-0.7","3151","pics2/FR6.jpg","","","71","FR","","","","","","","","","",""
"image-slider-response","14","53566","0.0-6.0-0.0-0.8","3343","pics2/SA4.jpg","","","100","SA","","","","","","","","","",""
"image-slider-response","15","56984","0.0-6.0-0.0-0.9","3214","pics2/VE3.jpg","","","62","VE","","","","","","","","","",""
"image-slider-response","16","61293","0.0-6.0-0.0-0.10","4106","pics2/SA1.jpg","","","29","SA","","","","","","","","","",""
"image-slider-response","17","68562","0.0-6.0-0.0-0.11","7065","pics2/SW5.jpg","","","64","SW","","","","","","","","","",""
"image-slider-response","18","72735","0.0-6.0-0.0-0.12","3971","pics2/VE5.jpg","","","78","VE","","","","","","","","","",""
"image-slider-response","19","76276","0.0-6.0-0.0-0.13","3339","pics2/FR4.jpg","","","100","FR","","","","","","","","","",""
"image-slider-response","20","79151","0.0-6.0-0.0-0.14","2671","pics2/SW1.jpg","","","75","SW","","","","","","","","","",""
"image-slider-response","21","83047","0.0-6.0-0.0-0.15","3693","pics2/SA2.jpg","","","88","SA","","","","","","","","","",""
"image-slider-response","22","85965","0.0-6.0-0.0-0.16","2715","pics2/SW2.jpg","","","61","SW","","","","","","","","","",""
"image-slider-response","23","88524","0.0-6.0-0.0-0.17","2355","pics2/FR1.jpg","","","69","FR","","","","","","","","","",""
"image-slider-response","24","94467","0.0-6.0-0.0-0.18","5740","pics2/VE2.jpg","","","57","VE","","","","","","","","","",""
"image-slider-response","25","100486","0.0-6.0-0.0-0.19","5813","pics2/SW6.jpg","","","79","SW","","","","","","","","","",""
"image-slider-response","26","103606","0.0-6.0-0.0-0.20","2917","pics2/FR3.jpg","","","100","FR","","","","","","","","","",""
"image-slider-response","27","106520","0.0-6.0-0.0-0.21","2709","pics2/SA3.jpg","","","100","SA","","","","","","","","","",""
"image-slider-response","28","110146","0.0-6.0-0.0-0.22","3423","pics2/SA5.jpg","","","26","SA","","","","","","","","","",""
"image-slider-response","29","112255","0.0-6.0-0.0-0.23","1905","pics2/SW3.jpg","","","65","SW","","","","","","","","","",""
"html-button-response","30","113661","0.0-7.0","1202","<div style='width: 900px;'> <font size = 6><b> End of the first rating</b><br><br>","0","","","","","","","","","","","","",""
"html-button-response","31","115637","0.0-9.0","1974","<div ><img src='sizeS.png'></img></div><br><div style='text-align: justify; width: 700px'> Using the mouse, rate the <b><i>size</b></i> of the food items <b><i> relative to the white background.</b></i> Right-end of the scale indicates a <i>very large item</i>, which covers a large portion of the white rectangle. Left-end indicates a <i>very tiny</i> item which covers a tiny portion of the white rectangle.<br><br><i><u>Remember</i></u>: everything that is not the white background also contributes to item size (e.g. packing, plates, ect.)<br><br> Please keep in mind that if the accuracy of ratings do not allign well with actual sizes, the experiment will end.  As a result it will be consider incomplete and therefore no payment would be made. Good luck!<br><br></div><br>","0","","","","","","","","","","","","",""
"html-button-response","32","126805","0.0-10.0","11164","<div ><img src='sizeS.png'></img></div><br><b><font size=6>Examples of items that you might encounter</b><br><div style='width: 750px;'><div style='width: 33.33%; float:left'><br><br><br><i>Large Item</i><br><br><img src='large.jpg', width=200px></img></div><div style='float:right'><br><br><br><i>Small Item</i><br><br><img src='small.jpg', width=200px></img></div><div ><br><br><br><i>Medium Item</i><br><br><img src='med.jpg', width=200px></img></div></div><br><br>","0","","","","","","","","","","","","",""
"image-slider-response","33","130759","0.0-11.0-0.0-0.0","3952","pics2/FR6.jpg","","","39","null","","","","","","","","","",""
"image-slider-response","34","133192","0.0-11.0-0.0-0.1","2226","pics2/VE2.jpg","","","61","null","","","","","","","","","",""
"image-slider-response","35","137899","0.0-11.0-0.0-0.2","4504","pics2/SW2.jpg","","","95","null","","","","","","","","","",""
"image-slider-response","36","140180","0.0-11.0-0.0-0.3","2075","pics2/FR5.jpg","","","76","null","","","","","","","","","",""
"image-slider-response","37","142470","0.0-11.0-0.0-0.4","2087","pics2/SW3.jpg","","","76","null","","","","","","","","","",""
"image-slider-response","38","145117","0.0-11.0-0.0-0.5","2442","pics2/SA1.jpg","","","86","null","","","","","","","","","",""
"image-slider-response","39","148689","0.0-11.0-0.0-0.6","3369","pics2/VE5.jpg","","","55","null","","","","","","","","","",""
"image-slider-response","40","152016","0.0-11.0-0.0-0.7","3124","pics2/SW6.jpg","","","22","null","","","","","","","","","",""
"image-slider-response","41","159821","0.0-11.0-0.0-0.8","7602","pics2/SA3.jpg","","","64","null","","","","","","","","","",""
"image-slider-response","42","166436","0.0-11.0-0.0-0.9","6410","pics2/VE3.jpg","","","67","null","","","","","","","","","",""
"image-slider-response","43","169735","0.0-11.0-0.0-0.10","3095","pics2/VE1.jpg","","","79","null","","","","","","","","","",""
"image-slider-response","44","172328","0.0-11.0-0.0-0.11","2389","pics2/VE6.jpg","","","22","null","","","","","","","","","",""
"image-slider-response","45","175356","0.0-11.0-0.0-0.12","2825","pics2/VE4.jpg","","","42","null","","","","","","","","","",""
"image-slider-response","46","179762","0.0-11.0-0.0-0.13","4202","pics2/FR4.jpg","","","85","null","","","","","","","","","",""
"image-slider-response","47","182532","0.0-11.0-0.0-0.14","2565","pics2/SA6.jpg","","","57","null","","","","","","","","","",""
"image-slider-response","48","187012","0.0-11.0-0.0-0.15","4279","pics2/FR2.jpg","","","86","null","","","","","","","","","",""
"image-slider-response","49","191498","0.0-11.0-0.0-0.16","4283","pics2/SA5.jpg","","","41","null","","","","","","","","","",""
"image-slider-response","50","194363","0.0-11.0-0.0-0.17","2662","pics2/FR1.jpg","","","78","null","","","","","","","","","",""
"image-slider-response","51","196897","0.0-11.0-0.0-0.18","2332","pics2/SW5.jpg","","","75","null","","","","","","","","","",""
"image-slider-response","52","201971","0.0-11.0-0.0-0.19","4869","pics2/SA2.jpg","","","26","null","","","","","","","","","",""
"image-slider-response","53","205440","0.0-11.0-0.0-0.20","3264","pics2/SW1.jpg","","","90","null","","","","","","","","","",""
"image-slider-response","54","208160","0.0-11.0-0.0-0.21","2515","pics2/SW4.jpg","","","70","null","","","","","","","","","",""
"image-slider-response","55","214346","0.0-11.0-0.0-0.22","5983","pics2/SA4.jpg","","","22","null","","","","","","","","","",""
"image-slider-response","56","220137","0.0-11.0-0.0-0.23","5589","pics2/FR3.jpg","","","73","null","","","","","","","","","",""
"html-button-response","57","221584","0.0-12.0","1243","<div style='width: 900px;'> <font size = 6><b> End of the second rating</b><br><br>","0","","","","","","","","","","","","",""
"html-button-response","58","223649","0.0-13.0","2064","<div style='width: 900px;'>Now please rate the items for the second time. <br><br>This is not a memory test - you don't need to be consistent with your previous ratings. Just as before, try to make accurate judgements.<br><br>","0","","","","","","","","","","","","",""
"html-button-response","59","224877","0.0-14.0","1224","<div><img src='heartS.png'></img></div><br><div style='text-align: justify; width: 700px'>Using the mouse, rate the <b><i>likeness</b></i> of the food items (how much you like them/would like to eat them <i>right now</i>). Far right-end of the scale indicates an item you <i>like a lot</i>. Far left-end indicates an item you <i>dislike a lot</i>. Think about each answer.   <ul><li>Try <b><i>not</b></i> to give identical rating to different items.</li><li>Use the whole scale, and <b><i>not</b></i> just the extremes</ul></div><br>","0","","","","","","","","","","","","",""
"image-slider-response","60","227653","0.0-15.0-0.0-0.0","2773","pics2/FR4.jpg","","","100","FR","","","","","","","","","",""
"image-slider-response","61","230319","0.0-15.0-0.0-0.1","2461","pics2/SA3.jpg","","","100","SA","","","","","","","","","",""
"image-slider-response","62","232640","0.0-15.0-0.0-0.2","2118","pics2/SW3.jpg","","","72","SW","","","","","","","","","",""
"image-slider-response","63","236953","0.0-15.0-0.0-0.3","4111","pics2/SA4.jpg","","","96","SA","","","","","","","","","",""
"image-slider-response","64","239732","0.0-15.0-0.0-0.4","2575","pics2/SA6.jpg","","","60","SA","","","","","","","","","",""
"image-slider-response","65","242667","0.0-15.0-0.0-0.5","2731","pics2/SW2.jpg","","","82","SW","","","","","","","","","",""
"image-slider-response","66","245273","0.0-15.0-0.0-0.6","2404","pics2/SW1.jpg","","","82","SW","","","","","","","","","",""
"image-slider-response","67","252238","0.0-15.0-0.0-0.7","6760","pics2/FR6.jpg","","","60","FR","","","","","","","","","",""
"image-slider-response","68","254158","0.0-15.0-0.0-0.8","1717","pics2/SW6.jpg","","","66","SW","","","","","","","","","",""
"image-slider-response","69","256628","0.0-15.0-0.0-0.9","2266","pics2/FR1.jpg","","","77","FR","","","","","","","","","",""
"image-slider-response","70","259394","0.0-15.0-0.0-0.10","2563","pics2/VE3.jpg","","","43","VE","","","","","","","","","",""
"image-slider-response","71","262009","0.0-15.0-0.0-0.11","2412","pics2/FR3.jpg","","","72","FR","","","","","","","","","",""
"image-slider-response","72","265472","0.0-15.0-0.0-0.12","3260","pics2/VE2.jpg","","","63","VE","","","","","","","","","",""
"image-slider-response","73","269065","0.0-15.0-0.0-0.13","3392","pics2/FR5.jpg","","","80","FR","","","","","","","","","",""
"image-slider-response","74","273057","0.0-15.0-0.0-0.14","3787","pics2/VE6.jpg","","","0","VE","","","","","","","","","",""
"image-slider-response","75","275671","0.0-15.0-0.0-0.15","2412","pics2/FR2.jpg","","","78","FR","","","","","","","","","",""
"image-slider-response","76","290630","0.0-15.0-0.0-0.16","14753","pics2/SA2.jpg","","","73","SA","","","","","","","","","",""
"image-slider-response","77","293041","0.0-15.0-0.0-0.17","2206","pics2/SA1.jpg","","","23","SA","","","","","","","","","",""
"image-slider-response","78","294773","0.0-15.0-0.0-0.18","1528","pics2/SA5.jpg","","","40","SA","","","","","","","","","",""
"image-slider-response","79","296844","0.0-15.0-0.0-0.19","1868","pics2/VE1.jpg","","","79","VE","","","","","","","","","",""
"image-slider-response","80","298938","0.0-15.0-0.0-0.20","1890","pics2/SW5.jpg","","","70","SW","","","","","","","","","",""
"image-slider-response","81","300977","0.0-15.0-0.0-0.21","1834","pics2/SW4.jpg","","","61","SW","","","","","","","","","",""
"image-slider-response","82","303013","0.0-15.0-0.0-0.22","1834","pics2/VE4.jpg","","","37","VE","","","","","","","","","",""
"image-slider-response","83","305170","0.0-15.0-0.0-0.23","1953","pics2/VE5.jpg","","","80","VE","","","","","","","","","",""
"call-function","84","305381","0.0-16.0","","","","","","","","","","","","","","","",""
"call-function","85","305384","0.0-17.0","","","","","","","","","","","","","","","",""
"html-button-response","86","306298","0.0-18.0","912","<div style='width: 900px;'> <font size = 6><b> End of the first rating</b><br><br>","0","","","","","","","","","","","","",""
"html-button-response","87","309265","0.0-19.0","2965","<div ><img src='sizeS.png'></img></div><br><div style='text-align: justify; width: 700px'> Using the mouse, rate the <b><i>size</b></i> of the food items <b><i> relative to the white background.</b></i> Right-end of the scale indicates a <i>very large item</i>, which covers a large portion of the white rectangle. Left-end indicates a <i>very tiny</i> item which covers a tiny portion of the white rectangle.<br><br><i><u>Remember</i></u>: everything that is not the white background also contributes to item size (e.g. packing, plates, ect.)<br><br> Please keep in mind that if the accuracy of ratings do not allign well with actual sizes, the experiment will end.  As a result it will be consider incomplete and therefore no payment would be made. Good luck!<br><br></div><br>","0","","","","","","","","","","","","",""
"image-slider-response","88","313254","0.0-20.0-0.0-0.0","3987","pics2/SA1.jpg","","","90","null","","","","","","","","","",""
"image-slider-response","89","315709","0.0-20.0-0.0-0.1","2249","pics2/FR4.jpg","","","93","null","","","","","","","","","",""
"image-slider-response","90","318239","0.0-20.0-0.0-0.2","2328","pics2/FR1.jpg","","","83","null","","","","","","","","","",""
"image-slider-response","91","320288","0.0-20.0-0.0-0.3","1845","pics2/SW1.jpg","","","96","null","","","","","","","","","",""
"image-slider-response","92","322971","0.0-20.0-0.0-0.4","2478","pics2/SW3.jpg","","","73","null","","","","","","","","","",""
"image-slider-response","93","325125","0.0-20.0-0.0-0.5","1951","pics2/SA3.jpg","","","65","null","","","","","","","","","",""
"image-slider-response","94","327568","0.0-20.0-0.0-0.6","2238","pics2/VE6.jpg","","","24","null","","","","","","","","","",""
"image-slider-response","95","329714","0.0-20.0-0.0-0.7","1944","pics2/FR2.jpg","","","86","null","","","","","","","","","",""
"image-slider-response","96","332140","0.0-20.0-0.0-0.8","2223","pics2/SA4.jpg","","","26","null","","","","","","","","","",""
"image-slider-response","97","336899","0.0-20.0-0.0-0.9","4555","pics2/SA5.jpg","","","39","null","","","","","","","","","",""
"image-slider-response","98","341334","0.0-20.0-0.0-0.10","4232","pics2/FR6.jpg","","","57","null","","","","","","","","","",""
"image-slider-response","99","343768","0.0-20.0-0.0-0.11","2228","pics2/FR3.jpg","","","70","null","","","","","","","","","",""
"image-slider-response","100","348012","0.0-20.0-0.0-0.12","4041","pics2/SW2.jpg","","","88","null","","","","","","","","","",""
"image-slider-response","101","350826","0.0-20.0-0.0-0.13","2609","pics2/VE2.jpg","","","84","null","","","","","","","","","",""
"image-slider-response","102","353757","0.0-20.0-0.0-0.14","2727","pics2/SA2.jpg","","","37","null","","","","","","","","","",""
"image-slider-response","103","356553","0.0-20.0-0.0-0.15","2590","pics2/FR5.jpg","","","77","null","","","","","","","","","",""
"image-slider-response","104","358950","0.0-20.0-0.0-0.16","2195","pics2/VE3.jpg","","","73","null","","","","","","","","","",""
"image-slider-response","105","362426","0.0-20.0-0.0-0.17","3272","pics2/SW6.jpg","","","30","null","","","","","","","","","",""
"image-slider-response","106","365286","0.0-20.0-0.0-0.18","2656","pics2/VE5.jpg","","","71","null","","","","","","","","","",""
"image-slider-response","107","370184","0.0-20.0-0.0-0.19","4695","pics2/VE4.jpg","","","47","null","","","","","","","","","",""
"image-slider-response","108","372272","0.0-20.0-0.0-0.20","1882","pics2/SW5.jpg","","","69","null","","","","","","","","","",""
"image-slider-response","109","375442","0.0-20.0-0.0-0.21","2967","pics2/VE1.jpg","","","70","null","","","","","","","","","",""
"image-slider-response","110","379582","0.0-20.0-0.0-0.22","3938","pics2/SA6.jpg","","","40","null","","","","","","","","","",""
"image-slider-response","111","381944","0.0-20.0-0.0-0.23","2157","pics2/SW4.jpg","","","58","null","","","","","","","","","",""
"call-function","112","382151","0.0-21.0","","","","","","","","","","","","","","","",""
"html-button-response","113","383125","0.0-22.0","974","<div style='width: 900px;'> <font size = 6><b> End of the second rating</b><br><br>","0","","","","","","","","","","","","",""
"pavlovia","114","383136","0.0-23.0","","","","","","","","","","","","","","","",""
"html-keyboard-response","115","388139","0.0-24.0","null","<div style='width: 700px;'> <font size=6><b>SHORT BREAK</font></b><br><br><i> Please wait 5 seconds to continue</i></div> ","","","","","","null","","","","","","","",""
"pavlovia","116","388142","0.0-25.0","","","","","","","","","","","","","","","",""
"html-button-response","117","431178","0.0-26.0","43035","<div style='width: 700px;'>In the main part of the study, you will be choosing between 2 items. When it's time to choose,  this symbol will appear: <br><br><img src='chooseS.png'></img><br><br>Below, a cue will signify the type of choice: </div><br><div style='width: 700px;'><div style='float: left; width: 50%'><img src='heartS.png'></img><p class='small'>Heart cue means you should choose the item you <b><i>prefer</b></i> more.</p></div><div class='float: right; width:50%'><img src='sizeS.png'></img><p class='small'>Size cue means you should choose the <b><i>larger</b></i> item. </p></div></div><br><div style='width: 700px;'>When you click, a green square will appear around the item you chose.<br></div><div><br>","0","","","","","","","","","","","","",""
"image-selector-fb-tut","118","438500","0.0-27.0","6317","0232.jpg,0123.jpg","","","","","","","false","0","","","","","",""
"image-selector-fb-tut","119","442919","0.0-28.0","3415","0232.jpg,0123.jpg","","","","","","","true","1","","","","","",""
"html-button-response","120","459397","0.0-29.0","16477","<div style='width: 900px;'>Your choices should be both <b><i>fast and accurate</b></i>. <br><br>You will have <i>4 seconds</i> to make each choice, which should be enough consider the options and click on one of the items.<br><br>","0","","","","","","","","","","","","",""
"html-button-response","121","466960","0.0-30.0","7560","<div style='width: 900px;'>Additionally, on some choice trials you will see the <b><i>no-choice cue</b></i>: <br><br><img src='noS.png'></img> <br><br>This cue means you can't make any choice. You can examine the items, but  can't click on any of them. Just wait patiently for the cue to dissapear.<br><br>","0","","","","","","","","","","","","",""
"image-selector-fb-tut","122","468967","0.0-31.0","null","0232.jpg,0123.jpg","","","","","","","false","null","","","","","",""
"html-button-response","123","480162","0.0-32.0","11193","<div style='width: 900px;'>After each choice the items will remain on the screen and you will see this symbol: <br><br><img src='judgeS.png'></img> <br><br>This means you should rate<b> the magnitude of the difference</b> between the items using a scale: </div><br><div style='width: 900px; '><div style='float: left; width: 50%; margin-right: 2.5em; align-self:left'><img src='heartS.png'></img><p class='small' style = 'text-align: justify;'>Heart cue means you should rate <b>how much you prefer</b> one of the items over the other. Moving the scale indicator to the left means you prefer the left one; moving it to the right - right one. The more you prefer one of them, the more towards that side you should move the scale indicator. </p></div><div class='float: right; width: 50%; margin-left: 2.5em;'><img src='sizeS.png'></img><p class='small' style='text-align: justify'>Size cue means you should rate <b>how much larger</b> is one of the items over the other. Moving the scale indicator to the left means you think the left is larger; moving it to the right - right one. The greater the difference in size, the more towards that side you should move the scale indicator.</div><br>","0","","","","","","","","","","","","",""
"image-slider-2AFC-tut","124","486565","0.0-33.0","6400","","","","72","","","","","","5476","72","","","",""
"image-slider-2AFC-tut","125","490779","0.0-34.0","4209","","","","21","","","","","","","","","","",""
"html-button-response","126","506358","0.0-35.0","15577","<br><br><font size = 36><b> Examples </b></font><br><br><i> 1) I would like to eat some croissants a <b>lot more</b> than doritos right now:</i><br><img src='ex1.PNG', width='62%'></img><br><br><br><i> 2) I would like to eat some doritos a <b>bit more</b> than croissants right now, but just slightly:</i><br><img src='ex2.PNG' width='62%'></img>","0","","","","","","","","","","","","",""
"html-button-response","127","512274","0.0-36.0","5915","<div style='width: 900px;'><i>Now you know everything you need to do the task!</i> <br><br>Let's start by doing a <b>short training</b>, so you'll get used to how it works. </div><br>","0","","","","","","","","","","","","",""
"image-selector-fb","128","516781","0.0-37.0-0.0","null","pics2/SA6.jpg,pics2/VE3.jpg","","","","","","","false","null","","","sizeS.png","","",""
"image-slider-2AFC","129","516783","0.0-37.0-1.0","null","","","","null","","","","","","","","heartS.png","","",""
"html-keyboard-response","130","517487","0.0-37.0-2.0","null","","","","","","","null","","","","","","","",""
"image-selector-fb","131","520660","0.0-37.1-0.1","2669","pics2/SA6.jpg,pics2/VE4.jpg","","","","","","","false","0","","","sizeS.png","","",""
"image-slider-2AFC","132","525587","0.0-37.1-1.1","4923","","","","-29","","","","","","","","heartS.png","1563,4363","-19,-29",""
"html-keyboard-response","133","526339","0.0-37.1-2.1","null","","","","","","","null","","","","","","","",""
"image-selector-fb","134","528829","0.0-37.2-0.2","1984","pics2/VE6.jpg,pics2/SW4.jpg","","","","","","","true","1","","","sizeS.png","","",""
"image-slider-2AFC","135","533832","0.0-37.2-1.2","null","","","","null","","","","","","","","heartS.png","","",""
"html-keyboard-response","136","534686","0.0-37.2-2.2","null","","","","","","","null","","","","","","","",""
"image-selector-fb","137","536970","0.0-37.3-0.3","1779","pics2/SA6.jpg,pics2/SW5.jpg","","","","","","","true","1","","","sizeS.png","","",""
"image-slider-2AFC","138","541973","0.0-37.3-1.3","null","","","","null","","","","","","","","sizeS.png","","",""
"html-keyboard-response","139","542778","0.0-37.3-2.3","null","","","","","","","null","","","","","","","",""
"image-selector-fb","140","545787","0.0-37.4-0.4","null","pics2/VE3.jpg,pics2/SA5.jpg","","","","","","","false","null","","","noS.png","","",""
"image-slider-2AFC","141","550791","0.0-37.4-1.4","null","","","","null","","","","","","","","sizeS.png","","",""
"html-keyboard-response","142","551594","0.0-37.4-2.4","null","","","","","","","null","","","","","","","",""
"image-selector-fb","143","554600","0.0-37.5-0.5","null","pics2/FR6.jpg,pics2/SW4.jpg","","","","","","","false","null","","","noS.png","","",""
"image-slider-2AFC","144","558601","0.0-37.5-1.5","3998","","","","53","","","","","","","","sizeS.png","3344","53",""
"html-keyboard-response","145","559453","0.0-37.5-2.5","null","","","","","","","null","","","","","","","",""
"image-selector-fb","146","561548","0.0-37.6-0.6","1589","pics2/SA1.jpg,pics2/SW2.jpg","","","","","","","true","1","","","heartS.png","","",""
"image-slider-2AFC","147","566551","0.0-37.6-1.6","null","","","","null","","","","","","","","heartS.png","","",""
"html-keyboard-response","148","567305","0.0-37.6-2.6","null","","","","","","","null","","","","","","","",""
"image-selector-fb","149","570311","0.0-37.7-0.7","null","pics2/VE3.jpg,pics2/SW4.jpg","","","","","","","false","null","","","noS.png","","",""
"image-slider-2AFC","150","575315","0.0-37.7-1.7","null","","","","null","","","","","","","","sizeS.png","","",""
"html-keyboard-response","151","576020","0.0-37.7-2.7","null","","","","","","","null","","","","","","","",""
"image-selector-fb","152","578447","0.0-37.8-0.8","1921","pics2/SA1.jpg,pics2/VE2.jpg","","","","","","","true","1","","","heartS.png","","",""
"image-slider-2AFC","153","581100","0.0-37.8-1.8","2651","","","","32","","","","","","","","heartS.png","1981","32",""
"html-keyboard-response","154","581853","0.0-37.8-2.8","null","","","","","","","null","","","","","","","",""
"image-selector-fb","155","584860","0.0-37.9-0.9","null","pics2/SW2.jpg,pics2/FR6.jpg","","","","","","","false","null","","","noS.png","","",""
"image-slider-2AFC","156","587598","0.0-37.9-1.9","2736","","","","-59","","","","","","","","sizeS.png","2157","-59",""
"html-keyboard-response","157","588451","0.0-37.9-2.9","null","","","","","","","null","","","","","","","",""
"image-selector-fb","158","590325","0.0-37.10-0.10","1370","pics2/SW5.jpg,pics2/VE3.jpg","","","","","","","false","0","","","heartS.png","","",""
"image-slider-2AFC","159","594763","0.0-37.10-1.10","4435","","","","0","","","","","","","","sizeS.png","3954","0",""
"html-keyboard-response","160","595464","0.0-37.10-2.10","null","","","","","","","null","","","","","","","",""
"image-selector-fb","161","598471","0.0-37.11-0.11","null","pics2/VE3.jpg,pics2/SW3.jpg","","","","","","","false","null","","","noS.png","","",""
"image-slider-2AFC","162","602064","0.0-37.11-1.11","3591","","","","49","","","","","","","","heartS.png","3011","49",""
"html-keyboard-response","163","602916","0.0-37.11-2.11","null","","","","","","","null","","","","","","","",""
"html-button-response","164","605669","0.0-38.0","2751","<i><font size=10>Good job!</font></i> <br><br>Before we begin, you have a chance to review the rules, in case something was not clear.<br><br>","0","","","","","","","","","","","","",""
"instructions","165","612576","0.0-39.0","6906","","","","","","","","","","","","","","","[{""page_index"":0,""viewing_time"":2591},{""page_index"":1,""viewing_time"":2868},{""page_index"":2,""viewing_time"":1446}]"
"html-button-response","166","620555","0.0-40.0","7978","<div style='width: 900px;'> <font size='40'>Great! Now you're ready to begin</font><br><br>The main part of the experiment will consist of <u>3 blocks</u>. Each block consists of 66 decisions and judgements. You will have time for a short break between blocks.<br><br><br><i><u>Do your best to respond within the time limit.</u></i><br><br><i> Press the button to start the experiment<br><br></i>","0","","","","","","","","","","","","",""
"image-selector-fb","167","622406","0.0-41.0-0.0","1347","pics2/VE1.jpg,pics2/FR5.jpg","","","","","","","true","1","","","heartS.png","","",""
"image-slider-2AFC","168","625909","0.0-41.0-1.0","3500","","","","38","","","","","","","","sizeS.png","2910","38",""
"html-keyboard-response","169","626610","0.0-41.0-2.0","null","","","","","","","null","","","","","","","",""
"image-selector-fb","170","628610","0.0-41.1-0.1","1496","pics2/SA4.jpg,pics2/FR4.jpg","","","","","","","true","1","","","heartS.png","","",""
"image-slider-2AFC","171","633615","0.0-41.1-1.1","null","","","","null","","","","","","","","sizeS.png","","",""
"html-keyboard-response","172","634370","0.0-41.1-2.1","null","","","","","","","null","","","","","","","",""
"image-selector-fb","173","636488","0.0-41.2-0.2","1613","pics2/SW6.jpg,pics2/FR1.jpg","","","","","","","false","0","","","heartS.png","","",""
"image-slider-2AFC","174","641492","0.0-41.2-1.2","null","","","","null","","","","","","","","sizeS.png","","",""
"html-keyboard-response","175","642246","0.0-41.2-2.2","null","","","","","","","null","","","","","","","",""
"image-selector-fb","176","644023","0.0-41.3-0.3","1272","pics2/VE1.jpg,pics2/SW1.jpg","","","","","","","true","1","","","heartS.png","","",""
"image-slider-2AFC","177","646277","0.0-41.3-1.3","2252","","","","73","","","","","","","","sizeS.png","1567","73",""
"html-keyboard-response","178","646979","0.0-41.3-2.3","null","","","","","","","null","","","","","","","",""
"image-selector-fb","179","649987","0.0-41.4-0.4","null","pics2/SW6.jpg,pics2/SW1.jpg","","","","","","","false","null","","","noS.png","","",""
"image-slider-2AFC","180","654990","0.0-41.4-1.4","null","","","","null","","","","","","","","heartS.png","4462","50",""
"html-keyboard-response","181","655745","0.0-41.4-2.4","null","","","","","","","null","","","","","","","",""
"image-selector-fb","182","660250","0.0-41.5-0.5","null","pics2/SW1.jpg,pics2/SA2.jpg","","","","","","","false","null","","","sizeS.png","","",""
"image-slider-2AFC","183","660251","0.0-41.5-1.5","null","","","","null","","","","","","","","heartS.png","","",""
"html-keyboard-response","184","661053","0.0-41.5-2.5","null","","","","","","","null","","","","","","","",""
"image-selector-fb","185","663586","0.0-41.6-0.6","2027","pics2/VE1.jpg,pics2/SW6.jpg","","","","","","","false","0","","","sizeS.png","","",""
"image-slider-2AFC","186","665795","0.0-41.6-1.6","2207","","","","-30","","","","","","","","sizeS.png","1580","-30",""
"html-keyboard-response","187","666647","0.0-41.6-2.6","null","","","","","","","null","","","","","","","",""
"image-selector-fb","188","669366","0.0-41.7-0.7","2214","pics2/VE1.jpg,pics2/SA3.jpg","","","","","","","false","0","","","sizeS.png","","",""
"image-slider-2AFC","189","672529","0.0-41.7-1.7","3161","","","","54","","","","","","","","heartS.png","2597","54",""
"html-keyboard-response","190","673381","0.0-41.7-2.7","null","","","","","","","null","","","","","","","",""
"image-selector-fb","191","675250","0.0-41.8-0.8","1364","pics2/SW6.jpg,pics2/VE1.jpg","","","","","","","false","0","","","heartS.png","","",""
"image-slider-2AFC","192","677370","0.0-41.8-1.8","2118","","","","-46","","","","","","","","heartS.png","1233","-46",""
"html-keyboard-response","193","678173","0.0-41.8-2.8","null","","","","","","","null","","","","","","","",""
"image-selector-fb","194","681179","0.0-41.9-0.9","null","pics2/FR4.jpg,pics2/SA4.jpg","","","","","","","false","null","","","noS.png","","",""
"image-slider-2AFC","195","683993","0.0-41.9-1.9","2813","","","","-71","","","","","","","","heartS.png","2273","-71",""
"html-keyboard-response","196","684696","0.0-41.9-2.9","null","","","","","","","null","","","","","","","",""
"image-selector-fb","197","687706","0.0-41.10-0.10","null","pics2/FR4.jpg,pics2/SW1.jpg","","","","","","","false","null","","","noS.png","","",""
"image-slider-2AFC","198","690295","0.0-41.10-1.10","2587","","","","-53","","","","","","","","heartS.png","2056","-53",""
"html-keyboard-response","199","690996","0.0-41.10-2.10","null","","","","","","","null","","","","","","","",""
"image-selector-fb","200","693008","0.0-41.11-0.11","1508","pics2/SA2.jpg,pics2/SW1.jpg","","","","","","","true","1","","","heartS.png","","",""
"image-slider-2AFC","201","695676","0.0-41.11-1.11","2667","","","","76","","","","","","","","sizeS.png","2035","76",""
"html-keyboard-response","202","696529","0.0-41.11-2.11","null","","","","","","","null","","","","","","","",""
"image-selector-fb","203","699538","0.0-41.12-0.12","null","pics2/SA3.jpg,pics2/SA2.jpg","","","","","","","false","null","","","noS.png","","",""
"image-slider-2AFC","204","702789","0.0-41.12-1.12","3249","","","","-64","","","","","","","","heartS.png","2520","-64",""
"html-keyboard-response","205","703640","0.0-41.12-2.12","null","","","","","","","null","","","","","","","",""
"image-selector-fb","206","705909","0.0-41.13-0.13","1764","pics2/SA3.jpg,pics2/SA4.jpg","","","","","","","false","0","","","sizeS.png","","",""
"image-slider-2AFC","207","710852","0.0-41.13-1.13","4941","","","","51","","","","","","","","heartS.png","4374","51",""
"html-keyboard-response","208","711554","0.0-41.13-2.13","null","","","","","","","null","","","","","","","",""
"image-selector-fb","209","714560","0.0-41.14-0.14","null","pics2/FR4.jpg,pics2/SA3.jpg","","","","","","","false","null","","","noS.png","","",""
"image-slider-2AFC","210","717403","0.0-41.14-1.14","2840","","","","-74","","","","","","","","heartS.png","2239","-74",""
"html-keyboard-response","211","718210","0.0-41.14-2.14","null","","","","","","","null","","","","","","","",""
"image-selector-fb","212","720986","0.0-41.15-0.15","2270","pics2/FR5.jpg,pics2/VE5.jpg","","","","","","","false","0","","","sizeS.png","","",""
"image-slider-2AFC","213","724408","0.0-41.15-1.15","3420","","","","-58","","","","","","","","heartS.png","2736","-58",""
"html-keyboard-response","214","725162","0.0-41.15-2.15","null","","","","","","","null","","","","","","","",""
"image-selector-fb","215","727063","0.0-41.16-0.16","1395","pics2/SA2.jpg,pics2/SW6.jpg","","","","","","","true","1","","","heartS.png","","",""
"image-slider-2AFC","216","730052","0.0-41.16-1.16","2980","","","","-19","","","","","","","","sizeS.png","2499","-19",""
"html-keyboard-response","217","730758","0.0-41.16-2.16","null","","","","","","","null","","","","","","","",""
"image-selector-fb","218","733365","0.0-41.17-0.17","2101","pics2/FR3.jpg,pics2/SW1.jpg","","","","","","","true","1","","","sizeS.png","","",""
"image-slider-2AFC","219","736247","0.0-41.17-1.17","2880","","","","41","","","","","","","","sizeS.png","2311","41",""
"html-keyboard-response","220","737053","0.0-41.17-2.17","null","","","","","","","null","","","","","","","",""
"image-selector-fb","221","739289","0.0-41.18-0.18","1731","pics2/SA4.jpg,pics2/VE5.jpg","","","","","","","false","0","","","heartS.png","","",""
"image-slider-2AFC","222","742464","0.0-41.18-1.18","3173","","","","41","","","","","","","","sizeS.png","1717,2154,2623","3,33,41",""
"html-keyboard-response","223","743319","0.0-41.18-2.18","null","","","","","","","null","","","","","","","",""
"image-selector-fb","224","746327","0.0-41.19-0.19","null","pics2/FR4.jpg,pics2/VE1.jpg","","","","","","","false","null","","","noS.png","","",""
"image-slider-2AFC","225","750091","0.0-41.19-1.19","3762","","","","-32","","","","","","","","sizeS.png","2032,3147","-82,-32",""
"html-keyboard-response","226","750796","0.0-41.19-2.19","null","","","","","","","null","","","","","","","",""
"image-selector-fb","227","753520","0.0-41.20-0.20","2219","pics2/FR5.jpg,pics2/SA3.jpg","","","","","","","true","1","","","sizeS.png","","",""
"image-slider-2AFC","228","756597","0.0-41.20-1.20","3076","","","","-58","","","","","","","","heartS.png","2505","-58",""
"html-keyboard-response","229","757300","0.0-41.20-2.20","null","","","","","","","null","","","","","","","",""
"image-selector-fb","230","759286","0.0-41.21-0.21","1482","pics2/FR5.jpg,pics2/FR4.jpg","","","","","","","true","1","","","sizeS.png","","",""
"image-slider-2AFC","231","762179","0.0-41.21-1.21","2892","","","","57","","","","","","","","heartS.png","2198","57",""
"html-keyboard-response","232","762881","0.0-41.21-2.21","null","","","","","","","null","","","","","","","",""
"image-selector-fb","233","765890","0.0-41.22-0.22","null","pics2/VE5.jpg,pics2/SA2.jpg","","","","","","","false","null","","","noS.png","","",""
"image-slider-2AFC","234","768533","0.0-41.22-1.22","2641","","","","-43","","","","","","","","heartS.png","2018","-43",""
"html-keyboard-response","235","769386","0.0-41.22-2.22","null","","","","","","","null","","","","","","","",""
"image-selector-fb","236","770840","0.0-41.23-0.23","949","pics2/SA2.jpg,pics2/FR3.jpg","","","","","","","true","1","","","heartS.png","","",""
"image-slider-2AFC","237","774103","0.0-41.23-1.23","3262","","","","74","","","","","","","","heartS.png","2570","74",""
"html-keyboard-response","238","774906","0.0-41.23-2.23","null","","","","","","","null","","","","","","","",""
"image-selector-fb","239","777913","0.0-41.24-0.24","null","pics2/FR4.jpg,pics2/FR3.jpg","","","","","","","false","null","","","noS.png","","",""
"image-slider-2AFC","240","780366","0.0-41.24-1.24","2451","","","","-69","","","","","","","","heartS.png","1815","-69",""
"html-keyboard-response","241","781219","0.0-41.24-2.24","null","","","","","","","null","","","","","","","",""
"image-selector-fb","242","784224","0.0-41.25-0.25","null","pics2/SA4.jpg,pics2/SW6.jpg","","","","","","","false","null","","","noS.png","","",""
"image-slider-2AFC","243","787369","0.0-41.25-1.25","3143","","","","31","","","","","","","","sizeS.png","2341","31",""
"html-keyboard-response","244","788174","0.0-41.25-2.25","null","","","","","","","null","","","","","","","",""
"image-selector-fb","245","791181","0.0-41.26-0.26","null","pics2/FR4.jpg,pics2/FR1.jpg","","","","","","","false","null","","","noS.png","","",""
"image-slider-2AFC","246","794248","0.0-41.26-1.26","3065","","","","-32","","","","","","","","sizeS.png","2496","-32",""
"html-keyboard-response","247","795102","0.0-41.26-2.26","null","","","","","","","null","","","","","","","",""
"image-selector-fb","248","798109","0.0-41.27-0.27","null","pics2/FR4.jpg,pics2/VE5.jpg","","","","","","","false","null","","","noS.png","","",""
"image-slider-2AFC","249","800410","0.0-41.27-1.27","2299","","","","-32","","","","","","","","sizeS.png","1646","-32",""
"html-keyboard-response","250","801163","0.0-41.27-2.27","null","","","","","","","null","","","","","","","",""
"image-selector-fb","251","804171","0.0-41.28-0.28","null","pics2/SA4.jpg,pics2/SA3.jpg","","","","","","","false","null","","","noS.png","","",""
"image-slider-2AFC","252","806528","0.0-41.28-1.28","2356","","","","-61","","","","","","","","heartS.png","1711","-61",""
"html-keyboard-response","253","807231","0.0-41.28-2.28","null","","","","","","","null","","","","","","","",""
"image-selector-fb","254","810237","0.0-41.29-0.29","null","pics2/FR2.jpg,pics2/VE1.jpg","","","","","","","false","null","","","noS.png","","",""
"image-slider-2AFC","255","813068","0.0-41.29-1.29","2829","","","","-66","","","","","","","","sizeS.png","2044","-66",""
"html-keyboard-response","256","813819","0.0-41.29-2.29","null","","","","","","","null","","","","","","","",""
"image-selector-fb","257","816311","0.0-41.30-0.30","1987","pics2/FR1.jpg,pics2/SA2.jpg","","","","","","","false","0","","","sizeS.png","","",""
"image-slider-2AFC","258","819161","0.0-41.30-1.30","2847","","","","-59","","","","","","","","sizeS.png","2179","-59",""
"html-keyboard-response","259","819863","0.0-41.30-2.30","null","","","","","","","null","","","","","","","",""
"image-selector-fb","260","822566","0.0-41.31-0.31","2198","pics2/FR2.jpg,pics2/SA3.jpg","","","","","","","false","0","","","sizeS.png","","",""
"image-slider-2AFC","261","825300","0.0-41.31-1.31","2732","","","","-40","","","","","","","","sizeS.png","1878","-40",""
"html-keyboard-response","262","826153","0.0-41.31-2.31","null","","","","","","","null","","","","","","","",""
"image-selector-fb","263","828678","0.0-41.32-0.32","2021","pics2/VE1.jpg,pics2/SA2.jpg","","","","","","","false","0","","","sizeS.png","","",""
"image-slider-2AFC","264","830976","0.0-41.32-1.32","2296","","","","-27","","","","","","","","sizeS.png","1738","-27",""
"html-keyboard-response","265","831829","0.0-41.32-2.32","null","","","","","","","null","","","","","","","",""
"image-selector-fb","266","834025","0.0-41.33-0.33","1693","pics2/FR4.jpg,pics2/FR5.jpg","","","","","","","false","0","","","heartS.png","","",""
"image-slider-2AFC","267","839027","0.0-41.33-1.33","null","","","","null","","","","","","","","sizeS.png","2200,4698","-61,-49",""
"html-keyboard-response","268","839831","0.0-41.33-2.33","null","","","","","","","null","","","","","","","",""
"image-selector-fb","269","842106","0.0-41.34-0.34","1770","pics2/FR5.jpg,pics2/FR3.jpg","","","","","","","true","1","","","heartS.png","","",""
"image-slider-2AFC","270","844530","0.0-41.34-1.34","2422","","","","20","","","","","","","","heartS.png","1590","20",""
"html-keyboard-response","271","845332","0.0-41.34-2.34","null","","","","","","","null","","","","","","","",""
"image-selector-fb","272","847012","0.0-41.35-0.35","1175","pics2/SW1.jpg,pics2/SA3.jpg","","","","","","","false","0","","","sizeS.png","","",""
"image-slider-2AFC","273","849224","0.0-41.35-1.35","2211","","","","-58","","","","","","","","sizeS.png","1551","-58",""
"html-keyboard-response","274","850026","0.0-41.35-2.35","null","","","","","","","null","","","","","","","",""
"image-selector-fb","275","853032","0.0-41.36-0.36","null","pics2/FR3.jpg,pics2/SA4.jpg","","","","","","","false","null","","","noS.png","","",""
"image-slider-2AFC","276","855882","0.0-41.36-1.36","2847","","","","-30","","","","","","","","sizeS.png","2224","-30",""
"html-keyboard-response","277","856584","0.0-41.36-2.36","null","","","","","","","null","","","","","","","",""
"image-selector-fb","278","858043","0.0-41.37-0.37","953","pics2/SW1.jpg,pics2/FR2.jpg","","","","","","","false","0","","","heartS.png","","",""
"image-slider-2AFC","279","860890","0.0-41.37-1.37","2844","","","","-38","","","","","","","","sizeS.png","1693,2204","-71,-38",""
"html-keyboard-response","280","861742","0.0-41.37-2.37","null","","","","","","","null","","","","","","","",""
"image-selector-fb","281","864747","0.0-41.38-0.38","null","pics2/FR1.jpg,pics2/SA2.jpg","","","","","","","false","null","","","noS.png","","",""
"image-slider-2AFC","282","867418","0.0-41.38-1.38","2669","","","","-35","","","","","","","","heartS.png","1830","-35",""
"html-keyboard-response","283","868174","0.0-41.38-2.38","null","","","","","","","null","","","","","","","",""
"image-selector-fb","284","871182","0.0-41.39-0.39","null","pics2/SW6.jpg,pics2/SA3.jpg","","","","","","","false","null","","","noS.png","","",""
"image-slider-2AFC","285","873430","0.0-41.39-1.39","2245","","","","-54","","","","","","","","heartS.png","1536","-54",""
"html-keyboard-response","286","874232","0.0-41.39-2.39","null","","","","","","","null","","","","","","","",""
"image-selector-fb","287","876054","0.0-41.40-0.40","1318","pics2/SA4.jpg,pics2/SA2.jpg","","","","","","","false","0","","","heartS.png","","",""
"image-slider-2AFC","288","878009","0.0-41.40-1.40","1953","","","","-55","","","","","","","","heartS.png","1111","-55",""
"html-keyboard-response","289","878810","0.0-41.40-2.40","null","","","","","","","null","","","","","","","",""
"image-selector-fb","290","880395","0.0-41.41-0.41","1080","pics2/FR4.jpg,pics2/SA2.jpg","","","","","","","false","0","","","sizeS.png","","",""
"image-slider-2AFC","291","882087","0.0-41.41-1.41","1689","","","","-63","","","","","","","","sizeS.png","1059","-63",""
"html-keyboard-response","292","882939","0.0-41.41-2.41","null","","","","","","","null","","","","","","","",""
"image-selector-fb","293","885945","0.0-41.42-0.42","null","pics2/VE1.jpg,pics2/SA2.jpg","","","","","","","false","null","","","noS.png","","",""
"image-slider-2AFC","294","889197","0.0-41.42-1.42","3250","","","","-30","","","","","","","","sizeS.png","2664","-30",""
"html-keyboard-response","295","889950","0.0-41.42-2.42","null","","","","","","","null","","","","","","","",""
"image-selector-fb","296","891922","0.0-41.43-0.43","1466","pics2/SA3.jpg,pics2/FR4.jpg","","","","","","","true","1","","","heartS.png","","",""
"image-slider-2AFC","297","896924","0.0-41.43-1.43","null","","","","null","","","","","","","","sizeS.png","4847","32",""
"html-keyboard-response","298","897727","0.0-41.43-2.43","null","","","","","","","null","","","","","","","",""
"image-selector-fb","299","899864","0.0-41.44-0.44","1631","pics2/FR1.jpg,pics2/FR3.jpg","","","","","","","true","1","","","heartS.png","","",""
"image-slider-2AFC","300","902605","0.0-41.44-1.44","2738","","","","72","","","","","","","","heartS.png","1896","72",""
"html-keyboard-response","301","903307","0.0-41.44-2.44","null","","","","","","","null","","","","","","","",""
"image-selector-fb","302","905602","0.0-41.45-0.45","1790","pics2/VE5.jpg,pics2/VE1.jpg","","","","","","","true","1","","","heartS.png","","",""
"image-slider-2AFC","303","907384","0.0-41.45-1.45","1780","","","","33","","","","","","","","heartS.png","1242","33",""
"html-keyboard-response","304","908138","0.0-41.45-2.45","null","","","","","","","null","","","","","","","",""
"image-selector-fb","305","910110","0.0-41.46-0.46","1467","pics2/VE5.jpg,pics2/SA2.jpg","","","","","","","false","0","","","sizeS.png","","",""
"image-slider-2AFC","306","912559","0.0-41.46-1.46","2447","","","","-24","","","","","","","","heartS.png","1745","-24",""
"html-keyboard-response","307","913260","0.0-41.46-2.46","null","","","","","","","null","","","","","","","",""
"image-selector-fb","308","915177","0.0-41.47-0.47","1413","pics2/FR3.jpg,pics2/FR5.jpg","","","","","","","true","1","","","sizeS.png","","",""
"image-slider-2AFC","309","918390","0.0-41.47-1.47","3210","","","","17","","","","","","","","sizeS.png","2731","17",""
"html-keyboard-response","310","919098","0.0-41.47-2.47","null","","","","","","","null","","","","","","","",""
"image-selector-fb","311","922208","0.0-41.48-0.48","2605","pics2/FR3.jpg,pics2/VE1.jpg","","","","","","","false","0","","","sizeS.png","","",""
"image-slider-2AFC","312","924222","0.0-41.48-1.48","2013","","","","-34","","","","","","","","sizeS.png","1350","-34",""
"html-keyboard-response","313","924925","0.0-41.48-2.48","null","","","","","","","null","","","","","","","",""
"image-selector-fb","314","927930","0.0-41.49-0.49","null","pics2/FR3.jpg,pics2/SW6.jpg","","","","","","","false","null","","","noS.png","","",""
"image-slider-2AFC","315","930930","0.0-41.49-1.49","2998","","","","48","","","","","","","","heartS.png","2439","48",""
"html-keyboard-response","316","931685","0.0-41.49-2.49","null","","","","","","","null","","","","","","","",""
"image-selector-fb","317","934696","0.0-41.50-0.50","null","pics2/FR4.jpg,pics2/SW6.jpg","","","","","","","false","null","","","noS.png","","",""
"image-slider-2AFC","318","936649","0.0-41.50-1.50","1950","","","","-54","","","","","","","","sizeS.png","1446","-54",""
"html-keyboard-response","319","937404","0.0-41.50-2.50","null","","","","","","","null","","","","","","","",""
"image-selector-fb","320","940412","0.0-41.51-0.51","null","pics2/VE5.jpg,pics2/SW1.jpg","","","","","","","false","null","","","noS.png","","",""
"image-slider-2AFC","321","942578","0.0-41.51-1.51","2164","","","","64","","","","","","","","sizeS.png","1499","64",""
"html-keyboard-response","322","943330","0.0-41.51-2.51","null","","","","","","","null","","","","","","","",""
"image-selector-fb","323","945087","0.0-41.52-0.52","1252","pics2/SW6.jpg,pics2/FR2.jpg","","","","","","","false","0","","","heartS.png","","",""
"image-slider-2AFC","324","948617","0.0-41.52-1.52","3529","","","","58","","","","","","","","sizeS.png","2620","58",""
"html-keyboard-response","325","949319","0.0-41.52-2.52","null","","","","","","","null","","","","","","","",""
"image-selector-fb","326","952324","0.0-41.53-0.53","null","pics2/FR5.jpg,pics2/FR3.jpg","","","","","","","false","null","","","noS.png","","",""
"image-slider-2AFC","327","955779","0.0-41.53-1.53","3452","","","","-40","","","","","","","","heartS.png","2760","-40",""
"html-keyboard-response","328","956532","0.0-41.53-2.53","null","","","","","","","null","","","","","","","",""
"image-selector-fb","329","959123","0.0-41.54-0.54","2087","pics2/FR3.jpg,pics2/FR1.jpg","","","","","","","true","1","","","sizeS.png","","",""
"image-slider-2AFC","330","961915","0.0-41.54-1.54","2790","","","","-33","","","","","","","","heartS.png","2118","-33",""
"html-keyboard-response","331","962618","0.0-41.54-2.54","null","","","","","","","null","","","","","","","",""
"image-selector-fb","332","964624","0.0-41.55-0.55","1501","pics2/FR5.jpg,pics2/SW6.jpg","","","","","","","false","0","","","sizeS.png","","",""
"image-slider-2AFC","333","966474","0.0-41.55-1.55","1848","","","","-38","","","","","","","","sizeS.png","976","-38",""
"html-keyboard-response","334","967276","0.0-41.55-2.55","null","","","","","","","null","","","","","","","",""
"image-selector-fb","335","969264","0.0-41.56-0.56","1484","pics2/SA2.jpg,pics2/VE5.jpg","","","","","","","true","1","","","heartS.png","","",""
"image-slider-2AFC","336","971131","0.0-41.56-1.56","1865","","","","56","","","","","","","","heartS.png","1096","56",""
"html-keyboard-response","337","971882","0.0-41.56-2.56","null","","","","","","","null","","","","","","","",""
"image-selector-fb","338","974889","0.0-41.57-0.57","null","pics2/FR1.jpg,pics2/FR2.jpg","","","","","","","false","null","","","noS.png","","",""
"image-slider-2AFC","339","979653","0.0-41.57-1.57","4761","","","","29","","","","","","","","sizeS.png","2832,3784","52,29",""
"html-keyboard-response","340","980356","0.0-41.57-2.57","null","","","","","","","null","","","","","","","",""
"image-selector-fb","341","982011","0.0-41.58-0.58","1151","pics2/FR3.jpg,pics2/SA2.jpg","","","","","","","false","0","","","sizeS.png","","",""
"image-slider-2AFC","342","983558","0.0-41.58-1.58","1546","","","","-52","","","","","","","","sizeS.png","871","-52",""
"html-keyboard-response","343","984361","0.0-41.58-2.58","null","","","","","","","null","","","","","","","",""
"image-selector-fb","344","987368","0.0-41.59-0.59","null","pics2/SA4.jpg,pics2/VE5.jpg","","","","","","","false","null","","","noS.png","","",""
"image-slider-2AFC","345","990093","0.0-41.59-1.59","2723","","","","46","","","","","","","","sizeS.png","1761","46",""
"html-keyboard-response","346","990897","0.0-41.59-2.59","null","","","","","","","null","","","","","","","",""
"image-selector-fb","347","993047","0.0-41.60-0.60","1646","pics2/FR3.jpg,pics2/FR4.jpg","","","","","","","false","0","","","sizeS.png","","",""
"image-slider-2AFC","348","995432","0.0-41.60-1.60","2384","","","","69","","","","","","","","heartS.png","1588","69",""
"html-keyboard-response","349","996135","0.0-41.60-2.60","null","","","","","","","null","","","","","","","",""
"image-selector-fb","350","997994","0.0-41.61-0.61","1353","pics2/VE1.jpg,pics2/SA4.jpg","","","","","","","false","0","","","sizeS.png","","",""
"image-slider-2AFC","351","1000135","0.0-41.61-1.61","2140","","","","-61","","","","","","","","sizeS.png","1388","-61",""
"html-keyboard-response","352","1000887","0.0-41.61-2.61","null","","","","","","","null","","","","","","","",""
"image-selector-fb","353","1002967","0.0-41.62-0.62","1577","pics2/FR4.jpg,pics2/FR3.jpg","","","","","","","false","0","","","heartS.png","","",""
"image-slider-2AFC","354","1004735","0.0-41.62-1.62","1766","","","","-75","","","","","","","","heartS.png","1217","-75",""
"html-keyboard-response","355","1005590","0.0-41.62-2.62","null","","","","","","","null","","","","","","","",""
"image-selector-fb","356","1007097","0.0-41.63-0.63","1001","pics2/FR1.jpg,pics2/SW1.jpg","","","","","","","true","1","","","heartS.png","","",""
"image-slider-2AFC","357","1010408","0.0-41.63-1.63","3309","","","","68","","","","","","","","sizeS.png","2355","68",""
"html-keyboard-response","358","1011161","0.0-41.63-2.63","null","","","","","","","null","","","","","","","",""
"image-selector-fb","359","1013681","0.0-41.64-0.64","2014","pics2/FR2.jpg,pics2/VE1.jpg","","","","","","","false","0","","","sizeS.png","","",""
"image-slider-2AFC","360","1016035","0.0-41.64-1.64","2351","","","","-44","","","","","","","","heartS.png","1909","-44",""
"html-keyboard-response","361","1016839","0.0-41.64-2.64","null","","","","","","","null","","","","","","","",""
"image-selector-fb","362","1019197","0.0-41.65-0.65","1853","pics2/FR2.jpg,pics2/SA2.jpg","","","","","","","false","0","","","sizeS.png","","",""
"image-slider-2AFC","363","1021203","0.0-41.65-1.65","2004","","","","-48","","","","","","","","heartS.png","1425","-48",""
"html-keyboard-response","364","1021956","0.0-41.65-2.65","null","","","","","","","null","","","","","","","",""
"pavlovia","365","1021974","0.0-42.0","","","","","","","","","","","","","","","",""
"html-keyboard-response","366","1026977","0.0-43.0","null","<div style='width: 700px;'> <font size=6><b>SHORT BREAK</font></b><br><br><i> Please wait 5 seconds to continue</i></div> ","","","","","","null","","","","","","","",""
"pavlovia","367","1026979","0.0-44.0","","","","","","","","","","","","","","","",""
"html-button-response","368","1036874","0.0-45.0","9894","<div style='width: 700px;'> <font size=6><b>BLOCK 2</font></b><br><br>Press the button whenever you feel ready to start the second block (there are 3 in total)</div>","0","","","","","","","","","","","","",""
"image-selector-fb","369","1039271","0.0-46.0-0.0","1892","pics2/FR5.jpg,pics2/SW1.jpg","","","","","","","true","1","","","sizeS.png","","",""
"image-slider-2AFC","370","1040967","0.0-46.0-1.0","1692","","","","29","","","","","","","","sizeS.png","1070","29",""
"html-keyboard-response","371","1041670","0.0-46.0-2.0","null","","","","","","","null","","","","","","","",""
"image-selector-fb","372","1043094","0.0-46.1-0.1","920","pics2/FR2.jpg,pics2/SW6.jpg","","","","","","","false","0","","","sizeS.png","","",""
"image-slider-2AFC","373","1044711","0.0-46.1-1.1","1615","","","","40","","","","","","","","heartS.png","1015","40",""
"html-keyboard-response","374","1045563","0.0-46.1-2.1","null","","","","","","","null","","","","","","","",""
"image-selector-fb","375","1047346","0.0-46.2-0.2","1277","pics2/SA3.jpg,pics2/VE5.jpg","","","","","","","true","1","","","heartS.png","","",""
"image-slider-2AFC","376","1049939","0.0-46.2-1.2","2592","","","","-14","","","","","","","","sizeS.png","2087","-14",""
"html-keyboard-response","377","1050690","0.0-46.2-2.2","null","","","","","","","null","","","","","","","",""
"image-selector-fb","378","1053700","0.0-46.3-0.3","null","pics2/SA3.jpg,pics2/VE1.jpg","","","","","","","false","null","","","noS.png","","",""
"image-slider-2AFC","379","1056726","0.0-46.3-1.3","3024","","","","-37","","","","","","","","heartS.png","1939,2355","-60,-37",""
"html-keyboard-response","380","1057433","0.0-46.3-2.3","null","","","","","","","null","","","","","","","",""
"image-selector-fb","381","1058922","0.0-46.4-0.4","984","pics2/VE1.jpg,pics2/FR2.jpg","","","","","","","true","1","","","heartS.png","","",""
"image-slider-2AFC","382","1061099","0.0-46.4-1.4","2176","","","","29","","","","","","","","heartS.png","1606","29",""
"html-keyboard-response","383","1061906","0.0-46.4-2.4","null","","","","","","","null","","","","","","","",""
"image-selector-fb","384","1063949","0.0-46.5-0.5","1538","pics2/FR1.jpg,pics2/FR2.jpg","","","","","","","true","1","","","heartS.png","","",""
"image-slider-2AFC","385","1065832","0.0-46.5-1.5","1881","","","","35","","","","","","","","heartS.png","1225","35",""
"html-keyboard-response","386","1066584","0.0-46.5-2.5","null","","","","","","","null","","","","","","","",""
"image-selector-fb","387","1068198","0.0-46.6-0.6","1109","pics2/FR4.jpg,pics2/SA3.jpg","","","","","","","false","0","","","sizeS.png","","",""
"image-slider-2AFC","388","1071029","0.0-46.6-1.6","2825","","","","-42","","","","","","","","heartS.png","2111","-42",""
"html-keyboard-response","389","1071783","0.0-46.6-2.6","null","","","","","","","null","","","","","","","",""
"image-selector-fb","390","1074794","0.0-46.7-0.7","null","pics2/FR3.jpg,pics2/VE1.jpg","","","","","","","false","null","","","noS.png","","",""
"image-slider-2AFC","391","1077407","0.0-46.7-1.7","2610","","","","-48","","","","","","","","heartS.png","2158","-48",""
"html-keyboard-response","392","1078260","0.0-46.7-2.7","null","","","","","","","null","","","","","","","",""
"image-selector-fb","393","1081271","0.0-46.8-0.8","null","pics2/VE5.jpg,pics2/VE1.jpg","","","","","","","false","null","","","noS.png","","",""
"image-slider-2AFC","394","1083848","0.0-46.8-1.8","2574","","","","-44","","","","","","","","heartS.png","1953","-44",""
"html-keyboard-response","395","1084549","0.0-46.8-2.8","null","","","","","","","null","","","","","","","",""
"image-selector-fb","396","1086463","0.0-46.9-0.9","1409","pics2/FR4.jpg,pics2/SW1.jpg","","","","","","","false","0","","","heartS.png","","",""
"image-slider-2AFC","397","1089267","0.0-46.9-1.9","2802","","","","-7","","","","","","","","sizeS.png","2284","-7",""
"html-keyboard-response","398","1090022","0.0-46.9-2.9","null","","","","","","","null","","","","","","","",""
"image-selector-fb","399","1092383","0.0-46.10-0.10","1856","pics2/FR1.jpg,pics2/VE1.jpg","","","","","","","false","0","","","sizeS.png","","",""
"image-slider-2AFC","400","1096691","0.0-46.10-1.10","4305","","","","-26","","","","","","","","sizeS.png","3782","-26",""
"html-keyboard-response","401","1097494","0.0-46.10-2.10","null","","","","","","","null","","","","","","","",""
"image-selector-fb","402","1100734","0.0-46.11-0.11","2734","pics2/VE1.jpg,pics2/FR3.jpg","","","","","","","true","1","","","heartS.png","","",""
"image-slider-2AFC","403","1103683","0.0-46.11-1.11","2947","","","","68","","","","","","","","heartS.png","2134","68",""
"html-keyboard-response","404","1104386","0.0-46.11-2.11","null","","","","","","","null","","","","","","","",""
"image-selector-fb","405","1107392","0.0-46.12-0.12","null","pics2/FR1.jpg,pics2/VE5.jpg","","","","","","","false","null","","","noS.png","","",""
"image-slider-2AFC","406","1109517","0.0-46.12-1.12","2123","","","","40","","","","","","","","heartS.png","1525","40",""
"html-keyboard-response","407","1110220","0.0-46.12-2.12","null","","","","","","","null","","","","","","","",""
"image-selector-fb","408","1112574","0.0-46.13-0.13","1844","pics2/VE1.jpg,pics2/FR4.jpg","","","","","","","true","1","","","sizeS.png","","",""
"image-slider-2AFC","409","1115012","0.0-46.13-1.13","2435","","","","75","","","","","","","","heartS.png","1771","75",""
"html-keyboard-response","410","1115715","0.0-46.13-2.13","null","","","","","","","null","","","","","","","",""
"image-selector-fb","411","1118844","0.0-46.14-0.14","2621","pics2/FR2.jpg,pics2/SA4.jpg","","","","","","","false","0","","","sizeS.png","","",""
"image-slider-2AFC","412","1121505","0.0-46.14-1.14","2658","","","","42","","","","","","","","heartS.png","1700","42",""
"html-keyboard-response","413","1122208","0.0-46.14-2.14","null","","","","","","","null","","","","","","","",""
"image-selector-fb","414","1125217","0.0-46.15-0.15","null","pics2/SW6.jpg,pics2/SA2.jpg","","","","","","","false","null","","","noS.png","","",""
"image-slider-2AFC","415","1128011","0.0-46.15-1.15","2791","","","","38","","","","","","","","sizeS.png","1877","38",""
"html-keyboard-response","416","1128814","0.0-46.15-2.15","null","","","","","","","null","","","","","","","",""
"image-selector-fb","417","1131325","0.0-46.16-0.16","2006","pics2/SA2.jpg,pics2/SA4.jpg","","","","","","","true","1","","","sizeS.png","","",""
"image-slider-2AFC","418","1133920","0.0-46.16-1.16","2592","","","","13","","","","","","","","sizeS.png","2206","13",""
"html-keyboard-response","419","1134624","0.0-46.16-2.16","null","","","","","","","null","","","","","","","",""
"image-selector-fb","420","1136605","0.0-46.17-0.17","1477","pics2/VE5.jpg,pics2/SA3.jpg","","","","","","","true","1","","","sizeS.png","","",""
"image-slider-2AFC","421","1138769","0.0-46.17-1.17","2163","","","","30","","","","","","","","sizeS.png","1678","30",""
"html-keyboard-response","422","1139622","0.0-46.17-2.17","null","","","","","","","null","","","","","","","",""
"image-selector-fb","423","1142190","0.0-46.18-0.18","2062","pics2/SW1.jpg,pics2/FR4.jpg","","","","","","","false","0","","","sizeS.png","","",""
"image-slider-2AFC","424","1144487","0.0-46.18-1.18","2295","","","","-15","","","","","","","","sizeS.png","1797","-15",""
"html-keyboard-response","425","1145190","0.0-46.18-2.18","null","","","","","","","null","","","","","","","",""
"image-selector-fb","426","1146851","0.0-46.19-0.19","1158","pics2/SA3.jpg,pics2/VE1.jpg","","","","","","","false","0","","","heartS.png","","",""
"image-slider-2AFC","427","1149006","0.0-46.19-1.19","2153","","","","-59","","","","","","","","heartS.png","1528","-59",""
"html-keyboard-response","428","1149862","0.0-46.19-2.19","null","","","","","","","null","","","","","","","",""
"image-selector-fb","429","1151979","0.0-46.20-0.20","1608","pics2/SA2.jpg,pics2/FR1.jpg","","","","","","","true","1","","","heartS.png","","",""
"image-slider-2AFC","430","1154028","0.0-46.20-1.20","2046","","","","54","","","","","","","","heartS.png","1478","54",""
"html-keyboard-response","431","1154831","0.0-46.20-2.20","null","","","","","","","null","","","","","","","",""
"image-selector-fb","432","1157094","0.0-46.21-0.21","1755","pics2/VE1.jpg,pics2/FR1.jpg","","","","","","","true","1","","","heartS.png","","",""
"image-slider-2AFC","433","1159175","0.0-46.21-1.21","2077","","","","42","","","","","","","","heartS.png","1441","42",""
"html-keyboard-response","434","1159927","0.0-46.21-2.21","null","","","","","","","null","","","","","","","",""
"image-selector-fb","435","1161419","0.0-46.22-0.22","988","pics2/FR4.jpg,pics2/VE5.jpg","","","","","","","false","0","","","heartS.png","","",""
"image-slider-2AFC","436","1163032","0.0-46.22-1.22","1612","","","","-69","","","","","","","","heartS.png","1054","-69",""
"html-keyboard-response","437","1163785","0.0-46.22-2.22","null","","","","","","","null","","","","","","","",""
"image-selector-fb","438","1166793","0.0-46.23-0.23","null","pics2/FR3.jpg,pics2/VE5.jpg","","","","","","","false","null","","","noS.png","","",""
"image-slider-2AFC","439","1169231","0.0-46.23-1.23","2435","","","","-67","","","","","","","","heartS.png","1581","-67",""
"html-keyboard-response","440","1169984","0.0-46.23-2.23","null","","","","","","","null","","","","","","","",""
"image-selector-fb","441","1172998","0.0-46.24-0.24","null","pics2/SW6.jpg,pics2/FR2.jpg","","","","","","","false","null","","","noS.png","","",""
"image-slider-2AFC","442","1176117","0.0-46.24-1.24","3117","","","","-60","","","","","","","","heartS.png","2530","-60",""
"html-keyboard-response","443","1176971","0.0-46.24-2.24","null","","","","","","","null","","","","","","","",""
"image-selector-fb","444","1179979","0.0-46.25-0.25","null","pics2/FR5.jpg,pics2/SA4.jpg","","","","","","","false","null","","","noS.png","","",""
"image-slider-2AFC","445","1182473","0.0-46.25-1.25","2493","","","","-61","","","","","","","","heartS.png","1795","-61",""
"html-keyboard-response","446","1183327","0.0-46.25-2.25","null","","","","","","","null","","","","","","","",""
"image-selector-fb","447","1186335","0.0-46.26-0.26","null","pics2/FR1.jpg,pics2/SW1.jpg","","","","","","","false","null","","","noS.png","","",""
"image-slider-2AFC","448","1189303","0.0-46.26-1.26","2964","","","","-26","","","","","","","","sizeS.png","2462","-26",""
"html-keyboard-response","449","1190106","0.0-46.26-2.26","null","","","","","","","null","","","","","","","",""
"image-selector-fb","450","1192042","0.0-46.27-0.27","1430","pics2/SW6.jpg,pics2/FR5.jpg","","","","","","","false","0","","","heartS.png","","",""
"image-slider-2AFC","451","1193694","0.0-46.27-1.27","1649","","","","-55","","","","","","","","heartS.png","1098","-55",""
"html-keyboard-response","452","1194397","0.0-46.27-2.27","null","","","","","","","null","","","","","","","",""
"image-selector-fb","453","1196319","0.0-46.28-0.28","1417","pics2/FR2.jpg,pics2/FR1.jpg","","","","","","","false","0","","","sizeS.png","","",""
"image-slider-2AFC","454","1198509","0.0-46.28-1.28","2188","","","","-41","","","","","","","","sizeS.png","1672","-41",""
"html-keyboard-response","455","1199262","0.0-46.28-2.28","null","","","","","","","null","","","","","","","",""
"image-selector-fb","456","1201240","0.0-46.29-0.29","1470","pics2/FR3.jpg,pics2/SA4.jpg","","","","","","","false","0","","","sizeS.png","","",""
"image-slider-2AFC","457","1202971","0.0-46.29-1.29","1729","","","","-35","","","","","","","","sizeS.png","1078","-35",""
"html-keyboard-response","458","1203672","0.0-46.29-2.29","null","","","","","","","null","","","","","","","",""
"image-selector-fb","459","1205175","0.0-46.30-0.30","998","pics2/SA2.jpg,pics2/FR5.jpg","","","","","","","true","1","","","heartS.png","","",""
"image-slider-2AFC","460","1207699","0.0-46.30-1.30","2522","","","","30","","","","","","","","sizeS.png","2113","30",""
"html-keyboard-response","461","1208552","0.0-46.30-2.30","null","","","","","","","null","","","","","","","",""
"image-selector-fb","462","1211562","0.0-46.31-0.31","null","pics2/FR1.jpg,pics2/SA4.jpg","","","","","","","false","null","","","noS.png","","",""
"image-slider-2AFC","463","1214286","0.0-46.31-1.31","2722","","","","-36","","","","","","","","sizeS.png","2169","-36",""
"html-keyboard-response","464","1215140","0.0-46.31-2.31","null","","","","","","","null","","","","","","","",""
"image-selector-fb","465","1217425","0.0-46.32-0.32","1780","pics2/VE5.jpg,pics2/FR2.jpg","","","","","","","true","1","","","heartS.png","","",""
"image-slider-2AFC","466","1220523","0.0-46.32-1.32","3094","","","","35","","","","","","","","sizeS.png","2600","35",""
"html-keyboard-response","467","1221225","0.0-46.32-2.32","null","","","","","","","null","","","","","","","",""
"image-selector-fb","468","1223366","0.0-46.33-0.33","1634","pics2/FR5.jpg,pics2/FR2.jpg","","","","","","","true","1","","","sizeS.png","","",""
"image-slider-2AFC","469","1225333","0.0-46.33-1.33","1964","","","","-27","","","","","","","","heartS.png","1536","-27",""
"html-keyboard-response","470","1226036","0.0-46.33-2.33","null","","","","","","","null","","","","","","","",""
"image-selector-fb","471","1227796","0.0-46.34-0.34","1256","pics2/FR2.jpg,pics2/FR5.jpg","","","","","","","true","1","","","heartS.png","","",""
"image-slider-2AFC","472","1230367","0.0-46.34-1.34","2569","","","","32","","","","","","","","heartS.png","2161","32",""
"html-keyboard-response","473","1231222","0.0-46.34-2.34","null","","","","","","","null","","","","","","","",""
"image-selector-fb","474","1233681","0.0-46.35-0.35","1953","pics2/FR2.jpg,pics2/FR3.jpg","","","","","","","true","1","","","heartS.png","","",""
"image-slider-2AFC","475","1236498","0.0-46.35-1.35","2815","","","","-48","","","","","","","","sizeS.png","2309","-48",""
"html-keyboard-response","476","1237352","0.0-46.35-2.35","null","","","","","","","null","","","","","","","",""
"image-selector-fb","477","1239195","0.0-46.36-0.36","1337","pics2/VE5.jpg,pics2/FR4.jpg","","","","","","","true","1","","","sizeS.png","","",""
"image-slider-2AFC","478","1242177","0.0-46.36-1.36","2979","","","","48","","","","","","","","sizeS.png","2386","48",""
"html-keyboard-response","479","1242880","0.0-46.36-2.36","null","","","","","","","null","","","","","","","",""
"image-selector-fb","480","1244828","0.0-46.37-0.37","1442","pics2/SW1.jpg,pics2/FR1.jpg","","","","","","","true","1","","","sizeS.png","","",""
"image-slider-2AFC","481","1246359","0.0-46.37-1.37","1530","","","","34","","","","","","","","sizeS.png","1067","34",""
"html-keyboard-response","482","1247064","0.0-46.37-2.37","null","","","","","","","null","","","","","","","",""
"image-selector-fb","483","1250071","0.0-46.38-0.38","null","pics2/FR5.jpg,pics2/VE1.jpg","","","","","","","false","null","","","noS.png","","",""
"image-slider-2AFC","484","1253039","0.0-46.38-1.38","2966","","","","-36","","","","","","","","sizeS.png","2459","-36",""
"html-keyboard-response","485","1253895","0.0-46.38-2.38","null","","","","","","","null","","","","","","","",""
"image-selector-fb","486","1255853","0.0-46.39-0.39","1453","pics2/FR2.jpg,pics2/FR4.jpg","","","","","","","false","0","","","sizeS.png","","",""
"image-slider-2AFC","487","1257339","0.0-46.39-1.39","1485","","","","-29","","","","","","","","sizeS.png","1022","-29",""
"html-keyboard-response","488","1258041","0.0-46.39-2.39","null","","","","","","","null","","","","","","","",""
"image-selector-fb","489","1261051","0.0-46.40-0.40","null","pics2/FR5.jpg,pics2/SA3.jpg","","","","","","","false","null","","","noS.png","","",""
"image-slider-2AFC","490","1263118","0.0-46.40-1.40","2063","","","","-48","","","","","","","","heartS.png","1635","-48",""
"html-keyboard-response","491","1263871","0.0-46.40-2.40","null","","","","","","","null","","","","","","","",""
"image-selector-fb","492","1266880","0.0-46.41-0.41","null","pics2/FR2.jpg,pics2/SA2.jpg","","","","","","","false","null","","","noS.png","","",""
"image-slider-2AFC","493","1270680","0.0-46.41-1.41","3797","","","","-47","","","","","","","","sizeS.png","1255,3224","-37,-47",""
"html-keyboard-response","494","1271387","0.0-46.41-2.41","null","","","","","","","null","","","","","","","",""
"image-selector-fb","495","1273295","0.0-46.42-0.42","1404","pics2/VE5.jpg,pics2/FR5.jpg","","","","","","","true","1","","","heartS.png","","",""
"image-slider-2AFC","496","1274734","0.0-46.42-1.42","1437","","","","41","","","","","","","","heartS.png","919","41",""
"html-keyboard-response","497","1275486","0.0-46.42-2.42","null","","","","","","","null","","","","","","","",""
"image-selector-fb","498","1278496","0.0-46.43-0.43","null","pics2/SA4.jpg,pics2/FR2.jpg","","","","","","","false","null","","","noS.png","","",""
"image-slider-2AFC","499","1280619","0.0-46.43-1.43","2121","","","","-50","","","","","","","","heartS.png","1579","-50",""
"html-keyboard-response","500","1281423","0.0-46.43-2.43","null","","","","","","","null","","","","","","","",""
"image-selector-fb","501","1284432","0.0-46.44-0.44","null","pics2/FR5.jpg,pics2/FR2.jpg","","","","","","","false","null","","","noS.png","","",""
"image-slider-2AFC","502","1286525","0.0-46.44-1.44","2090","","","","-49","","","","","","","","heartS.png","1456","-49",""
"html-keyboard-response","503","1287281","0.0-46.44-2.44","null","","","","","","","null","","","","","","","",""
"image-selector-fb","504","1290288","0.0-46.45-0.45","null","pics2/FR3.jpg,pics2/FR2.jpg","","","","","","","false","null","","","noS.png","","",""
"image-slider-2AFC","505","1292350","0.0-46.45-1.45","2060","","","","34","","","","","","","","sizeS.png","1503","34",""
"html-keyboard-response","506","1293153","0.0-46.45-2.45","null","","","","","","","null","","","","","","","",""
"image-selector-fb","507","1296160","0.0-46.46-0.46","null","pics2/FR1.jpg,pics2/SA3.jpg","","","","","","","false","null","","","noS.png","","",""
"image-slider-2AFC","508","1298124","0.0-46.46-1.46","1960","","","","-44","","","","","","","","sizeS.png","1366","-44",""
"html-keyboard-response","509","1298929","0.0-46.46-2.46","null","","","","","","","null","","","","","","","",""
"image-selector-fb","510","1300755","0.0-46.47-0.47","1320","pics2/FR3.jpg,pics2/FR2.jpg","","","","","","","true","1","","","sizeS.png","","",""
"image-slider-2AFC","511","1302682","0.0-46.47-1.47","1925","","","","-52","","","","","","","","heartS.png","1459","-52",""
"html-keyboard-response","512","1303487","0.0-46.47-2.47","null","","","","","","","null","","","","","","","",""
"image-selector-fb","513","1305105","0.0-46.48-0.48","1113","pics2/SA4.jpg,pics2/VE1.jpg","","","","","","","false","0","","","heartS.png","","",""
"image-slider-2AFC","514","1306936","0.0-46.48-1.48","1829","","","","-55","","","","","","","","heartS.png","700","-55",""
"html-keyboard-response","515","1307689","0.0-46.48-2.48","null","","","","","","","null","","","","","","","",""
"image-selector-fb","516","1310698","0.0-46.49-0.49","null","pics2/SW1.jpg,pics2/SA2.jpg","","","","","","","false","null","","","noS.png","","",""
"image-slider-2AFC","517","1312643","0.0-46.49-1.49","1942","","","","-63","","","","","","","","heartS.png","1188","-63",""
"html-keyboard-response","518","1313496","0.0-46.49-2.49","null","","","","","","","null","","","","","","","",""
"image-selector-fb","519","1315779","0.0-46.50-0.50","1778","pics2/SW6.jpg,pics2/SA4.jpg","","","","","","","false","0","","","sizeS.png","","",""
"image-slider-2AFC","520","1317778","0.0-46.50-1.50","1997","","","","-50","","","","","","","","heartS.png","1411","-50",""
"html-keyboard-response","521","1318481","0.0-46.50-2.50","null","","","","","","","null","","","","","","","",""
"image-selector-fb","522","1321493","0.0-46.51-0.51","null","pics2/SA3.jpg,pics2/VE5.jpg","","","","","","","false","null","","","noS.png","","",""
"image-slider-2AFC","523","1323747","0.0-46.51-1.51","2251","","","","-62","","","","","","","","heartS.png","1630","-62",""
"html-keyboard-response","524","1324600","0.0-46.51-2.51","null","","","","","","","null","","","","","","","",""
"image-selector-fb","525","1326131","0.0-46.52-0.52","1025","pics2/SA2.jpg,pics2/VE1.jpg","","","","","","","true","1","","","heartS.png","","",""
"image-slider-2AFC","526","1328040","0.0-46.52-1.52","1907","","","","45","","","","","","","","sizeS.png","1448","45",""
"html-keyboard-response","527","1328845","0.0-46.52-2.52","null","","","","","","","null","","","","","","","",""
"image-selector-fb","528","1330903","0.0-46.53-0.53","1553","pics2/FR3.jpg,pics2/SW6.jpg","","","","","","","false","0","","","sizeS.png","","",""
"image-slider-2AFC","529","1333183","0.0-46.53-1.53","2277","","","","-57","","","","","","","","sizeS.png","1596","-57",""
"html-keyboard-response","530","1333934","0.0-46.53-2.53","null","","","","","","","null","","","","","","","",""
"image-selector-fb","531","1335610","0.0-46.54-0.54","1171","pics2/SA3.jpg,pics2/SW6.jpg","","","","","","","true","1","","","heartS.png","","",""
"image-slider-2AFC","532","1338556","0.0-46.54-1.54","2945","","","","34","","","","","","","","heartS.png","1274,2040","52,34",""
"html-keyboard-response","533","1339263","0.0-46.54-2.54","null","","","","","","","null","","","","","","","",""
"image-selector-fb","534","1342172","0.0-46.55-0.55","2401","pics2/SW6.jpg,pics2/SA2.jpg","","","","","","","false","0","","","sizeS.png","","",""
"image-slider-2AFC","535","1344224","0.0-46.55-1.55","2049","","","","-47","","","","","","","","heartS.png","1583","-47",""
"html-keyboard-response","536","1345076","0.0-46.55-2.55","null","","","","","","","null","","","","","","","",""
"image-selector-fb","537","1348087","0.0-46.56-0.56","null","pics2/FR5.jpg,pics2/FR1.jpg","","","","","","","false","null","","","noS.png","","",""
"image-slider-2AFC","538","1350922","0.0-46.56-1.56","2833","","","","31","","","","","","","","sizeS.png","2294","31",""
"html-keyboard-response","539","1351726","0.0-46.56-2.56","null","","","","","","","null","","","","","","","",""
"image-selector-fb","540","1354492","0.0-46.57-0.57","2262","pics2/VE5.jpg,pics2/FR1.jpg","","","","","","","true","1","","","heartS.png","","",""
"image-slider-2AFC","541","1357906","0.0-46.57-1.57","3411","","","","27","","","","","","","","sizeS.png","3051","27",""
"html-keyboard-response","542","1358759","0.0-46.57-2.57","null","","","","","","","null","","","","","","","",""
"image-selector-fb","543","1361766","0.0-46.58-0.58","null","pics2/FR2.jpg,pics2/SW1.jpg","","","","","","","false","null","","","noS.png","","",""
"image-slider-2AFC","544","1364623","0.0-46.58-1.58","2855","","","","40","","","","","","","","heartS.png","2250","40",""
"html-keyboard-response","545","1365475","0.0-46.58-2.58","null","","","","","","","null","","","","","","","",""
"image-selector-fb","546","1367220","0.0-46.59-0.59","1240","pics2/FR5.jpg,pics2/FR1.jpg","","","","","","","true","1","","","sizeS.png","","",""
"image-slider-2AFC","547","1369529","0.0-46.59-1.59","2306","","","","-49","","","","","","","","heartS.png","1645","-49",""
"html-keyboard-response","548","1370383","0.0-46.59-2.59","null","","","","","","","null","","","","","","","",""
"image-selector-fb","549","1372336","0.0-46.60-0.60","1448","pics2/SA3.jpg,pics2/FR5.jpg","","","","","","","true","1","","","heartS.png","","",""
"image-slider-2AFC","550","1374853","0.0-46.60-1.60","2514","","","","54","","","","","","","","heartS.png","2022","54",""
"html-keyboard-response","551","1375655","0.0-46.60-2.60","null","","","","","","","null","","","","","","","",""
"image-selector-fb","552","1377690","0.0-46.61-0.61","1530","pics2/FR3.jpg,pics2/VE5.jpg","","","","","","","false","0","","","sizeS.png","","",""
"image-slider-2AFC","553","1380525","0.0-46.61-1.61","2829","","","","-61","","","","","","","","heartS.png","2042","-61",""
"html-keyboard-response","554","1381380","0.0-46.61-2.61","null","","","","","","","null","","","","","","","",""
"image-selector-fb","555","1383320","0.0-46.62-0.62","1432","pics2/SA2.jpg,pics2/FR2.jpg","","","","","","","true","1","","","heartS.png","","",""
"image-slider-2AFC","556","1385198","0.0-46.62-1.62","1876","","","","48","","","","","","","","heartS.png","1325","48",""
"html-keyboard-response","557","1386050","0.0-46.62-2.62","null","","","","","","","null","","","","","","","",""
"image-selector-fb","558","1389056","0.0-46.63-0.63","null","pics2/FR5.jpg,pics2/SW6.jpg","","","","","","","false","null","","","noS.png","","",""
"image-slider-2AFC","559","1390845","0.0-46.63-1.63","1787","","","","-42","","","","","","","","sizeS.png","1199","-42",""
"html-keyboard-response","560","1391602","0.0-46.63-2.63","null","","","","","","","null","","","","","","","",""
"image-selector-fb","561","1394612","0.0-46.64-0.64","null","pics2/FR1.jpg,pics2/SW6.jpg","","","","","","","false","null","","","noS.png","","",""
"image-slider-2AFC","562","1397615","0.0-46.64-1.64","3001","","","","41","","","","","","","","heartS.png","2483","41",""
"html-keyboard-response","563","1398369","0.0-46.64-2.64","null","","","","","","","null","","","","","","","",""
"image-selector-fb","564","1400300","0.0-46.65-0.65","1427","pics2/SW1.jpg,pics2/SW6.jpg","","","","","","","false","0","","","sizeS.png","","",""
"image-slider-2AFC","565","1402895","0.0-46.65-1.65","2593","","","","-31","","","","","","","","heartS.png","1222,1912","-65,-31",""
"html-keyboard-response","566","1403752","0.0-46.65-2.65","null","","","","","","","null","","","","","","","",""
"pavlovia","567","1403770","0.0-47.0","","","","","","","","","","","","","","","",""
"html-keyboard-response","568","1408773","0.0-48.0","null","<div style='width: 700px;'> <font size=6><b>SHORT BREAK</font></b><br><br><i> Please wait 5 seconds to continue</i></div> ","","","","","","null","","","","","","","",""
"pavlovia","569","1408776","0.0-49.0","","","","","","","","","","","","","","","",""
"html-button-response","570","1411384","0.0-50.0","2607","<div style='width: 700px;'> <font size=6><b>BLOCK 3</font></b><br><br>Press the button whenever you feel ready to start the third and final block</div>","0","","","","","","","","","","","","",""
"image-selector-fb","571","1413545","0.0-51.0-0.0","1655","pics2/FR1.jpg,pics2/FR4.jpg","","","","","","","true","1","","","sizeS.png","","",""
"image-slider-2AFC","572","1415359","0.0-51.0-1.0","1812","","","","50","","","","","","","","heartS.png","1276","50",""
"html-keyboard-response","573","1416213","0.0-51.0-2.0","null","","","","","","","null","","","","","","","",""
"image-selector-fb","574","1417843","0.0-51.1-0.1","1125","pics2/FR1.jpg,pics2/SW6.jpg","","","","","","","false","0","","","sizeS.png","","",""
"image-slider-2AFC","575","1419216","0.0-51.1-1.1","1371","","","","-48","","","","","","","","sizeS.png","928","-48",""
"html-keyboard-response","576","1420068","0.0-51.1-2.1","null","","","","","","","null","","","","","","","",""
"image-selector-fb","577","1421935","0.0-51.2-0.2","1360","pics2/SW1.jpg,pics2/FR3.jpg","","","","","","","false","0","","","heartS.png","","",""
"image-slider-2AFC","578","1423793","0.0-51.2-1.2","1856","","","","-46","","","","","","","","sizeS.png","1191","-46",""
"html-keyboard-response","579","1424495","0.0-51.2-2.2","null","","","","","","","null","","","","","","","",""
"image-selector-fb","580","1427504","0.0-51.3-0.3","null","pics2/FR3.jpg,pics2/SA3.jpg","","","","","","","false","null","","","noS.png","","",""
"image-slider-2AFC","581","1430255","0.0-51.3-1.3","2748","","","","-18","","","","","","","","sizeS.png","2374","-18",""
"html-keyboard-response","582","1431062","0.0-51.3-2.3","null","","","","","","","null","","","","","","","",""
"image-selector-fb","583","1434070","0.0-51.4-0.4","null","pics2/FR4.jpg,pics2/FR5.jpg","","","","","","","false","null","","","noS.png","","",""
"image-slider-2AFC","584","1435793","0.0-51.4-1.4","1720","","","","-22","","","","","","","","sizeS.png","1264","-22",""
"html-keyboard-response","585","1436545","0.0-51.4-2.4","null","","","","","","","null","","","","","","","",""
"image-selector-fb","586","1439553","0.0-51.5-0.5","null","pics2/FR3.jpg,pics2/SW1.jpg","","","","","","","false","null","","","noS.png","","",""
"image-slider-2AFC","587","1442092","0.0-51.5-1.5","2535","","","","43","","","","","","","","sizeS.png","1929","43",""
"html-keyboard-response","588","1442798","0.0-51.5-2.5","null","","","","","","","null","","","","","","","",""
"image-selector-fb","589","1445807","0.0-51.6-0.6","null","pics2/FR5.jpg,pics2/SW1.jpg","","","","","","","false","null","","","noS.png","","",""
"image-slider-2AFC","590","1448178","0.0-51.6-1.6","2369","","","","26","","","","","","","","heartS.png","1944","26",""
"html-keyboard-response","591","1448881","0.0-51.6-2.6","null","","","","","","","null","","","","","","","",""
"image-selector-fb","592","1450634","0.0-51.7-0.7","1248","pics2/VE5.jpg,pics2/SW1.jpg","","","","","","","true","1","","","heartS.png","","",""
"image-slider-2AFC","593","1452620","0.0-51.7-1.7","1981","","","","47","","","","","","","","heartS.png","1299","47",""
"html-keyboard-response","594","1453472","0.0-51.7-2.7","null","","","","","","","null","","","","","","","",""
"image-selector-fb","595","1455001","0.0-51.8-0.8","1022","pics2/SW1.jpg,pics2/FR5.jpg","","","","","","","false","0","","","heartS.png","","",""
"image-slider-2AFC","596","1456574","0.0-51.8-1.8","1570","","","","-55","","","","","","","","heartS.png","1006","-55",""
"html-keyboard-response","597","1457328","0.0-51.8-2.8","null","","","","","","","null","","","","","","","",""
"image-selector-fb","598","1459180","0.0-51.9-0.9","1346","pics2/SA4.jpg,pics2/SA3.jpg","","","","","","","true","1","","","heartS.png","","",""
"image-slider-2AFC","599","1461925","0.0-51.9-1.9","2743","","","","35","","","","","","","","sizeS.png","1915","35",""
"html-keyboard-response","600","1462777","0.0-51.9-2.9","null","","","","","","","null","","","","","","","",""
"image-selector-fb","601","1465039","0.0-51.10-0.10","1757","pics2/SA4.jpg,pics2/FR1.jpg","","","","","","","false","0","","","heartS.png","","",""
"image-slider-2AFC","602","1467004","0.0-51.10-1.10","1963","","","","44","","","","","","","","sizeS.png","1194","44",""
"html-keyboard-response","603","1467705","0.0-51.10-2.10","null","","","","","","","null","","","","","","","",""
"image-selector-fb","604","1470712","0.0-51.11-0.11","null","pics2/FR4.jpg,pics2/SA2.jpg","","","","","","","false","null","","","noS.png","","",""
"image-slider-2AFC","605","1472680","0.0-51.11-1.11","1964","","","","-51","","","","","","","","sizeS.png","1280","-51",""
"html-keyboard-response","606","1473483","0.0-51.11-2.11","null","","","","","","","null","","","","","","","",""
"image-selector-fb","607","1475971","0.0-51.12-0.12","1984","pics2/VE5.jpg,pics2/SA4.jpg","","","","","","","false","0","","","sizeS.png","","",""
"image-slider-2AFC","608","1478192","0.0-51.12-1.12","2218","","","","42","","","","","","","","heartS.png","1335","42",""
"html-keyboard-response","609","1478945","0.0-51.12-2.12","null","","","","","","","null","","","","","","","",""
"image-selector-fb","610","1481952","0.0-51.13-0.13","null","pics2/FR3.jpg,pics2/SA2.jpg","","","","","","","false","null","","","noS.png","","",""
"image-slider-2AFC","611","1483514","0.0-51.13-1.13","1559","","","","-62","","","","","","","","heartS.png","1074","-62",""
"html-keyboard-response","612","1484221","0.0-51.13-2.13","null","","","","","","","null","","","","","","","",""
"image-selector-fb","613","1486021","0.0-51.14-0.14","1295","pics2/FR1.jpg,pics2/SA3.jpg","","","","","","","false","0","","","sizeS.png","","",""
"image-slider-2AFC","614","1488380","0.0-51.14-1.14","2357","","","","45","","","","","","","","heartS.png","1856","45",""
"html-keyboard-response","615","1489133","0.0-51.14-2.14","null","","","","","","","null","","","","","","","",""
"image-selector-fb","616","1491570","0.0-51.15-0.15","1931","pics2/FR1.jpg,pics2/VE5.jpg","","","","","","","false","0","","","sizeS.png","","",""
"image-slider-2AFC","617","1494729","0.0-51.15-1.15","3156","","","","37","","","","","","","","heartS.png","2741","37",""
"html-keyboard-response","618","1495481","0.0-51.15-2.15","null","","","","","","","null","","","","","","","",""
"image-selector-fb","619","1497179","0.0-51.16-0.16","1195","pics2/SW6.jpg,pics2/FR4.jpg","","","","","","","true","1","","","sizeS.png","","",""
"image-slider-2AFC","620","1499522","0.0-51.16-1.16","2342","","","","54","","","","","","","","sizeS.png","1791","54",""
"html-keyboard-response","621","1500327","0.0-51.16-2.16","null","","","","","","","null","","","","","","","",""
"image-selector-fb","622","1503339","0.0-51.17-0.17","null","pics2/SW6.jpg,pics2/VE5.jpg","","","","","","","false","null","","","noS.png","","",""
"image-slider-2AFC","623","1505123","0.0-51.17-1.17","1781","","","","39","","","","","","","","sizeS.png","1241","39",""
"html-keyboard-response","624","1505825","0.0-51.17-2.17","null","","","","","","","null","","","","","","","",""
"image-selector-fb","625","1507679","0.0-51.18-0.18","1350","pics2/FR5.jpg,pics2/SA2.jpg","","","","","","","false","0","","","sizeS.png","","",""
"image-slider-2AFC","626","1509147","0.0-51.18-1.18","1463","","","","-31","","","","","","","","sizeS.png","965","-31",""
"html-keyboard-response","627","1509999","0.0-51.18-2.18","null","","","","","","","null","","","","","","","",""
"image-selector-fb","628","1513010","0.0-51.19-0.19","null","pics2/FR5.jpg,pics2/VE5.jpg","","","","","","","false","null","","","noS.png","","",""
"image-slider-2AFC","629","1514506","0.0-51.19-1.19","1493","","","","38","","","","","","","","sizeS.png","1037","38",""
"html-keyboard-response","630","1515207","0.0-51.19-2.19","null","","","","","","","null","","","","","","","",""
"image-selector-fb","631","1518214","0.0-51.20-0.20","null","pics2/SA3.jpg,pics2/SW1.jpg","","","","","","","false","null","","","noS.png","","",""
"image-slider-2AFC","632","1519642","0.0-51.20-1.20","1426","","","","37","","","","","","","","sizeS.png","846","37",""
"html-keyboard-response","633","1520398","0.0-51.20-2.20","null","","","","","","","null","","","","","","","",""
"image-selector-fb","634","1522084","0.0-51.21-0.21","1182","pics2/SA4.jpg,pics2/FR3.jpg","","","","","","","true","1","","","heartS.png","","",""
"image-slider-2AFC","635","1523792","0.0-51.21-1.21","1706","","","","56","","","","","","","","sizeS.png","1215","56",""
"html-keyboard-response","636","1524595","0.0-51.21-2.21","null","","","","","","","null","","","","","","","",""
"image-selector-fb","637","1527603","0.0-51.22-0.22","null","pics2/VE5.jpg,pics2/FR2.jpg","","","","","","","false","null","","","noS.png","","",""
"image-slider-2AFC","638","1529810","0.0-51.22-1.22","2204","","","","42","","","","","","","","sizeS.png","1623","42",""
"html-keyboard-response","639","1530564","0.0-51.22-2.22","null","","","","","","","null","","","","","","","",""
"image-selector-fb","640","1532686","0.0-51.23-0.23","1618","pics2/FR2.jpg,pics2/SW1.jpg","","","","","","","false","0","","","sizeS.png","","",""
"image-slider-2AFC","641","1535029","0.0-51.23-1.23","2340","","","","57","","","","","","","","heartS.png","1780","57",""
"html-keyboard-response","642","1535782","0.0-51.23-2.23","null","","","","","","","null","","","","","","","",""
"image-selector-fb","643","1537750","0.0-51.24-0.24","1461","pics2/SW6.jpg,pics2/VE5.jpg","","","","","","","false","0","","","heartS.png","","",""
"image-slider-2AFC","644","1539615","0.0-51.24-1.24","1862","","","","64","","","","","","","","sizeS.png","1181","64",""
"html-keyboard-response","645","1540367","0.0-51.24-2.24","null","","","","","","","null","","","","","","","",""
"image-selector-fb","646","1543377","0.0-51.25-0.25","null","pics2/SA3.jpg,pics2/FR2.jpg","","","","","","","false","null","","","noS.png","","",""
"image-slider-2AFC","647","1546744","0.0-51.25-1.25","3365","","","","43","","","","","","","","sizeS.png","2163","43",""
"html-keyboard-response","648","1547550","0.0-51.25-2.25","null","","","","","","","null","","","","","","","",""
"image-selector-fb","649","1549553","0.0-51.26-0.26","1498","pics2/SA3.jpg,pics2/FR2.jpg","","","","","","","true","1","","","heartS.png","","",""
"image-slider-2AFC","650","1551817","0.0-51.26-1.26","2262","","","","53","","","","","","","","sizeS.png","1656","53",""
"html-keyboard-response","651","1552520","0.0-51.26-2.26","null","","","","","","","null","","","","","","","",""
"image-selector-fb","652","1554915","0.0-51.27-0.27","1889","pics2/SA3.jpg,pics2/FR1.jpg","","","","","","","false","0","","","heartS.png","","",""
"image-slider-2AFC","653","1557108","0.0-51.27-1.27","2191","","","","56","","","","","","","","sizeS.png","1692","56",""
"html-keyboard-response","654","1557911","0.0-51.27-2.27","null","","","","","","","null","","","","","","","",""
"image-selector-fb","655","1559604","0.0-51.28-0.28","1188","pics2/SA4.jpg,pics2/FR5.jpg","","","","","","","true","1","","","heartS.png","","",""
"image-slider-2AFC","656","1562007","0.0-51.28-1.28","2400","","","","46","","","","","","","","heartS.png","1837","46",""
"html-keyboard-response","657","1562761","0.0-51.28-2.28","null","","","","","","","null","","","","","","","",""
"image-selector-fb","658","1564457","0.0-51.29-0.29","1189","pics2/SW1.jpg,pics2/SA4.jpg","","","","","","","false","0","","","sizeS.png","","",""
"image-slider-2AFC","659","1566747","0.0-51.29-1.29","2288","","","","-60","","","","","","","","heartS.png","1656","-60",""
"html-keyboard-response","660","1567599","0.0-51.29-2.29","null","","","","","","","null","","","","","","","",""
"image-selector-fb","661","1569527","0.0-51.30-0.30","1424","pics2/SA3.jpg,pics2/SW1.jpg","","","","","","","true","1","","","heartS.png","","",""
"image-slider-2AFC","662","1572097","0.0-51.30-1.30","2567","","","","44","","","","","","","","heartS.png","1893","44",""
"html-keyboard-response","663","1572901","0.0-51.30-2.30","null","","","","","","","null","","","","","","","",""
"image-selector-fb","664","1575911","0.0-51.31-0.31","null","pics2/FR1.jpg,pics2/VE1.jpg","","","","","","","false","null","","","noS.png","","",""
"image-slider-2AFC","665","1578207","0.0-51.31-1.31","2293","","","","-18","","","","","","","","heartS.png","1884","-18",""
"html-keyboard-response","666","1579011","0.0-51.31-2.31","null","","","","","","","null","","","","","","","",""
"image-selector-fb","667","1581665","0.0-51.32-0.32","2148","pics2/VE5.jpg,pics2/SW6.jpg","","","","","","","false","0","","","sizeS.png","","",""
"image-slider-2AFC","668","1583787","0.0-51.32-1.32","2120","","","","40","","","","","","","","heartS.png","1657","40",""
"html-keyboard-response","669","1584642","0.0-51.32-2.32","null","","","","","","","null","","","","","","","",""
"image-selector-fb","670","1586139","0.0-51.33-0.33","987","pics2/SW1.jpg,pics2/VE5.jpg","","","","","","","false","0","","","sizeS.png","","",""
"image-slider-2AFC","671","1588611","0.0-51.33-1.33","2470","","","","-43","","","","","","","","sizeS.png","1922","-43",""
"html-keyboard-response","672","1589464","0.0-51.33-2.33","null","","","","","","","null","","","","","","","",""
"image-selector-fb","673","1590949","0.0-51.34-0.34","981","pics2/FR4.jpg,pics2/FR2.jpg","","","","","","","false","0","","","heartS.png","","",""
"image-slider-2AFC","674","1592832","0.0-51.34-1.34","1881","","","","-70","","","","","","","","heartS.png","1377","-70",""
"html-keyboard-response","675","1593583","0.0-51.34-2.34","null","","","","","","","null","","","","","","","",""
"image-selector-fb","676","1596592","0.0-51.35-0.35","null","pics2/SA4.jpg,pics2/SW1.jpg","","","","","","","false","null","","","noS.png","","",""
"image-slider-2AFC","677","1598792","0.0-51.35-1.35","2197","","","","48","","","","","","","","heartS.png","1477","48",""
"html-keyboard-response","678","1599645","0.0-51.35-2.35","null","","","","","","","null","","","","","","","",""
"image-selector-fb","679","1602359","0.0-51.36-0.36","2207","pics2/FR5.jpg,pics2/VE1.jpg","","","","","","","false","0","","","sizeS.png","","",""
"image-slider-2AFC","680","1604964","0.0-51.36-1.36","2602","","","","-29","","","","","","","","sizeS.png","2166","-29",""
"html-keyboard-response","681","1605767","0.0-51.36-2.36","null","","","","","","","null","","","","","","","",""
"image-selector-fb","682","1608776","0.0-51.37-0.37","null","pics2/FR4.jpg,pics2/FR2.jpg","","","","","","","false","null","","","noS.png","","",""
"image-slider-2AFC","683","1611057","0.0-51.37-1.37","2278","","","","-41","","","","","","","","heartS.png","1692","-41",""
"html-keyboard-response","684","1611762","0.0-51.37-2.37","null","","","","","","","null","","","","","","","",""
"image-selector-fb","685","1613585","0.0-51.38-0.38","1319","pics2/SW6.jpg,pics2/SA3.jpg","","","","","","","true","1","","","sizeS.png","","",""
"image-slider-2AFC","686","1615574","0.0-51.38-1.38","1986","","","","43","","","","","","","","sizeS.png","1368","43",""
"html-keyboard-response","687","1616276","0.0-51.38-2.38","null","","","","","","","null","","","","","","","",""
"image-selector-fb","688","1618406","0.0-51.39-0.39","1623","pics2/SA2.jpg,pics2/SA3.jpg","","","","","","","true","1","","","sizeS.png","","",""
"image-slider-2AFC","689","1620056","0.0-51.39-1.39","1647","","","","44","","","","","","","","heartS.png","1210","44",""
"html-keyboard-response","690","1620859","0.0-51.39-2.39","null","","","","","","","null","","","","","","","",""
"image-selector-fb","691","1622429","0.0-51.40-0.40","1065","pics2/SA4.jpg,pics2/SW6.jpg","","","","","","","true","1","","","heartS.png","","",""
"image-slider-2AFC","692","1624552","0.0-51.40-1.40","2120","","","","48","","","","","","","","heartS.png","1591","48",""
"html-keyboard-response","693","1625405","0.0-51.40-2.40","null","","","","","","","null","","","","","","","",""
"image-selector-fb","694","1627440","0.0-51.41-0.41","1529","pics2/FR5.jpg,pics2/SA4.jpg","","","","","","","false","0","","","sizeS.png","","",""
"image-slider-2AFC","695","1630038","0.0-51.41-1.41","2595","","","","-42","","","","","","","","sizeS.png","1919","-42",""
"html-keyboard-response","696","1630891","0.0-51.41-2.41","null","","","","","","","null","","","","","","","",""
"image-selector-fb","697","1633590","0.0-51.42-0.42","2193","pics2/FR2.jpg,pics2/VE5.jpg","","","","","","","false","0","","","sizeS.png","","",""
"image-slider-2AFC","698","1635379","0.0-51.42-1.42","1787","","","","-42","","","","","","","","sizeS.png","1170","-42",""
"html-keyboard-response","699","1636081","0.0-51.42-2.42","null","","","","","","","null","","","","","","","",""
"image-selector-fb","700","1637489","0.0-51.43-0.43","903","pics2/FR4.jpg,pics2/SW6.jpg","","","","","","","false","0","","","heartS.png","","",""
"image-slider-2AFC","701","1639174","0.0-51.43-1.43","1679","","","","-62","","","","","","","","sizeS.png","1021","-62",""
"html-keyboard-response","702","1639980","0.0-51.43-2.43","null","","","","","","","null","","","","","","","",""
"image-selector-fb","703","1641783","0.0-51.44-0.44","1295","pics2/FR3.jpg,pics2/SA3.jpg","","","","","","","false","0","","","sizeS.png","","",""
"image-slider-2AFC","704","1643844","0.0-51.44-1.44","2059","","","","-64","","","","","","","","heartS.png","1489","-64",""
"html-keyboard-response","705","1644598","0.0-51.44-2.44","null","","","","","","","null","","","","","","","",""
"image-selector-fb","706","1646975","0.0-51.45-0.45","1873","pics2/SA4.jpg,pics2/SW1.jpg","","","","","","","true","1","","","heartS.png","","",""
"image-slider-2AFC","707","1648365","0.0-51.45-1.45","1387","","","","53","","","","","","","","heartS.png","826","53",""
"html-keyboard-response","708","1649117","0.0-51.45-2.45","null","","","","","","","null","","","","","","","",""
"image-selector-fb","709","1652125","0.0-51.46-0.46","null","pics2/FR5.jpg,pics2/SA2.jpg","","","","","","","false","null","","","noS.png","","",""
