"trial_type","trial_index","time_elapsed","internal_node_id","rt","stimulus","button_pressed","success","response","cat","value","key_press","correct","image_click","first_click_rt","first_click_val","symbol","all_click_rt","all_click_val","view_history"
"pavlovia","0","5","0.0-0.0","","","","","","","","","","","","","","","",""
"html-button-response","1","7295","0.0-1.0","7287","<div style='width: 700px; font-size: 150%'><font size='40'>  Welcome to our study!</font><br><br><br> <small> Our experiment is about <i>decision making</i>. You will choose and rate different food items, such as these: <br><br> <div><img src='food_combo2.png', height = '400px'></img></div>","0","","","","","","","","","","","","",""
"html-button-response","2","14586","0.0-2.0","7288","<div style='width: 700px; font-size: 150%'><br><br><br><small> <u><i>This is a multi-part study.</i></u><br><br> In the first part you will rate 24 food items twice.<br><br><div><img src=""rat1.png"" style=""width: 25%""></img></div><br>In the second part (longest) you will make repeated choices and judgements concerning the food items.<br><br><div><img src=""mainx.png"" style=""width: 50%""></img></div><br>In the third and final part, you will rate the items again and answer few short questionnaires.<br><br><div><img src=""rat2.png"" style=""width: 50%""></img></div><br><br>","0","","","","","","","","","","","","",""
"fullscreen","3","20434","0.0-3.0","","","","true","","","","","","","","","","","",""
"html-button-response","4","47078","0.0-4.0","26643","<div style='width: 900px; font-size: 150%;' <font size='20%'> In the first part of the task you will use the mouse to rate food items on <i>2 scales</i> </font></div><br><br><div style='width: 900px'><div style='float: left; width: 50%; margin-right:2.5em'><img src='heartS.png'></img><p class='small' style='text-align: justify'>When you see the heart cue you will rate food items in terms of how much like them/would like to eat them <i>right now</i>. You will rate them on a continuous scale from left (strong dislike) to right (strong liking). Before submitting your rating, try imagining how the item tastes and how much you desire it.<br><br></p></div><div ><img src='sizeS.png'></img><p class='small' style='text-align: justify'>When you see the size cue, you will rate the same food items in terms of their size. The scale goes from left (tiny) to right (very large). You should assess picture size <i><u>relative</i></u> to the white background. <b>Remember:</b> rate the size of the picture, <u>not</u> the size of the item in real life. </p></div><div style='width: 900px'><br><br><b><i>Notice:</b> by starting the rating you agree that your sumbission might be rejected at an early stage and the experiment might end, if your size ratings are not at least modestly related to objective sizes, or if you repeat the same value ratings too many times. If you don't agree, please exit by closing the browser window. </i><br><br><br>","0","","","","","","","","","","","","",""
"html-button-response","5","54012","0.0-5.0","6931","<div><img src='heartS.png'></img></div><br><div style='text-align: justify; width: 700px'>Using the mouse, rate the <b><i>likeness</b></i> of the food items (how much you like them/would like to eat them <i>right now</i>). Far right-end of the scale indicates an item you <i>like a lot</i>. Far left-end indicates an item you <i>dislike a lot</i>. Think about each answer.   <ul><li>Try <b><i>not</b></i> to give identical rating to different items.</li><li>Use the whole scale, and <b><i>not</b></i> just the extremes</ul></div><br>","0","","","","","","","","","","","","",""
"image-slider-response","6","58720","0.0-6.0-0.0-0.0","4704","pics2/FR1.jpg","","","100","FR","","","","","","","","","",""
"image-slider-response","7","62434","0.0-6.0-0.0-0.1","3511","pics2/SW3.jpg","","","84","SW","","","","","","","","","",""
"image-slider-response","8","67280","0.0-6.0-0.0-0.2","4642","pics2/VE5.jpg","","","17","VE","","","","","","","","","",""
"image-slider-response","9","72001","0.0-6.0-0.0-0.3","4520","pics2/FR5.jpg","","","28","FR","","","","","","","","","",""
"image-slider-response","10","76283","0.0-6.0-0.0-0.4","4078","pics2/VE4.jpg","","","8","VE","","","","","","","","","",""
"image-slider-response","11","80713","0.0-6.0-0.0-0.5","4228","pics2/SW4.jpg","","","92","SW","","","","","","","","","",""
"image-slider-response","12","84733","0.0-6.0-0.0-0.6","3817","pics2/SW6.jpg","","","40","SW","","","","","","","","","",""
"image-slider-response","13","87492","0.0-6.0-0.0-0.7","2556","pics2/FR4.jpg","","","100","FR","","","","","","","","","",""
"image-slider-response","14","92364","0.0-6.0-0.0-0.8","4668","pics2/SA6.jpg","","","42","SA","","","","","","","","","",""
"image-slider-response","15","95769","0.0-6.0-0.0-0.9","3202","pics2/SA2.jpg","","","0","SA","","","","","","","","","",""
"image-slider-response","16","98694","0.0-6.0-0.0-0.10","2722","pics2/SW2.jpg","","","31","SW","","","","","","","","","",""
"image-slider-response","17","101957","0.0-6.0-0.0-0.11","3060","pics2/SA4.jpg","","","68","SA","","","","","","","","","",""
"image-slider-response","18","106121","0.0-6.0-0.0-0.12","3959","pics2/FR6.jpg","","","94","FR","","","","","","","","","",""
"image-slider-response","19","109312","0.0-6.0-0.0-0.13","2987","pics2/VE1.jpg","","","14","VE","","","","","","","","","",""
"image-slider-response","20","112227","0.0-6.0-0.0-0.14","2713","pics2/SA1.jpg","","","27","SA","","","","","","","","","",""
"image-slider-response","21","114829","0.0-6.0-0.0-0.15","2400","pics2/VE6.jpg","","","0","VE","","","","","","","","","",""
"image-slider-response","22","117627","0.0-6.0-0.0-0.16","2596","pics2/FR2.jpg","","","100","FR","","","","","","","","","",""
"image-slider-response","23","126069","0.0-6.0-0.0-0.17","8238","pics2/SA5.jpg","","","0","SA","","","","","","","","","",""
"image-slider-response","24","130301","0.0-6.0-0.0-0.18","4030","pics2/SA3.jpg","","","40","SA","","","","","","","","","",""
"image-slider-response","25","133052","0.0-6.0-0.0-0.19","2548","pics2/SW1.jpg","","","69","SW","","","","","","","","","",""
"image-slider-response","26","137766","0.0-6.0-0.0-0.20","4511","pics2/VE3.jpg","","","37","VE","","","","","","","","","",""
"image-slider-response","27","140666","0.0-6.0-0.0-0.21","2697","pics2/SW5.jpg","","","23","SW","","","","","","","","","",""
"image-slider-response","28","145729","0.0-6.0-0.0-0.22","4859","pics2/FR3.jpg","","","100","FR","","","","","","","","","",""
"image-slider-response","29","148433","0.0-6.0-0.0-0.23","2501","pics2/VE2.jpg","","","39","VE","","","","","","","","","",""
"html-button-response","30","150496","0.0-7.0","1860","<div style='width: 900px;'> <font size = 6><b> End of the first rating</b><br><br>","0","","","","","","","","","","","","",""
"html-button-response","31","153051","0.0-9.0","2552","<div ><img src='sizeS.png'></img></div><br><div style='text-align: justify; width: 700px'> Using the mouse, rate the <b><i>size</b></i> of the food items <b><i> relative to the white background.</b></i> Right-end of the scale indicates a <i>very large item</i>, which covers a large portion of the white rectangle. Left-end indicates a <i>very tiny</i> item which covers a tiny portion of the white rectangle.<br><br><i><u>Remember</i></u>: everything that is not the white background also contributes to item size (e.g. packing, plates, ect.)<br><br> Please keep in mind that if the accuracy of ratings do not allign well with actual sizes, the experiment will end.  As a result it will be consider incomplete and therefore no payment would be made. Good luck!<br><br></div><br>","0","","","","","","","","","","","","",""
"html-button-response","32","157442","0.0-10.0","4387","<div ><img src='sizeS.png'></img></div><br><b><font size=6>Examples of items that you might encounter</b><br><div style='width: 750px;'><div style='width: 33.33%; float:left'><br><br><br><i>Large Item</i><br><br><img src='large.jpg', width=200px></img></div><div style='float:right'><br><br><br><i>Small Item</i><br><br><img src='small.jpg', width=200px></img></div><div ><br><br><br><i>Medium Item</i><br><br><img src='med.jpg', width=200px></img></div></div><br><br>","0","","","","","","","","","","","","",""
"image-slider-response","33","162574","0.0-11.0-0.0-0.0","5129","pics2/SW1.jpg","","","80","null","","","","","","","","","",""
"image-slider-response","34","166232","0.0-11.0-0.0-0.1","3453","pics2/SW4.jpg","","","81","null","","","","","","","","","",""
"image-slider-response","35","169464","0.0-11.0-0.0-0.2","3030","pics2/FR1.jpg","","","81","null","","","","","","","","","",""
"image-slider-response","36","173105","0.0-11.0-0.0-0.3","3437","pics2/SA4.jpg","","","50","null","","","","","","","","","",""
"image-slider-response","37","176165","0.0-11.0-0.0-0.4","2857","pics2/VE2.jpg","","","91","null","","","","","","","","","",""
"image-slider-response","38","178963","0.0-11.0-0.0-0.5","2596","pics2/VE1.jpg","","","91","null","","","","","","","","","",""
"image-slider-response","39","182210","0.0-11.0-0.0-0.6","3043","pics2/FR3.jpg","","","84","null","","","","","","","","","",""
"image-slider-response","40","186665","0.0-11.0-0.0-0.7","4253","pics2/VE6.jpg","","","46","null","","","","","","","","","",""
"image-slider-response","41","189912","0.0-11.0-0.0-0.8","3044","pics2/FR6.jpg","","","47","null","","","","","","","","","",""
"image-slider-response","42","192815","0.0-11.0-0.0-0.9","2700","pics2/SA2.jpg","","","44","null","","","","","","","","","",""
"image-slider-response","43","195448","0.0-11.0-0.0-0.10","2429","pics2/VE3.jpg","","","73","null","","","","","","","","","",""
"image-slider-response","44","198593","0.0-11.0-0.0-0.11","2943","pics2/SA5.jpg","","","32","null","","","","","","","","","",""
"image-slider-response","45","203007","0.0-11.0-0.0-0.12","4211","pics2/FR4.jpg","","","70","null","","","","","","","","","",""
"image-slider-response","46","205318","0.0-11.0-0.0-0.13","2108","pics2/FR5.jpg","","","50","null","","","","","","","","","",""
"image-slider-response","47","206942","0.0-11.0-0.0-0.14","1421","pics2/SW3.jpg","","","50","null","","","","","","","","","",""
"image-slider-response","48","208580","0.0-11.0-0.0-0.15","1435","pics2/SW5.jpg","","","50","null","","","","","","","","","",""
"image-slider-response","49","211284","0.0-11.0-0.0-0.16","2500","pics2/VE5.jpg","","","50","null","","","","","","","","","",""
"image-slider-response","50","214138","0.0-11.0-0.0-0.17","2652","pics2/VE4.jpg","","","42","null","","","","","","","","","",""
"image-slider-response","51","216928","0.0-11.0-0.0-0.18","2588","pics2/SA6.jpg","","","40","null","","","","","","","","","",""
"image-slider-response","52","219419","0.0-11.0-0.0-0.19","2289","pics2/SW6.jpg","","","31","null","","","","","","","","","",""
"image-slider-response","53","222754","0.0-11.0-0.0-0.20","3133","pics2/SA3.jpg","","","64","null","","","","","","","","","",""
"image-slider-response","54","226578","0.0-11.0-0.0-0.21","3621","pics2/SW2.jpg","","","88","null","","","","","","","","","",""
"image-slider-response","55","229376","0.0-11.0-0.0-0.22","2595","pics2/FR2.jpg","","","74","null","","","","","","","","","",""
"image-slider-response","56","231899","0.0-11.0-0.0-0.23","2320","pics2/SA1.jpg","","","76","null","","","","","","","","","",""
"html-button-response","57","233303","0.0-12.0","1201","<div style='width: 900px;'> <font size = 6><b> End of the second rating</b><br><br>","0","","","","","","","","","","","","",""
"html-button-response","58","236832","0.0-13.0","3527","<div style='width: 900px;'>Now please rate the items for the second time. <br><br>This is not a memory test - you don't need to be consistent with your previous ratings. Just as before, try to make accurate judgements.<br><br>","0","","","","","","","","","","","","",""
"html-button-response","59","239505","0.0-14.0","2671","<div><img src='heartS.png'></img></div><br><div style='text-align: justify; width: 700px'>Using the mouse, rate the <b><i>likeness</b></i> of the food items (how much you like them/would like to eat them <i>right now</i>). Far right-end of the scale indicates an item you <i>like a lot</i>. Far left-end indicates an item you <i>dislike a lot</i>. Think about each answer.   <ul><li>Try <b><i>not</b></i> to give identical rating to different items.</li><li>Use the whole scale, and <b><i>not</b></i> just the extremes</ul></div><br>","0","","","","","","","","","","","","",""
"image-slider-response","60","241673","0.0-15.0-0.0-0.0","2164","pics2/FR1.jpg","","","100","FR","","","","","","","","","",""
"image-slider-response","61","244668","0.0-15.0-0.0-0.1","2793","pics2/VE6.jpg","","","0","VE","","","","","","","","","",""
"image-slider-response","62","247443","0.0-15.0-0.0-0.2","2571","pics2/SW3.jpg","","","86","SW","","","","","","","","","",""
"image-slider-response","63","250471","0.0-15.0-0.0-0.3","2825","pics2/VE1.jpg","","","13","VE","","","","","","","","","",""
"image-slider-response","64","252969","0.0-15.0-0.0-0.4","2296","pics2/FR4.jpg","","","100","FR","","","","","","","","","",""
"image-slider-response","65","256414","0.0-15.0-0.0-0.5","3242","pics2/SA3.jpg","","","58","SA","","","","","","","","","",""
"image-slider-response","66","260055","0.0-15.0-0.0-0.6","3437","pics2/FR6.jpg","","","85","FR","","","","","","","","","",""
"image-slider-response","67","262500","0.0-15.0-0.0-0.7","2242","pics2/SW4.jpg","","","89","SW","","","","","","","","","",""
"image-slider-response","68","264912","0.0-15.0-0.0-0.8","2210","pics2/SW6.jpg","","","41","SW","","","","","","","","","",""
"image-slider-response","69","267244","0.0-15.0-0.0-0.9","2129","pics2/VE2.jpg","","","46","VE","","","","","","","","","",""
"image-slider-response","70","269484","0.0-15.0-0.0-0.10","2037","pics2/SA6.jpg","","","40","SA","","","","","","","","","",""
"image-slider-response","71","271965","0.0-15.0-0.0-0.11","2278","pics2/SW5.jpg","","","19","SW","","","","","","","","","",""
"image-slider-response","72","274560","0.0-15.0-0.0-0.12","2392","pics2/VE3.jpg","","","29","VE","","","","","","","","","",""
"image-slider-response","73","277099","0.0-15.0-0.0-0.13","2337","pics2/SA2.jpg","","","0","SA","","","","","","","","","",""
"image-slider-response","74","279575","0.0-15.0-0.0-0.14","2273","pics2/SW2.jpg","","","19","SW","","","","","","","","","",""
"image-slider-response","75","282129","0.0-15.0-0.0-0.15","2351","pics2/VE4.jpg","","","1","VE","","","","","","","","","",""
"image-slider-response","76","284335","0.0-15.0-0.0-0.16","2004","pics2/VE5.jpg","","","6","VE","","","","","","","","","",""
"image-slider-response","77","286859","0.0-15.0-0.0-0.17","2321","pics2/SA5.jpg","","","0","SA","","","","","","","","","",""
"image-slider-response","78","289293","0.0-15.0-0.0-0.18","2232","pics2/SW1.jpg","","","81","SW","","","","","","","","","",""
"image-slider-response","79","292297","0.0-15.0-0.0-0.19","2802","pics2/SA1.jpg","","","14","SA","","","","","","","","","",""
"image-slider-response","80","294609","0.0-15.0-0.0-0.20","2109","pics2/FR2.jpg","","","100","FR","","","","","","","","","",""
"image-slider-response","81","297130","0.0-15.0-0.0-0.21","2319","pics2/FR3.jpg","","","100","FR","","","","","","","","","",""
"image-slider-response","82","299865","0.0-15.0-0.0-0.22","2533","pics2/SA4.jpg","","","79","SA","","","","","","","","","",""
"image-slider-response","83","302601","0.0-15.0-0.0-0.23","2532","pics2/FR5.jpg","","","35","FR","","","","","","","","","",""
"call-function","84","302810","0.0-16.0","","","","","","","","","","","","","","","",""
"call-function","85","302812","0.0-17.0","","","","","","","","","","","","","","","",""
"html-button-response","86","303830","0.0-18.0","1017","<div style='width: 900px;'> <font size = 6><b> End of the first rating</b><br><br>","0","","","","","","","","","","","","",""
"html-button-response","87","316775","0.0-19.0","12942","<div ><img src='sizeS.png'></img></div><br><div style='text-align: justify; width: 700px'> Using the mouse, rate the <b><i>size</b></i> of the food items <b><i> relative to the white background.</b></i> Right-end of the scale indicates a <i>very large item</i>, which covers a large portion of the white rectangle. Left-end indicates a <i>very tiny</i> item which covers a tiny portion of the white rectangle.<br><br><i><u>Remember</i></u>: everything that is not the white background also contributes to item size (e.g. packing, plates, ect.)<br><br> Please keep in mind that if the accuracy of ratings do not allign well with actual sizes, the experiment will end.  As a result it will be consider incomplete and therefore no payment would be made. Good luck!<br><br></div><br>","0","","","","","","","","","","","","",""
"image-slider-response","88","319504","0.0-20.0-0.0-0.0","2725","pics2/FR3.jpg","","","57","null","","","","","","","","","",""
"image-slider-response","89","321781","0.0-20.0-0.0-0.1","2074","pics2/SA1.jpg","","","73","null","","","","","","","","","",""
"image-slider-response","90","324099","0.0-20.0-0.0-0.2","2115","pics2/SW6.jpg","","","30","null","","","","","","","","","",""
"image-slider-response","91","326108","0.0-20.0-0.0-0.3","1806","pics2/SA6.jpg","","","43","null","","","","","","","","","",""
"image-slider-response","92","328815","0.0-20.0-0.0-0.4","2505","pics2/VE1.jpg","","","49","null","","","","","","","","","",""
"image-slider-response","93","331146","0.0-20.0-0.0-0.5","2129","pics2/SA3.jpg","","","38","null","","","","","","","","","",""
"image-slider-response","94","334206","0.0-20.0-0.0-0.6","2856","pics2/VE2.jpg","","","56","null","","","","","","","","","",""
"image-slider-response","95","336719","0.0-20.0-0.0-0.7","2311","pics2/SA4.jpg","","","21","null","","","","","","","","","",""
"image-slider-response","96","339551","0.0-20.0-0.0-0.8","2628","pics2/FR5.jpg","","","48","null","","","","","","","","","",""
"image-slider-response","97","341711","0.0-20.0-0.0-0.9","1956","pics2/VE3.jpg","","","53","null","","","","","","","","","",""
"image-slider-response","98","343759","0.0-20.0-0.0-0.10","1846","pics2/FR6.jpg","","","38","null","","","","","","","","","",""
"image-slider-response","99","345968","0.0-20.0-0.0-0.11","2006","pics2/VE4.jpg","","","44","null","","","","","","","","","",""
"image-slider-response","100","349184","0.0-20.0-0.0-0.12","3014","pics2/SA2.jpg","","","33","null","","","","","","","","","",""
"image-slider-response","101","351998","0.0-20.0-0.0-0.13","2610","pics2/SW4.jpg","","","50","null","","","","","","","","","",""
"image-slider-response","102","354206","0.0-20.0-0.0-0.14","2005","pics2/SW2.jpg","","","78","null","","","","","","","","","",""
"image-slider-response","103","356744","0.0-20.0-0.0-0.15","2335","pics2/SA5.jpg","","","26","null","","","","","","","","","",""
"image-slider-response","104","358998","0.0-20.0-0.0-0.16","2051","pics2/SW1.jpg","","","73","null","","","","","","","","","",""
"image-slider-response","105","361141","0.0-20.0-0.0-0.17","1942","pics2/SW5.jpg","","","49","null","","","","","","","","","",""
"image-slider-response","106","365502","0.0-20.0-0.0-0.18","4159","pics2/VE6.jpg","","","28","null","","","","","","","","","",""
"image-slider-response","107","369610","0.0-20.0-0.0-0.19","3904","pics2/SW3.jpg","","","53","null","","","","","","","","","",""
"image-slider-response","108","372392","0.0-20.0-0.0-0.20","2581","pics2/FR1.jpg","","","53","null","","","","","","","","","",""
"image-slider-response","109","374663","0.0-20.0-0.0-0.21","2067","pics2/VE5.jpg","","","46","null","","","","","","","","","",""
"image-slider-response","110","378982","0.0-20.0-0.0-0.22","4117","pics2/FR4.jpg","","","59","null","","","","","","","","","",""
"image-slider-response","111","381214","0.0-20.0-0.0-0.23","2028","pics2/FR2.jpg","","","61","null","","","","","","","","","",""
"call-function","112","381420","0.0-21.0","","","","","","","","","","","","","","","",""
"html-button-response","113","382561","0.0-22.0","1141","<div style='width: 900px;'> <font size = 6><b> End of the second rating</b><br><br>","0","","","","","","","","","","","","",""
"pavlovia","114","382572","0.0-23.0","","","","","","","","","","","","","","","",""
"html-keyboard-response","115","387575","0.0-24.0","null","<div style='width: 700px;'> <font size=6><b>SHORT BREAK</font></b><br><br><i> Please wait 5 seconds to continue</i></div> ","","","","","","null","","","","","","","",""
"pavlovia","116","387576","0.0-25.0","","","","","","","","","","","","","","","",""
"html-button-response","117","395992","0.0-26.0","8414","<div style='width: 700px;'>In the main part of the study, you will be choosing between 2 items. When it's time to choose,  this symbol will appear: <br><br><img src='chooseS.png'></img><br><br>Below, a cue will signify the type of choice: </div><br><div style='width: 700px;'><div style='float: left; width: 50%'><img src='heartS.png'></img><p class='small'>Heart cue means you should choose the item you <b><i>prefer</b></i> more.</p></div><div class='float: right; width:50%'><img src='sizeS.png'></img><p class='small'>Size cue means you should choose the <b><i>larger</b></i> item. </p></div></div><br><div style='width: 700px;'>When you click, a green square will appear around the item you chose.<br></div><div><br>","0","","","","","","","","","","","","",""
"image-selector-fb-tut","118","399548","0.0-27.0","2549","0232.jpg,0123.jpg","","","","","","","false","0","","","","","",""
"image-selector-fb-tut","119","403504","0.0-28.0","2952","0232.jpg,0123.jpg","","","","","","","false","0","","","","","",""
"html-button-response","120","406830","0.0-29.0","3326","<div style='width: 900px;'>Your choices should be both <b><i>fast and accurate</b></i>. <br><br>You will have <i>4 seconds</i> to make each choice, which should be enough consider the options and click on one of the items.<br><br>","0","","","","","","","","","","","","",""
"html-button-response","121","410911","0.0-30.0","4078","<div style='width: 900px;'>Additionally, on some choice trials you will see the <b><i>no-choice cue</b></i>: <br><br><img src='noS.png'></img> <br><br>This cue means you can't make any choice. You can examine the items, but  can't click on any of them. Just wait patiently for the cue to dissapear.<br><br>","0","","","","","","","","","","","","",""
"image-selector-fb-tut","122","412916","0.0-31.0","null","0232.jpg,0123.jpg","","","","","","","false","null","","","","","",""
"html-button-response","123","425139","0.0-32.0","12222","<div style='width: 900px;'>After each choice the items will remain on the screen and you will see this symbol: <br><br><img src='judgeS.png'></img> <br><br>This means you should rate<b> the magnitude of the difference</b> between the items using a scale: </div><br><div style='width: 900px; '><div style='float: left; width: 50%; margin-right: 2.5em; align-self:left'><img src='heartS.png'></img><p class='small' style = 'text-align: justify;'>Heart cue means you should rate <b>how much you prefer</b> one of the items over the other. Moving the scale indicator to the left means you prefer the left one; moving it to the right - right one. The more you prefer one of them, the more towards that side you should move the scale indicator. </p></div><div class='float: right; width: 50%; margin-left: 2.5em;'><img src='sizeS.png'></img><p class='small' style='text-align: justify'>Size cue means you should rate <b>how much larger</b> is one of the items over the other. Moving the scale indicator to the left means you think the left is larger; moving it to the right - right one. The greater the difference in size, the more towards that side you should move the scale indicator.</div><br>","0","","","","","","","","","","","","",""
"image-slider-2AFC-tut","124","429406","0.0-33.0","4262","","","","23","","","","","","3442","23","","","",""
"image-slider-2AFC-tut","125","433936","0.0-34.0","4527","","","","10","","","","","","3794","10","","","",""
"html-button-response","126","442310","0.0-35.0","8372","<br><br><font size = 36><b> Examples </b></font><br><br><i> 1) I would like to eat some croissants a <b>lot more</b> than doritos right now:</i><br><img src='ex1.PNG', width='62%'></img><br><br><br><i> 2) I would like to eat some doritos a <b>bit more</b> than croissants right now, but just slightly:</i><br><img src='ex2.PNG' width='62%'></img>","0","","","","","","","","","","","","",""
"html-button-response","127","444281","0.0-36.0","1969","<div style='width: 900px;'><i>Now you know everything you need to do the task!</i> <br><br>Let's start by doing a <b>short training</b>, so you'll get used to how it works. </div><br>","0","","","","","","","","","","","","",""
"image-selector-fb","128","448789","0.0-37.0-0.0","null","pics2/SW6.jpg,pics2/SW5.jpg","","","","","","","false","null","","","sizeS.png","","",""
"image-slider-2AFC","129","448791","0.0-37.0-1.0","null","","","","null","","","","","","","","sizeS.png","","",""
"html-keyboard-response","130","449494","0.0-37.0-2.0","null","","","","","","","null","","","","","","","",""
"image-selector-fb","131","451926","0.0-37.1-0.1","1927","pics2/SW2.jpg,pics2/SA2.jpg","","","","","","","false","0","","","heartS.png","","",""
"image-slider-2AFC","132","456187","0.0-37.1-1.1","4259","","","","-16","","","","","","","","heartS.png","3628","-16",""
"html-keyboard-response","133","456890","0.0-37.1-2.1","null","","","","","","","null","","","","","","","",""
"image-selector-fb","134","458991","0.0-37.2-0.2","1596","pics2/VE4.jpg,pics2/FR5.jpg","","","","","","","true","1","","","heartS.png","","",""
"image-slider-2AFC","135","463994","0.0-37.2-1.2","null","","","","null","","","","","","","","sizeS.png","","",""
"html-keyboard-response","136","464797","0.0-37.2-2.2","null","","","","","","","null","","","","","","","",""
"image-selector-fb","137","468780","0.0-37.3-0.3","3478","pics2/SA5.jpg,pics2/VE4.jpg","","","","","","","false","0","","","sizeS.png","","",""
"image-slider-2AFC","138","473261","0.0-37.3-1.3","4479","","","","-1","","","","","","","","heartS.png","3887","-1",""
"html-keyboard-response","139","473964","0.0-37.3-2.3","null","","","","","","","null","","","","","","","",""
"image-selector-fb","140","476924","0.0-37.4-0.4","2455","pics2/SA5.jpg,pics2/VE1.jpg","","","","","","","true","1","","","sizeS.png","","",""
"image-slider-2AFC","141","481927","0.0-37.4-1.4","null","","","","null","","","","","","","","heartS.png","","",""
"html-keyboard-response","142","482680","0.0-37.4-2.4","null","","","","","","","null","","","","","","","",""
"image-selector-fb","143","484998","0.0-37.5-0.5","1814","pics2/VE1.jpg,pics2/SA1.jpg","","","","","","","true","1","","","heartS.png","","",""
"image-slider-2AFC","144","488863","0.0-37.5-1.5","3861","","","","2","","","","","","","","sizeS.png","3411","2",""
"html-keyboard-response","145","489616","0.0-37.5-2.5","null","","","","","","","null","","","","","","","",""
"image-selector-fb","146","492622","0.0-37.6-0.6","null","pics2/FR5.jpg,pics2/SW5.jpg","","","","","","","false","null","","","noS.png","","",""
"image-slider-2AFC","147","497625","0.0-37.6-1.6","null","","","","null","","","","","","","","sizeS.png","","",""
"html-keyboard-response","148","498328","0.0-37.6-2.6","null","","","","","","","null","","","","","","","",""
"image-selector-fb","149","501334","0.0-37.7-0.7","null","pics2/VE5.jpg,pics2/SA1.jpg","","","","","","","false","null","","","noS.png","","",""
"image-slider-2AFC","150","506337","0.0-37.7-1.7","null","","","","null","","","","","","","","heartS.png","","",""
"html-keyboard-response","151","507089","0.0-37.7-2.7","null","","","","","","","null","","","","","","","",""
"image-selector-fb","152","509625","0.0-37.8-0.8","2032","pics2/VE4.jpg,pics2/VE3.jpg","","","","","","","true","1","","","heartS.png","","",""
"image-slider-2AFC","153","514628","0.0-37.8-1.8","null","","","","null","","","","","","","","sizeS.png","","",""
"html-keyboard-response","154","515432","0.0-37.8-2.8","null","","","","","","","null","","","","","","","",""
"image-selector-fb","155","518436","0.0-37.9-0.9","null","pics2/SA1.jpg,pics2/FR5.jpg","","","","","","","false","null","","","noS.png","","",""
"image-slider-2AFC","156","521362","0.0-37.9-1.9","2924","","","","-22","","","","","","","","sizeS.png","2309","-22",""
"html-keyboard-response","157","522215","0.0-37.9-2.9","null","","","","","","","null","","","","","","","",""
"image-selector-fb","158","525096","0.0-37.10-0.10","2377","pics2/SW6.jpg,pics2/VE3.jpg","","","","","","","true","1","","","sizeS.png","","",""
"image-slider-2AFC","159","530098","0.0-37.10-1.10","null","","","","null","","","","","","","","heartS.png","","",""
"html-keyboard-response","160","530901","0.0-37.10-2.10","null","","","","","","","null","","","","","","","",""
"image-selector-fb","161","532791","0.0-37.11-0.11","1385","pics2/SW2.jpg,pics2/SA1.jpg","","","","","","","false","0","","","heartS.png","","",""
"image-slider-2AFC","162","534772","0.0-37.11-1.11","1979","","","","-50","","","","","","","","heartS.png","1309","-50",""
"html-keyboard-response","163","535523","0.0-37.11-2.11","null","","","","","","","null","","","","","","","",""
"html-button-response","164","538785","0.0-38.0","3261","<i><font size=10>Good job!</font></i> <br><br>Before we begin, you have a chance to review the rules, in case something was not clear.<br><br>","0","","","","","","","","","","","","",""
"instructions","165","543231","0.0-39.0","4444","","","","","","","","","","","","","","","[{""page_index"":0,""viewing_time"":2086},{""page_index"":1,""viewing_time"":1033},{""page_index"":2,""viewing_time"":1324}]"
"html-button-response","166","545746","0.0-40.0","2514","<div style='width: 900px;'> <font size='40'>Great! Now you're ready to begin</font><br><br>The main part of the experiment will consist of <u>3 blocks</u>. Each block consists of 66 decisions and judgements. You will have time for a short break between blocks.<br><br><br><i><u>Do your best to respond within the time limit.</u></i><br><br><i> Press the button to start the experiment<br><br></i>","0","","","","","","","","","","","","",""
"image-selector-fb","167","548140","0.0-41.0-0.0","1887","pics2/FR4.jpg,pics2/FR3.jpg","","","","","","","false","0","","","heartS.png","","",""
"image-slider-2AFC","168","553144","0.0-41.0-1.0","null","","","","null","","","","","","","","sizeS.png","1538,3753","-9,1",""
"html-keyboard-response","169","553946","0.0-41.0-2.0","null","","","","","","","null","","","","","","","",""
"image-selector-fb","170","555629","0.0-41.1-0.1","1179","pics2/FR6.jpg,pics2/FR2.jpg","","","","","","","true","1","","","sizeS.png","","",""
"image-slider-2AFC","171","558171","0.0-41.1-1.1","2539","","","","64","","","","","","","","heartS.png","1561","64",""
"html-keyboard-response","172","559024","0.0-41.1-2.1","null","","","","","","","null","","","","","","","",""
"image-selector-fb","173","561834","0.0-41.2-0.2","2306","pics2/SW4.jpg,pics2/SA4.jpg","","","","","","","false","0","","","sizeS.png","","",""
"image-slider-2AFC","174","564091","0.0-41.2-1.2","2255","","","","-35","","","","","","","","sizeS.png","1381","-35",""
"html-keyboard-response","175","564894","0.0-41.2-2.2","null","","","","","","","null","","","","","","","",""
"image-selector-fb","176","566627","0.0-41.3-0.3","1228","pics2/SA3.jpg,pics2/FR6.jpg","","","","","","","true","1","","","heartS.png","","",""
"image-slider-2AFC","177","571632","0.0-41.3-1.3","null","","","","null","","","","","","","","heartS.png","","",""
"html-keyboard-response","178","572333","0.0-41.3-2.3","null","","","","","","","null","","","","","","","",""
"image-selector-fb","179","575046","0.0-41.4-0.4","2209","pics2/SW3.jpg,pics2/SW1.jpg","","","","","","","true","1","","","sizeS.png","","",""
"image-slider-2AFC","180","580050","0.0-41.4-1.4","null","","","","null","","","","","","","","sizeS.png","","",""
"html-keyboard-response","181","580903","0.0-41.4-2.4","null","","","","","","","null","","","","","","","",""
"image-selector-fb","182","583909","0.0-41.5-0.5","null","pics2/FR6.jpg,pics2/SA4.jpg","","","","","","","false","null","","","noS.png","","",""
"image-slider-2AFC","183","588912","0.0-41.5-1.5","null","","","","null","","","","","","","","heartS.png","","",""
"html-keyboard-response","184","589665","0.0-41.5-2.5","null","","","","","","","null","","","","","","","",""
"image-selector-fb","185","592671","0.0-41.6-0.6","null","pics2/FR2.jpg,pics2/SA6.jpg","","","","","","","false","null","","","noS.png","","",""
"image-slider-2AFC","186","597674","0.0-41.6-1.6","null","","","","null","","","","","","","","heartS.png","","",""
"html-keyboard-response","187","598377","0.0-41.6-2.6","null","","","","","","","null","","","","","","","",""
"image-selector-fb","188","600280","0.0-41.7-0.7","1399","pics2/SW4.jpg,pics2/SA3.jpg","","","","","","","false","0","","","heartS.png","","",""
"image-slider-2AFC","189","605283","0.0-41.7-1.7","null","","","","null","","","","","","","","heartS.png","","",""
"html-keyboard-response","190","606087","0.0-41.7-2.7","null","","","","","","","null","","","","","","","",""
"image-selector-fb","191","607611","0.0-41.8-0.8","1021","pics2/SA3.jpg,pics2/FR4.jpg","","","","","","","true","1","","","sizeS.png","","",""
"image-slider-2AFC","192","612616","0.0-41.8-1.8","null","","","","null","","","","","","","","heartS.png","","",""
"html-keyboard-response","193","613419","0.0-41.8-2.8","null","","","","","","","null","","","","","","","",""
"image-selector-fb","194","615061","0.0-41.9-0.9","1138","pics2/SW1.jpg,pics2/SA3.jpg","","","","","","","false","0","","","heartS.png","","",""
"image-slider-2AFC","195","620064","0.0-41.9-1.9","null","","","","null","","","","","","","","sizeS.png","","",""
"html-keyboard-response","196","620817","0.0-41.9-2.9","null","","","","","","","null","","","","","","","",""
"image-selector-fb","197","622267","0.0-41.10-0.10","945","pics2/FR3.jpg,pics2/FR1.jpg","","","","","","","false","0","","","sizeS.png","","",""
"image-slider-2AFC","198","627271","0.0-41.10-1.10","null","","","","null","","","","","","","","heartS.png","","",""
"html-keyboard-response","199","628124","0.0-41.10-2.10","null","","","","","","","null","","","","","","","",""
"image-selector-fb","200","631129","0.0-41.11-0.11","null","pics2/FR4.jpg,pics2/FR3.jpg","","","","","","","false","null","","","noS.png","","",""
"image-slider-2AFC","201","636064","0.0-41.11-1.11","4932","","","","88","","","","","","","","sizeS.png","3984","88",""
"html-keyboard-response","202","636816","0.0-41.11-2.11","null","","","","","","","null","","","","","","","",""
"image-selector-fb","203","639032","0.0-41.12-0.12","1712","pics2/SA4.jpg,pics2/VE2.jpg","","","","","","","false","0","","","heartS.png","","",""
"image-slider-2AFC","204","644034","0.0-41.12-1.12","null","","","","null","","","","","","","","sizeS.png","","",""
"html-keyboard-response","205","644787","0.0-41.12-2.12","null","","","","","","","null","","","","","","","",""
"image-selector-fb","206","646442","0.0-41.13-0.13","1151","pics2/FR4.jpg,pics2/SA6.jpg","","","","","","","false","0","","","heartS.png","","",""
"image-slider-2AFC","207","649574","0.0-41.13-1.13","3130","","","","-2","","","","","","","","sizeS.png","2540","-2",""
"html-keyboard-response","208","650427","0.0-41.13-2.13","null","","","","","","","null","","","","","","","",""
"image-selector-fb","209","651897","0.0-41.14-0.14","966","pics2/SA4.jpg,pics2/SW1.jpg","","","","","","","false","0","","","heartS.png","","",""
"image-slider-2AFC","210","656901","0.0-41.14-1.14","null","","","","null","","","","","","","","heartS.png","","",""
"html-keyboard-response","211","657604","0.0-41.14-2.14","null","","","","","","","null","","","","","","","",""
"image-selector-fb","212","659411","0.0-41.15-0.15","1303","pics2/VE2.jpg,pics2/FR2.jpg","","","","","","","true","1","","","sizeS.png","","",""
"image-slider-2AFC","213","664414","0.0-41.15-1.15","null","","","","null","","","","","","","","heartS.png","","",""
"html-keyboard-response","214","665116","0.0-41.15-2.15","null","","","","","","","null","","","","","","","",""
"image-selector-fb","215","668121","0.0-41.16-0.16","null","pics2/SA6.jpg,pics2/FR3.jpg","","","","","","","false","null","","","noS.png","","",""
"image-slider-2AFC","216","673125","0.0-41.16-1.16","null","","","","null","","","","","","","","heartS.png","","",""
"html-keyboard-response","217","673828","0.0-41.16-2.16","null","","","","","","","null","","","","","","","",""
"image-selector-fb","218","676832","0.0-41.17-0.17","null","pics2/SA6.jpg,pics2/VE2.jpg","","","","","","","false","null","","","noS.png","","",""
"image-slider-2AFC","219","679687","0.0-41.17-1.17","2853","","","","39","","","","","","","","heartS.png","2118","39",""
"html-keyboard-response","220","680390","0.0-41.17-2.17","null","","","","","","","null","","","","","","","",""
"image-selector-fb","221","683396","0.0-41.18-0.18","null","pics2/FR1.jpg,pics2/SW4.jpg","","","","","","","false","null","","","noS.png","","",""
"image-slider-2AFC","222","688399","0.0-41.18-1.18","null","","","","null","","","","","","","","heartS.png","","",""
"html-keyboard-response","223","689252","0.0-41.18-2.18","null","","","","","","","null","","","","","","","",""
"image-selector-fb","224","692258","0.0-41.19-0.19","null","pics2/FR3.jpg,pics2/SW1.jpg","","","","","","","false","null","","","noS.png","","",""
"image-slider-2AFC","225","697261","0.0-41.19-1.19","null","","","","null","","","","","","","","heartS.png","","",""
"html-keyboard-response","226","698065","0.0-41.19-2.19","null","","","","","","","null","","","","","","","",""
"image-selector-fb","227","701070","0.0-41.20-0.20","null","pics2/FR2.jpg,pics2/FR6.jpg","","","","","","","false","null","","","noS.png","","",""
"image-slider-2AFC","228","703472","0.0-41.20-1.20","2401","","","","-33","","","","","","","","heartS.png","1651","-33",""
"html-keyboard-response","229","704224","0.0-41.20-2.20","null","","","","","","","null","","","","","","","",""
"image-selector-fb","230","706079","0.0-41.21-0.21","1350","pics2/SW1.jpg,pics2/FR4.jpg","","","","","","","true","1","","","heartS.png","","",""
"image-slider-2AFC","231","711082","0.0-41.21-1.21","null","","","","null","","","","","","","","sizeS.png","","",""
"html-keyboard-response","232","711888","0.0-41.21-2.21","null","","","","","","","null","","","","","","","",""
"image-selector-fb","233","714894","0.0-41.22-0.22","null","pics2/FR2.jpg,pics2/SA4.jpg","","","","","","","false","null","","","noS.png","","",""
"image-slider-2AFC","234","719897","0.0-41.22-1.22","null","","","","null","","","","","","","","sizeS.png","","",""
"html-keyboard-response","235","720650","0.0-41.22-2.22","null","","","","","","","null","","","","","","","",""
"image-selector-fb","236","723548","0.0-41.23-0.23","2394","pics2/SW3.jpg,pics2/SW4.jpg","","","","","","","false","0","","","sizeS.png","","",""
"image-slider-2AFC","237","726377","0.0-41.23-1.23","2827","","","","81","","","","","","","","heartS.png","1861","81",""
"html-keyboard-response","238","727180","0.0-41.23-2.23","null","","","","","","","null","","","","","","","",""
"image-selector-fb","239","730186","0.0-41.24-0.24","null","pics2/FR3.jpg,pics2/VE2.jpg","","","","","","","false","null","","","noS.png","","",""
"image-slider-2AFC","240","735189","0.0-41.24-1.24","null","","","","null","","","","","","","","sizeS.png","","",""
"html-keyboard-response","241","735891","0.0-41.24-2.24","null","","","","","","","null","","","","","","","",""
"image-selector-fb","242","738897","0.0-41.25-0.25","null","pics2/FR2.jpg,pics2/VE2.jpg","","","","","","","false","null","","","noS.png","","",""
"image-slider-2AFC","243","743900","0.0-41.25-1.25","null","","","","null","","","","","","","","heartS.png","","",""
"html-keyboard-response","244","744753","0.0-41.25-2.25","null","","","","","","","null","","","","","","","",""
"image-selector-fb","245","746598","0.0-41.26-0.26","1340","pics2/FR1.jpg,pics2/SA6.jpg","","","","","","","false","0","","","heartS.png","","",""
"image-slider-2AFC","246","749408","0.0-41.26-1.26","2801","","","","-29","","","","","","","","sizeS.png","2193","-29",""
"html-keyboard-response","247","750112","0.0-41.26-2.26","null","","","","","","","null","","","","","","","",""
"image-selector-fb","248","752661","0.0-41.27-0.27","2044","pics2/SA6.jpg,pics2/FR4.jpg","","","","","","","true","1","","","sizeS.png","","",""
"image-slider-2AFC","249","755690","0.0-41.27-1.27","3028","","","","4","","","","","","","","sizeS.png","2279","4",""
"html-keyboard-response","250","756393","0.0-41.27-2.27","null","","","","","","","null","","","","","","","",""
"image-selector-fb","251","758070","0.0-41.28-0.28","1172","pics2/FR1.jpg,pics2/VE2.jpg","","","","","","","false","0","","","heartS.png","","",""
"image-slider-2AFC","252","763073","0.0-41.28-1.28","null","","","","null","","","","","","","","sizeS.png","","",""
"html-keyboard-response","253","763875","0.0-41.28-2.28","null","","","","","","","null","","","","","","","",""
"image-selector-fb","254","766881","0.0-41.29-0.29","null","pics2/SW3.jpg,pics2/FR6.jpg","","","","","","","false","null","","","noS.png","","",""
"image-slider-2AFC","255","771885","0.0-41.29-1.29","null","","","","null","","","","","","","","heartS.png","","",""
"html-keyboard-response","256","772588","0.0-41.29-2.29","null","","","","","","","null","","","","","","","",""
"image-selector-fb","257","774155","0.0-41.30-0.30","1062","pics2/FR4.jpg,pics2/SA3.jpg","","","","","","","false","0","","","heartS.png","","",""
"image-slider-2AFC","258","779158","0.0-41.30-1.30","null","","","","null","","","","","","","","heartS.png","","",""
"html-keyboard-response","259","779861","0.0-41.30-2.30","null","","","","","","","null","","","","","","","",""
"image-selector-fb","260","782867","0.0-41.31-0.31","null","pics2/FR6.jpg,pics2/VE2.jpg","","","","","","","false","null","","","noS.png","","",""
"image-slider-2AFC","261","787870","0.0-41.31-1.31","null","","","","null","","","","","","","","sizeS.png","","",""
"html-keyboard-response","262","788623","0.0-41.31-2.31","null","","","","","","","null","","","","","","","",""
"image-selector-fb","263","791629","0.0-41.32-0.32","null","pics2/SA3.jpg,pics2/SW4.jpg","","","","","","","false","null","","","noS.png","","",""
"image-slider-2AFC","264","796632","0.0-41.32-1.32","null","","","","null","","","","","","","","sizeS.png","","",""
"html-keyboard-response","265","797435","0.0-41.32-2.32","null","","","","","","","null","","","","","","","",""
"image-selector-fb","266","799974","0.0-41.33-0.33","2033","pics2/SA3.jpg,pics2/SA6.jpg","","","","","","","false","0","","","sizeS.png","","",""
"image-slider-2AFC","267","804977","0.0-41.33-1.33","null","","","","null","","","","","","","","sizeS.png","","",""
"html-keyboard-response","268","805730","0.0-41.33-2.33","null","","","","","","","null","","","","","","","",""
"image-selector-fb","269","807471","0.0-41.34-0.34","1236","pics2/SW4.jpg,pics2/FR3.jpg","","","","","","","true","1","","","heartS.png","","",""
"image-slider-2AFC","270","812475","0.0-41.34-1.34","null","","","","null","","","","","","","","sizeS.png","","",""
"html-keyboard-response","271","813178","0.0-41.34-2.34","null","","","","","","","null","","","","","","","",""
"image-selector-fb","272","815678","0.0-41.35-0.35","1996","pics2/SW1.jpg,pics2/SA4.jpg","","","","","","","false","0","","","sizeS.png","","",""
"image-slider-2AFC","273","820681","0.0-41.35-1.35","null","","","","null","","","","","","","","heartS.png","","",""
"html-keyboard-response","274","821484","0.0-41.35-2.35","null","","","","","","","null","","","","","","","",""
"image-selector-fb","275","824490","0.0-41.36-0.36","null","pics2/SW1.jpg,pics2/VE2.jpg","","","","","","","false","null","","","noS.png","","",""
"image-slider-2AFC","276","827732","0.0-41.36-1.36","3240","","","","-4","","","","","","","","sizeS.png","2004","-4",""
"html-keyboard-response","277","828435","0.0-41.36-2.36","null","","","","","","","null","","","","","","","",""
"image-selector-fb","278","831442","0.0-41.37-0.37","null","pics2/SA6.jpg,pics2/SA3.jpg","","","","","","","false","null","","","noS.png","","",""
"image-slider-2AFC","279","836445","0.0-41.37-1.37","null","","","","null","","","","","","","","sizeS.png","","",""
"html-keyboard-response","280","837297","0.0-41.37-2.37","null","","","","","","","null","","","","","","","",""
"image-selector-fb","281","840304","0.0-41.38-0.38","null","pics2/FR6.jpg,pics2/FR1.jpg","","","","","","","false","null","","","noS.png","","",""
"image-slider-2AFC","282","842531","0.0-41.38-1.38","2225","","","","65","","","","","","","","sizeS.png","1594","65",""
"html-keyboard-response","283","843384","0.0-41.38-2.38","null","","","","","","","null","","","","","","","",""
"image-selector-fb","284","845186","0.0-41.39-0.39","1297","pics2/FR4.jpg,pics2/SW3.jpg","","","","","","","false","0","","","heartS.png","","",""
"image-slider-2AFC","285","847554","0.0-41.39-1.39","2366","","","","-68","","","","","","","","heartS.png","1617","-68",""
"html-keyboard-response","286","848307","0.0-41.39-2.39","null","","","","","","","null","","","","","","","",""
"image-selector-fb","287","851414","0.0-41.40-0.40","2602","pics2/FR3.jpg,pics2/SW1.jpg","","","","","","","false","0","","","sizeS.png","","",""
"image-slider-2AFC","288","853829","0.0-41.40-1.40","2412","","","","-80","","","","","","","","heartS.png","1553","-80",""
"html-keyboard-response","289","854632","0.0-41.40-2.40","null","","","","","","","null","","","","","","","",""
"image-selector-fb","290","856523","0.0-41.41-0.41","1387","pics2/FR1.jpg,pics2/SA4.jpg","","","","","","","false","0","","","heartS.png","","",""
"image-slider-2AFC","291","859364","0.0-41.41-1.41","2840","","","","-56","","","","","","","","sizeS.png","2271","-56",""
"html-keyboard-response","292","860217","0.0-41.41-2.41","null","","","","","","","null","","","","","","","",""
"image-selector-fb","293","863223","0.0-41.42-0.42","null","pics2/SA6.jpg,pics2/SW4.jpg","","","","","","","false","null","","","noS.png","","",""
"image-slider-2AFC","294","865988","0.0-41.42-1.42","2763","","","","58","","","","","","","","sizeS.png","2170","58",""
"html-keyboard-response","295","866740","0.0-41.42-2.42","null","","","","","","","null","","","","","","","",""
"image-selector-fb","296","869052","0.0-41.43-0.43","1807","pics2/SW3.jpg,pics2/SA4.jpg","","","","","","","false","0","","","sizeS.png","","",""
"image-slider-2AFC","297","870954","0.0-41.43-1.43","1900","","","","76","","","","","","","","heartS.png","1198","76",""
"html-keyboard-response","298","871657","0.0-41.43-2.43","null","","","","","","","null","","","","","","","",""
"image-selector-fb","299","873301","0.0-41.44-0.44","1140","pics2/SW3.jpg,pics2/FR3.jpg","","","","","","","true","1","","","heartS.png","","",""
"image-slider-2AFC","300","876244","0.0-41.44-1.44","2941","","","","100","","","","","","","","heartS.png","2082","100",""
"html-keyboard-response","301","876997","0.0-41.44-2.44","null","","","","","","","null","","","","","","","",""
"image-selector-fb","302","879191","0.0-41.45-0.45","1690","pics2/VE2.jpg,pics2/SA6.jpg","","","","","","","false","0","","","sizeS.png","","",""
"image-slider-2AFC","303","881717","0.0-41.45-1.45","2523","","","","-35","","","","","","","","heartS.png","1854","-35",""
"html-keyboard-response","304","882569","0.0-41.45-2.45","null","","","","","","","null","","","","","","","",""
"image-selector-fb","305","885574","0.0-41.46-0.46","null","pics2/SA4.jpg,pics2/SW4.jpg","","","","","","","false","null","","","noS.png","","",""
"image-slider-2AFC","306","888221","0.0-41.46-1.46","2644","","","","46","","","","","","","","sizeS.png","2140","46",""
"html-keyboard-response","307","889074","0.0-41.46-2.46","null","","","","","","","null","","","","","","","",""
"image-selector-fb","308","890686","0.0-41.47-0.47","1107","pics2/SA4.jpg,pics2/FR3.jpg","","","","","","","true","1","","","heartS.png","","",""
"image-slider-2AFC","309","893882","0.0-41.47-1.47","3194","","","","57","","","","","","","","sizeS.png","2136","57",""
"html-keyboard-response","310","894585","0.0-41.47-2.47","null","","","","","","","null","","","","","","","",""
"image-selector-fb","311","897591","0.0-41.48-0.48","null","pics2/FR2.jpg,pics2/SA3.jpg","","","","","","","false","null","","","noS.png","","",""
"image-slider-2AFC","312","900054","0.0-41.48-1.48","2461","","","","-38","","","","","","","","sizeS.png","1885","-38",""
"html-keyboard-response","313","900907","0.0-41.48-2.48","null","","","","","","","null","","","","","","","",""
"image-selector-fb","314","902464","0.0-41.49-0.49","1052","pics2/FR1.jpg,pics2/SW4.jpg","","","","","","","false","0","","","heartS.png","","",""
"image-slider-2AFC","315","904887","0.0-41.49-1.49","2421","","","","-25","","","","","","","","sizeS.png","1805","-25",""
"html-keyboard-response","316","905690","0.0-41.49-2.49","null","","","","","","","null","","","","","","","",""
"image-selector-fb","317","907800","0.0-41.50-0.50","1607","pics2/VE2.jpg,pics2/FR3.jpg","","","","","","","true","1","","","sizeS.png","","",""
"image-slider-2AFC","318","909782","0.0-41.50-1.50","1980","","","","100","","","","","","","","heartS.png","1302","100",""
"html-keyboard-response","319","910535","0.0-41.50-2.50","null","","","","","","","null","","","","","","","",""
"image-selector-fb","320","913390","0.0-41.51-0.51","2351","pics2/FR3.jpg,pics2/SW3.jpg","","","","","","","false","0","","","sizeS.png","","",""
"image-slider-2AFC","321","916161","0.0-41.51-1.51","2768","","","","-99","","","","","","","","heartS.png","1869","-99",""
"html-keyboard-response","322","916964","0.0-41.51-2.51","null","","","","","","","null","","","","","","","",""
"image-selector-fb","323","918436","0.0-41.52-0.52","968","pics2/FR2.jpg,pics2/SA6.jpg","","","","","","","false","0","","","heartS.png","","",""
"image-slider-2AFC","324","920742","0.0-41.52-1.52","2305","","","","-99","","","","","","","","heartS.png","1507","-99",""
"html-keyboard-response","325","921545","0.0-41.52-2.52","null","","","","","","","null","","","","","","","",""
"image-selector-fb","326","924551","0.0-41.53-0.53","null","pics2/FR4.jpg,pics2/SW4.jpg","","","","","","","false","null","","","noS.png","","",""
"image-slider-2AFC","327","927639","0.0-41.53-1.53","3086","","","","-65","","","","","","","","heartS.png","2486","-65",""
"html-keyboard-response","328","928392","0.0-41.53-2.53","null","","","","","","","null","","","","","","","",""
"image-selector-fb","329","930072","0.0-41.54-0.54","1176","pics2/SW4.jpg,pics2/SW3.jpg","","","","","","","false","0","","","heartS.png","","",""
"image-slider-2AFC","330","932172","0.0-41.54-1.54","2098","","","","-94","","","","","","","","heartS.png","1198","-94",""
"html-keyboard-response","331","933024","0.0-41.54-2.54","null","","","","","","","null","","","","","","","",""
"image-selector-fb","332","935441","0.0-41.55-0.55","1912","pics2/FR3.jpg,pics2/SW4.jpg","","","","","","","false","0","","","sizeS.png","","",""
"image-slider-2AFC","333","938124","0.0-41.55-1.55","2680","","","","-43","","","","","","","","sizeS.png","1955","-43",""
"html-keyboard-response","334","938926","0.0-41.55-2.55","null","","","","","","","null","","","","","","","",""
"image-selector-fb","335","941180","0.0-41.56-0.56","1749","pics2/SW1.jpg,pics2/FR1.jpg","","","","","","","false","0","","","sizeS.png","","",""
"image-slider-2AFC","336","942878","0.0-41.56-1.56","1697","","","","-56","","","","","","","","sizeS.png","970","-56",""
"html-keyboard-response","337","943681","0.0-41.56-2.56","null","","","","","","","null","","","","","","","",""
"image-selector-fb","338","945358","0.0-41.57-0.57","1172","pics2/FR1.jpg,pics2/FR4.jpg","","","","","","","true","1","","","heartS.png","","",""
"image-slider-2AFC","339","948066","0.0-41.57-1.57","2704","","","","19","","","","","","","","heartS.png","2183","19",""
"html-keyboard-response","340","948869","0.0-41.57-2.57","null","","","","","","","null","","","","","","","",""
"image-selector-fb","341","950986","0.0-41.58-0.58","1615","pics2/SW3.jpg,pics2/SA3.jpg","","","","","","","false","0","","","heartS.png","","",""
"image-slider-2AFC","342","954436","0.0-41.58-1.58","3448","","","","25","","","","","","","","sizeS.png","2965","25",""
"html-keyboard-response","343","955289","0.0-41.58-2.58","null","","","","","","","null","","","","","","","",""
"image-selector-fb","344","957958","0.0-41.59-0.59","2165","pics2/SA4.jpg,pics2/FR6.jpg","","","","","","","false","0","","","heartS.png","","",""
"image-slider-2AFC","345","960023","0.0-41.59-1.59","2062","","","","-42","","","","","","","","heartS.png","1385","-42",""
"html-keyboard-response","346","960876","0.0-41.59-2.59","null","","","","","","","null","","","","","","","",""
"image-selector-fb","347","962434","0.0-41.60-0.60","1054","pics2/SA3.jpg,pics2/FR3.jpg","","","","","","","true","1","","","heartS.png","","",""
"image-slider-2AFC","348","965022","0.0-41.60-1.60","2587","","","","13","","","","","","","","sizeS.png","1940","13",""
"html-keyboard-response","349","965875","0.0-41.60-2.60","null","","","","","","","null","","","","","","","",""
"image-selector-fb","350","967813","0.0-41.61-0.61","1432","pics2/FR3.jpg,pics2/SA4.jpg","","","","","","","false","0","","","sizeS.png","","",""
"image-slider-2AFC","351","969681","0.0-41.61-1.61","1866","","","","-75","","","","","","","","sizeS.png","1008","-75",""
"html-keyboard-response","352","970534","0.0-41.61-2.61","null","","","","","","","null","","","","","","","",""
"image-selector-fb","353","973539","0.0-41.62-0.62","null","pics2/SA6.jpg,pics2/SW1.jpg","","","","","","","false","null","","","noS.png","","",""
"image-slider-2AFC","354","976620","0.0-41.62-1.62","3079","","","","66","","","","","","","","sizeS.png","2431","66",""
"html-keyboard-response","355","977421","0.0-41.62-2.62","null","","","","","","","null","","","","","","","",""
"image-selector-fb","356","980425","0.0-41.63-0.63","null","pics2/SA4.jpg,pics2/VE2.jpg","","","","","","","false","null","","","noS.png","","",""
"image-slider-2AFC","357","983093","0.0-41.63-1.63","2665","","","","-72","","","","","","","","heartS.png","1892","-72",""
"html-keyboard-response","358","983946","0.0-41.63-2.63","null","","","","","","","null","","","","","","","",""
"image-selector-fb","359","986951","0.0-41.64-0.64","null","pics2/FR6.jpg,pics2/SW1.jpg","","","","","","","false","null","","","noS.png","","",""
"image-slider-2AFC","360","990146","0.0-41.64-1.64","3192","","","","-72","","","","","","","","heartS.png","2521","-72",""
"html-keyboard-response","361","990949","0.0-41.64-2.64","null","","","","","","","null","","","","","","","",""
"image-selector-fb","362","993955","0.0-41.65-0.65","null","pics2/FR4.jpg,pics2/VE2.jpg","","","","","","","false","null","","","noS.png","","",""
"image-slider-2AFC","363","996345","0.0-41.65-1.65","2388","","","","21","","","","","","","","sizeS.png","1891","21",""
"html-keyboard-response","364","997098","0.0-41.65-2.65","null","","","","","","","null","","","","","","","",""
"pavlovia","365","997111","0.0-42.0","","","","","","","","","","","","","","","",""
"html-keyboard-response","366","1002113","0.0-43.0","null","<div style='width: 700px;'> <font size=6><b>SHORT BREAK</font></b><br><br><i> Please wait 5 seconds to continue</i></div> ","","","","","","null","","","","","","","",""
"pavlovia","367","1002115","0.0-44.0","","","","","","","","","","","","","","","",""
"html-button-response","368","1004897","0.0-45.0","2782","<div style='width: 700px;'> <font size=6><b>BLOCK 2</font></b><br><br>Press the button whenever you feel ready to start the second block (there are 3 in total)</div>","0","","","","","","","","","","","","",""
"image-selector-fb","369","1007398","0.0-46.0-0.0","1997","pics2/VE2.jpg,pics2/SA4.jpg","","","","","","","false","0","","","sizeS.png","","",""
"image-slider-2AFC","370","1010015","0.0-46.0-1.0","2615","","","","71","","","","","","","","heartS.png","1923","71",""
"html-keyboard-response","371","1010868","0.0-46.0-2.0","null","","","","","","","null","","","","","","","",""
"image-selector-fb","372","1013873","0.0-46.1-0.1","null","pics2/SW3.jpg,pics2/VE2.jpg","","","","","","","false","null","","","noS.png","","",""
"image-slider-2AFC","373","1018493","0.0-46.1-1.1","4607","","","","-13","","","","","","","","heartS.png","3133","-13",""
"html-keyboard-response","374","1019297","0.0-46.1-2.1","null","","","","","","","null","","","","","","","",""
"image-selector-fb","375","1021242","0.0-46.2-0.2","1441","pics2/SA4.jpg,pics2/FR1.jpg","","","","","","","true","1","","","sizeS.png","","",""
"image-slider-2AFC","376","1024059","0.0-46.2-1.2","2814","","","","92","","","","","","","","heartS.png","1931","92",""
"html-keyboard-response","377","1024912","0.0-46.2-2.2","null","","","","","","","null","","","","","","","",""
"image-selector-fb","378","1027919","0.0-46.3-0.3","null","pics2/FR2.jpg,pics2/SW4.jpg","","","","","","","false","null","","","noS.png","","",""
"image-slider-2AFC","379","1030689","0.0-46.3-1.3","2769","","","","-45","","","","","","","","sizeS.png","2154","-45",""
"html-keyboard-response","380","1031492","0.0-46.3-2.3","null","","","","","","","null","","","","","","","",""
"image-selector-fb","381","1033707","0.0-46.4-0.4","1710","pics2/FR4.jpg,pics2/SA4.jpg","","","","","","","false","0","","","sizeS.png","","",""
"image-slider-2AFC","382","1035160","0.0-46.4-1.4","1450","","","","-7","","","","","","","","sizeS.png","1024","-7",""
"html-keyboard-response","383","1035913","0.0-46.4-2.4","null","","","","","","","null","","","","","","","",""
"image-selector-fb","384","1037689","0.0-46.5-0.5","1272","pics2/SA4.jpg,pics2/SA3.jpg","","","","","","","false","0","","","heartS.png","","",""
"image-slider-2AFC","385","1039433","0.0-46.5-1.5","1741","","","","-87","","","","","","","","heartS.png","1046","-87",""
"html-keyboard-response","386","1040286","0.0-46.5-2.5","null","","","","","","","null","","","","","","","",""
"image-selector-fb","387","1041905","0.0-46.6-0.6","1114","pics2/FR1.jpg,pics2/FR6.jpg","","","","","","","false","0","","","heartS.png","","",""
"image-slider-2AFC","388","1043738","0.0-46.6-1.6","1830","","","","-93","","","","","","","","heartS.png","1065","-93",""
"html-keyboard-response","389","1044490","0.0-46.6-2.6","null","","","","","","","null","","","","","","","",""
"image-selector-fb","390","1047495","0.0-46.7-0.7","null","pics2/FR2.jpg,pics2/SW1.jpg","","","","","","","false","null","","","noS.png","","",""
"image-slider-2AFC","391","1049735","0.0-46.7-1.7","2239","","","","-3","","","","","","","","sizeS.png","1670","-3",""
"html-keyboard-response","392","1050538","0.0-46.7-2.7","null","","","","","","","null","","","","","","","",""
"image-selector-fb","393","1052460","0.0-46.8-0.8","1417","pics2/FR6.jpg,pics2/SW4.jpg","","","","","","","true","1","","","sizeS.png","","",""
"image-slider-2AFC","394","1055459","0.0-46.8-1.8","2996","","","","-6","","","","","","","","heartS.png","2633","-6",""
"html-keyboard-response","395","1056312","0.0-46.8-2.8","null","","","","","","","null","","","","","","","",""
"image-selector-fb","396","1058238","0.0-46.9-0.9","1422","pics2/SW4.jpg,pics2/VE2.jpg","","","","","","","false","0","","","heartS.png","","",""
"image-slider-2AFC","397","1060986","0.0-46.9-1.9","2745","","","","67","","","","","","","","sizeS.png","2058","67",""
"html-keyboard-response","398","1061739","0.0-46.9-2.9","null","","","","","","","null","","","","","","","",""
"image-selector-fb","399","1064744","0.0-46.10-0.10","null","pics2/FR2.jpg,pics2/FR1.jpg","","","","","","","false","null","","","noS.png","","",""
"image-slider-2AFC","400","1069730","0.0-46.10-1.10","4984","","","","9","","","","","","","","heartS.png","3367,4502","71,9",""
"html-keyboard-response","401","1070433","0.0-46.10-2.10","null","","","","","","","null","","","","","","","",""
"image-selector-fb","402","1072771","0.0-46.11-0.11","1833","pics2/VE2.jpg,pics2/FR6.jpg","","","","","","","false","0","","","sizeS.png","","",""
"image-slider-2AFC","403","1075374","0.0-46.11-1.11","2600","","","","-41","","","","","","","","sizeS.png","1694","-41",""
"html-keyboard-response","404","1076177","0.0-46.11-2.11","null","","","","","","","null","","","","","","","",""
"image-selector-fb","405","1079183","0.0-46.12-0.12","null","pics2/FR4.jpg,pics2/SA3.jpg","","","","","","","false","null","","","noS.png","","",""
"image-slider-2AFC","406","1082707","0.0-46.12-1.12","3523","","","","-98","","","","","","","","heartS.png","1772,2734","-49,-98",""
"html-keyboard-response","407","1083510","0.0-46.12-2.12","null","","","","","","","null","","","","","","","",""
"image-selector-fb","408","1085173","0.0-46.13-0.13","1158","pics2/FR4.jpg,pics2/SW4.jpg","","","","","","","false","0","","","heartS.png","","",""
"image-slider-2AFC","409","1088319","0.0-46.13-1.13","3143","","","","28","","","","","","","","sizeS.png","2575","28",""
"html-keyboard-response","410","1089122","0.0-46.13-2.13","null","","","","","","","null","","","","","","","",""
"image-selector-fb","411","1092132","0.0-46.14-0.14","2507","pics2/VE2.jpg,pics2/SW3.jpg","","","","","","","true","1","","","sizeS.png","","",""
"image-slider-2AFC","412","1094540","0.0-46.14-1.14","2404","","","","7","","","","","","","","sizeS.png","1939","7",""
"html-keyboard-response","413","1095392","0.0-46.14-2.14","null","","","","","","","null","","","","","","","",""
"image-selector-fb","414","1097076","0.0-46.15-0.15","1179","pics2/FR4.jpg,pics2/FR2.jpg","","","","","","","true","1","","","sizeS.png","","",""
"image-slider-2AFC","415","1098971","0.0-46.15-1.15","1893","","","","70","","","","","","","","sizeS.png","1332","70",""
"html-keyboard-response","416","1099774","0.0-46.15-2.15","null","","","","","","","null","","","","","","","",""
"image-selector-fb","417","1101798","0.0-46.16-0.16","1519","pics2/FR3.jpg,pics2/VE2.jpg","","","","","","","false","0","","","heartS.png","","",""
"image-slider-2AFC","418","1104016","0.0-46.16-1.16","2215","","","","-12","","","","","","","","sizeS.png","1631","-12",""
"html-keyboard-response","419","1104769","0.0-46.16-2.16","null","","","","","","","null","","","","","","","",""
"image-selector-fb","420","1107119","0.0-46.17-0.17","1846","pics2/FR4.jpg,pics2/FR1.jpg","","","","","","","true","1","","","sizeS.png","","",""
"image-slider-2AFC","421","1109037","0.0-46.17-1.17","1916","","","","49","","","","","","","","heartS.png","1144","49",""
"html-keyboard-response","422","1109840","0.0-46.17-2.17","null","","","","","","","null","","","","","","","",""
"image-selector-fb","423","1111930","0.0-46.18-0.18","1585","pics2/SW1.jpg,pics2/VE2.jpg","","","","","","","false","0","","","heartS.png","","",""
"image-slider-2AFC","424","1114227","0.0-46.18-1.18","2295","","","","-68","","","","","","","","heartS.png","1579","-68",""
"html-keyboard-response","425","1114930","0.0-46.18-2.18","null","","","","","","","null","","","","","","","",""
"image-selector-fb","426","1116675","0.0-46.19-0.19","1242","pics2/SA3.jpg,pics2/SW4.jpg","","","","","","","true","1","","","sizeS.png","","",""
"image-slider-2AFC","427","1118799","0.0-46.19-1.19","2122","","","","-6","","","","","","","","sizeS.png","1711","-6",""
"html-keyboard-response","428","1119502","0.0-46.19-2.19","null","","","","","","","null","","","","","","","",""
"image-selector-fb","429","1121605","0.0-46.20-0.20","1596","pics2/SA4.jpg,pics2/FR4.jpg","","","","","","","true","1","","","heartS.png","","",""
"image-slider-2AFC","430","1123632","0.0-46.20-1.20","2024","","","","58","","","","","","","","heartS.png","1306","58",""
"html-keyboard-response","431","1124435","0.0-46.20-2.20","null","","","","","","","null","","","","","","","",""
"image-selector-fb","432","1127442","0.0-46.21-0.21","null","pics2/FR2.jpg,pics2/FR4.jpg","","","","","","","false","null","","","noS.png","","",""
"image-slider-2AFC","433","1129922","0.0-46.21-1.21","2478","","","","-64","","","","","","","","sizeS.png","1737","-64",""
"html-keyboard-response","434","1130625","0.0-46.21-2.21","null","","","","","","","null","","","","","","","",""
"image-selector-fb","435","1133631","0.0-46.22-0.22","null","pics2/SW3.jpg,pics2/SA4.jpg","","","","","","","false","null","","","noS.png","","",""
"image-slider-2AFC","436","1136295","0.0-46.22-1.22","2662","","","","-63","","","","","","","","sizeS.png","1715","-63",""
"html-keyboard-response","437","1137098","0.0-46.22-2.22","null","","","","","","","null","","","","","","","",""
"image-selector-fb","438","1138831","0.0-46.23-0.23","1228","pics2/FR2.jpg,pics2/SA3.jpg","","","","","","","false","0","","","heartS.png","","",""
"image-slider-2AFC","439","1140685","0.0-46.23-1.23","1851","","","","-36","","","","","","","","sizeS.png","1189","-36",""
"html-keyboard-response","440","1141488","0.0-46.23-2.23","null","","","","","","","null","","","","","","","",""
"image-selector-fb","441","1143047","0.0-46.24-0.24","1056","pics2/FR1.jpg,pics2/FR3.jpg","","","","","","","false","0","","","heartS.png","","",""
"image-slider-2AFC","442","1145433","0.0-46.24-1.24","2384","","","","-2","","","","","","","","sizeS.png","1909","-2",""
"html-keyboard-response","443","1146136","0.0-46.24-2.24","null","","","","","","","null","","","","","","","",""
"image-selector-fb","444","1147904","0.0-46.25-0.25","1265","pics2/FR1.jpg,pics2/SW1.jpg","","","","","","","false","0","","","heartS.png","","",""
"image-slider-2AFC","445","1150030","0.0-46.25-1.25","2124","","","","-75","","","","","","","","heartS.png","1337","-75",""
"html-keyboard-response","446","1150782","0.0-46.25-2.25","null","","","","","","","null","","","","","","","",""
"image-selector-fb","447","1152712","0.0-46.26-0.26","1427","pics2/SA4.jpg,pics2/SW4.jpg","","","","","","","true","1","","","heartS.png","","",""
"image-slider-2AFC","448","1155061","0.0-46.26-1.26","2347","","","","63","","","","","","","","sizeS.png","1583","63",""
"html-keyboard-response","449","1155864","0.0-46.26-2.26","null","","","","","","","null","","","","","","","",""
"image-selector-fb","450","1157556","0.0-46.27-0.27","1189","pics2/SA6.jpg,pics2/FR3.jpg","","","","","","","true","1","","","heartS.png","","",""
"image-slider-2AFC","451","1160536","0.0-46.27-1.27","2979","","","","89","","","","","","","","heartS.png","1695","89",""
"html-keyboard-response","452","1161388","0.0-46.27-2.27","null","","","","","","","null","","","","","","","",""
"image-selector-fb","453","1164095","0.0-46.28-0.28","2202","pics2/FR2.jpg,pics2/SW1.jpg","","","","","","","true","1","","","sizeS.png","","",""
"image-slider-2AFC","454","1165910","0.0-46.28-1.28","1813","","","","27","","","","","","","","sizeS.png","1230","27",""
"html-keyboard-response","455","1166762","0.0-46.28-2.28","null","","","","","","","null","","","","","","","",""
"image-selector-fb","456","1169767","0.0-46.29-0.29","null","pics2/FR2.jpg,pics2/SW3.jpg","","","","","","","false","null","","","noS.png","","",""
"image-slider-2AFC","457","1172947","0.0-46.29-1.29","3179","","","","11","","","","","","","","sizeS.png","2760","11",""
"html-keyboard-response","458","1173799","0.0-46.29-2.29","null","","","","","","","null","","","","","","","",""
"image-selector-fb","459","1175458","0.0-46.30-0.30","1154","pics2/FR6.jpg,pics2/VE2.jpg","","","","","","","false","0","","","heartS.png","","",""
"image-slider-2AFC","460","1178046","0.0-46.30-1.30","2586","","","","-70","","","","","","","","heartS.png","1822","-70",""
"html-keyboard-response","461","1178899","0.0-46.30-2.30","null","","","","","","","null","","","","","","","",""
"image-selector-fb","462","1180842","0.0-46.31-0.31","1439","pics2/FR3.jpg,pics2/FR2.jpg","","","","","","","true","1","","","sizeS.png","","",""
"image-slider-2AFC","463","1183477","0.0-46.31-1.31","2634","","","","7","","","","","","","","sizeS.png","1426","7",""
"html-keyboard-response","464","1184330","0.0-46.31-2.31","null","","","","","","","null","","","","","","","",""
"image-selector-fb","465","1186123","0.0-46.32-0.32","1288","pics2/FR2.jpg,pics2/FR1.jpg","","","","","","","false","0","","","sizeS.png","","",""
"image-slider-2AFC","466","1188664","0.0-46.32-1.32","2539","","","","-4","","","","","","","","sizeS.png","2129","-4",""
"html-keyboard-response","467","1189467","0.0-46.32-2.32","null","","","","","","","null","","","","","","","",""
"image-selector-fb","468","1192472","0.0-46.33-0.33","null","pics2/FR3.jpg,pics2/FR1.jpg","","","","","","","false","null","","","noS.png","","",""
"image-slider-2AFC","469","1195642","0.0-46.33-1.33","3167","","","","18","","","","","","","","sizeS.png","2529","18",""
"html-keyboard-response","470","1196345","0.0-46.33-2.33","null","","","","","","","null","","","","","","","",""
"image-selector-fb","471","1198469","0.0-46.34-0.34","1621","pics2/SW3.jpg,pics2/VE2.jpg","","","","","","","false","0","","","heartS.png","","",""
"image-slider-2AFC","472","1202192","0.0-46.34-1.34","3720","","","","-13","","","","","","","","heartS.png","3231","-13",""
"html-keyboard-response","473","1203044","0.0-46.34-2.34","null","","","","","","","null","","","","","","","",""
"image-selector-fb","474","1204862","0.0-46.35-0.35","1313","pics2/SW4.jpg,pics2/SW1.jpg","","","","","","","false","0","","","sizeS.png","","",""
"image-slider-2AFC","475","1207703","0.0-46.35-1.35","2839","","","","-85","","","","","","","","heartS.png","1900","-85",""
"html-keyboard-response","476","1208556","0.0-46.35-2.35","null","","","","","","","null","","","","","","","",""
"image-selector-fb","477","1210467","0.0-46.36-0.36","1406","pics2/FR4.jpg,pics2/FR6.jpg","","","","","","","false","0","","","heartS.png","","",""
"image-slider-2AFC","478","1212346","0.0-46.36-1.36","1878","","","","-68","","","","","","","","heartS.png","1184","-68",""
"html-keyboard-response","479","1213199","0.0-46.36-2.36","null","","","","","","","null","","","","","","","",""
"image-selector-fb","480","1215236","0.0-46.37-0.37","1533","pics2/SA4.jpg,pics2/FR2.jpg","","","","","","","true","1","","","heartS.png","","",""
"image-slider-2AFC","481","1217187","0.0-46.37-1.37","1948","","","","73","","","","","","","","sizeS.png","1166","73",""
"html-keyboard-response","482","1217940","0.0-46.37-2.37","null","","","","","","","null","","","","","","","",""
"image-selector-fb","483","1220945","0.0-46.38-0.38","null","pics2/VE2.jpg,pics2/SW4.jpg","","","","","","","false","null","","","noS.png","","",""
"image-slider-2AFC","484","1225164","0.0-46.38-1.38","4217","","","","-17","","","","","","","","sizeS.png","3753","-17",""
"html-keyboard-response","485","1226017","0.0-46.38-2.38","null","","","","","","","null","","","","","","","",""
"image-selector-fb","486","1228000","0.0-46.39-0.39","1478","pics2/SW3.jpg,pics2/FR1.jpg","","","","","","","true","1","","","sizeS.png","","",""
"image-slider-2AFC","487","1229502","0.0-46.39-1.39","1499","","","","21","","","","","","","","sizeS.png","985","21",""
"html-keyboard-response","488","1230205","0.0-46.39-2.39","null","","","","","","","null","","","","","","","",""
"image-selector-fb","489","1233210","0.0-46.40-0.40","null","pics2/FR3.jpg,pics2/SA3.jpg","","","","","","","false","null","","","noS.png","","",""
"image-slider-2AFC","490","1235822","0.0-46.40-1.40","2610","","","","-87","","","","","","","","heartS.png","1987","-87",""
"html-keyboard-response","491","1236625","0.0-46.40-2.40","null","","","","","","","null","","","","","","","",""
"image-selector-fb","492","1238382","0.0-46.41-0.41","1253","pics2/SW1.jpg,pics2/SW4.jpg","","","","","","","true","1","","","heartS.png","","",""
"image-slider-2AFC","493","1240254","0.0-46.41-1.41","1869","","","","58","","","","","","","","heartS.png","1183","58",""
"html-keyboard-response","494","1241007","0.0-46.41-2.41","null","","","","","","","null","","","","","","","",""
"image-selector-fb","495","1244013","0.0-46.42-0.42","null","pics2/FR6.jpg,pics2/SA6.jpg","","","","","","","false","null","","","noS.png","","",""
"image-slider-2AFC","496","1246185","0.0-46.42-1.42","2169","","","","6","","","","","","","","sizeS.png","1727","6",""
"html-keyboard-response","497","1246987","0.0-46.42-2.42","null","","","","","","","null","","","","","","","",""
"image-selector-fb","498","1249759","0.0-46.43-0.43","2268","pics2/SA4.jpg,pics2/SW3.jpg","","","","","","","false","0","","","heartS.png","","",""
"image-slider-2AFC","499","1251678","0.0-46.43-1.43","1917","","","","-57","","","","","","","","heartS.png","1287","-57",""
"html-keyboard-response","500","1252431","0.0-46.43-2.43","null","","","","","","","null","","","","","","","",""
"image-selector-fb","501","1254718","0.0-46.44-0.44","1783","pics2/FR6.jpg,pics2/SA4.jpg","","","","","","","false","0","","","sizeS.png","","",""
"image-slider-2AFC","502","1257520","0.0-46.44-1.44","2800","","","","18","","","","","","","","heartS.png","2160","18",""
"html-keyboard-response","503","1258223","0.0-46.44-2.44","null","","","","","","","null","","","","","","","",""
"image-selector-fb","504","1261229","0.0-46.45-0.45","null","pics2/SA4.jpg,pics2/SW1.jpg","","","","","","","false","null","","","noS.png","","",""
"image-slider-2AFC","505","1264054","0.0-46.45-1.45","2823","","","","70","","","","","","","","sizeS.png","2018","70",""
"html-keyboard-response","506","1264807","0.0-46.45-2.45","null","","","","","","","null","","","","","","","",""
"image-selector-fb","507","1267353","0.0-46.46-0.46","2042","pics2/FR6.jpg,pics2/FR3.jpg","","","","","","","true","1","","","sizeS.png","","",""
"image-slider-2AFC","508","1270392","0.0-46.46-1.46","3037","","","","67","","","","","","","","heartS.png","1681","67",""
"html-keyboard-response","509","1271145","0.0-46.46-2.46","null","","","","","","","null","","","","","","","",""
"image-selector-fb","510","1273377","0.0-46.47-0.47","1727","pics2/SW4.jpg,pics2/FR4.jpg","","","","","","","false","0","","","sizeS.png","","",""
"image-slider-2AFC","511","1276273","0.0-46.47-1.47","2894","","","","45","","","","","","","","heartS.png","2215","45",""
"html-keyboard-response","512","1277027","0.0-46.47-2.47","null","","","","","","","null","","","","","","","",""
"image-selector-fb","513","1280101","0.0-46.48-0.48","2571","pics2/FR6.jpg,pics2/FR4.jpg","","","","","","","false","0","","","sizeS.png","","",""
"image-slider-2AFC","514","1282225","0.0-46.48-1.48","2121","","","","-8","","","","","","","","sizeS.png","1442","-8",""
"html-keyboard-response","515","1283078","0.0-46.48-2.48","null","","","","","","","null","","","","","","","",""
"image-selector-fb","516","1285004","0.0-46.49-0.49","1422","pics2/SA3.jpg,pics2/SW3.jpg","","","","","","","true","1","","","sizeS.png","","",""
"image-slider-2AFC","517","1287451","0.0-46.49-1.49","2445","","","","42","","","","","","","","heartS.png","1404","42",""
"html-keyboard-response","518","1288204","0.0-46.49-2.49","null","","","","","","","null","","","","","","","",""
"image-selector-fb","519","1291210","0.0-46.50-0.50","null","pics2/SW1.jpg,pics2/SA3.jpg","","","","","","","false","null","","","noS.png","","",""
"image-slider-2AFC","520","1293688","0.0-46.50-1.50","2476","","","","-21","","","","","","","","heartS.png","1822","-21",""
"html-keyboard-response","521","1294391","0.0-46.50-2.50","null","","","","","","","null","","","","","","","",""
"image-selector-fb","522","1297397","0.0-46.51-0.51","null","pics2/FR6.jpg,pics2/SW4.jpg","","","","","","","false","null","","","noS.png","","",""
"image-slider-2AFC","523","1300791","0.0-46.51-1.51","3391","","","","1","","","","","","","","heartS.png","1311,2509","47,1",""
"html-keyboard-response","524","1301544","0.0-46.51-2.51","null","","","","","","","null","","","","","","","",""
"image-selector-fb","525","1303256","0.0-46.52-0.52","1208","pics2/SA3.jpg,pics2/FR1.jpg","","","","","","","true","1","","","sizeS.png","","",""
"image-slider-2AFC","526","1305688","0.0-46.52-1.52","2429","","","","56","","","","","","","","heartS.png","1632","56",""
"html-keyboard-response","527","1306541","0.0-46.52-2.52","null","","","","","","","null","","","","","","","",""
"image-selector-fb","528","1309068","0.0-46.53-0.53","2022","pics2/VE2.jpg,pics2/SW4.jpg","","","","","","","false","0","","","sizeS.png","","",""
"image-slider-2AFC","529","1311466","0.0-46.53-1.53","2396","","","","56","","","","","","","","heartS.png","1363","56",""
"html-keyboard-response","530","1312318","0.0-46.53-2.53","null","","","","","","","null","","","","","","","",""
"image-selector-fb","531","1315207","0.0-46.54-0.54","2385","pics2/SA6.jpg,pics2/VE2.jpg","","","","","","","true","1","","","heartS.png","","",""
"image-slider-2AFC","532","1317072","0.0-46.54-1.54","1863","","","","10","","","","","","","","heartS.png","1278","10",""
"html-keyboard-response","533","1317825","0.0-46.54-2.54","null","","","","","","","null","","","","","","","",""
"image-selector-fb","534","1319496","0.0-46.55-0.55","1167","pics2/SW3.jpg,pics2/FR2.jpg","","","","","","","true","1","","","sizeS.png","","",""
"image-slider-2AFC","535","1321589","0.0-46.55-1.55","2091","","","","62","","","","","","","","heartS.png","1152","62",""
"html-keyboard-response","536","1322392","0.0-46.55-2.55","null","","","","","","","null","","","","","","","",""
"image-selector-fb","537","1323967","0.0-46.56-0.56","1070","pics2/SW4.jpg,pics2/SA6.jpg","","","","","","","false","0","","","heartS.png","","",""
"image-slider-2AFC","538","1326320","0.0-46.56-1.56","2350","","","","-6","","","","","","","","sizeS.png","1939","-6",""
"html-keyboard-response","539","1327023","0.0-46.56-2.56","null","","","","","","","null","","","","","","","",""
"image-selector-fb","540","1328713","0.0-46.57-0.57","1186","pics2/SW1.jpg,pics2/FR3.jpg","","","","","","","true","1","","","heartS.png","","",""
"image-slider-2AFC","541","1333716","0.0-46.57-1.57","null","","","","null","","","","","","","","heartS.png","4826","100",""
"html-keyboard-response","542","1334418","0.0-46.57-2.57","null","","","","","","","null","","","","","","","",""
"image-selector-fb","543","1336723","0.0-46.58-0.58","1800","pics2/SW3.jpg,pics2/SA6.jpg","","","","","","","false","0","","","heartS.png","","",""
"image-slider-2AFC","544","1339052","0.0-46.58-1.58","2327","","","","-72","","","","","","","","heartS.png","1380","-72",""
"html-keyboard-response","545","1339855","0.0-46.58-2.58","null","","","","","","","null","","","","","","","",""
"image-selector-fb","546","1342861","0.0-46.59-0.59","null","pics2/FR3.jpg,pics2/SW4.jpg","","","","","","","false","null","","","noS.png","","",""
"image-slider-2AFC","547","1345673","0.0-46.59-1.59","2810","","","","-69","","","","","","","","heartS.png","2022","-69",""
"html-keyboard-response","548","1346526","0.0-46.59-2.59","null","","","","","","","null","","","","","","","",""
"image-selector-fb","549","1348162","0.0-46.60-0.60","1131","pics2/FR1.jpg,pics2/FR2.jpg","","","","","","","true","1","","","heartS.png","","",""
"image-slider-2AFC","550","1351625","0.0-46.60-1.60","3461","","","","-53","","","","","","","","sizeS.png","2452","-53",""
"html-keyboard-response","551","1352328","0.0-46.60-2.60","null","","","","","","","null","","","","","","","",""
"image-selector-fb","552","1353871","0.0-46.61-0.61","1038","pics2/FR6.jpg,pics2/SA6.jpg","","","","","","","false","0","","","sizeS.png","","",""
"image-slider-2AFC","553","1358875","0.0-46.61-1.61","null","","","","null","","","","","","","","heartS.png","","",""
"html-keyboard-response","554","1359629","0.0-46.61-2.61","null","","","","","","","null","","","","","","","",""
"image-selector-fb","555","1362392","0.0-46.62-0.62","2259","pics2/FR3.jpg,pics2/SA3.jpg","","","","","","","false","0","","","sizeS.png","","",""
"image-slider-2AFC","556","1365059","0.0-46.62-1.62","2666","","","","-61","","","","","","","","heartS.png","1806,1987","-61,-61",""
"html-keyboard-response","557","1365863","0.0-46.62-2.62","null","","","","","","","null","","","","","","","",""
"image-selector-fb","558","1367712","0.0-46.63-0.63","1347","pics2/SW4.jpg,pics2/FR2.jpg","","","","","","","true","1","","","sizeS.png","","",""
"image-slider-2AFC","559","1369529","0.0-46.63-1.63","1815","","","","59","","","","","","","","sizeS.png","1152","59",""
"html-keyboard-response","560","1370333","0.0-46.63-2.63","null","","","","","","","null","","","","","","","",""
"image-selector-fb","561","1372262","0.0-46.64-0.64","1425","pics2/SW1.jpg,pics2/FR6.jpg","","","","","","","false","0","","","heartS.png","","",""
"image-slider-2AFC","562","1374851","0.0-46.64-1.64","2585","","","","-55","","","","","","","","sizeS.png","1646","-55",""
"html-keyboard-response","563","1375655","0.0-46.64-2.64","null","","","","","","","null","","","","","","","",""
"image-selector-fb","564","1377544","0.0-46.65-0.65","1384","pics2/FR2.jpg,pics2/FR3.jpg","","","","","","","false","0","","","heartS.png","","",""
"image-slider-2AFC","565","1380841","0.0-46.65-1.65","3295","","","","-15","","","","","","","","heartS.png","2207","-15",""
"html-keyboard-response","566","1381694","0.0-46.65-2.65","null","","","","","","","null","","","","","","","",""
"pavlovia","567","1381710","0.0-47.0","","","","","","","","","","","","","","","",""
"html-keyboard-response","568","1386712","0.0-48.0","null","<div style='width: 700px;'> <font size=6><b>SHORT BREAK</font></b><br><br><i> Please wait 5 seconds to continue</i></div> ","","","","","","null","","","","","","","",""
"pavlovia","569","1386714","0.0-49.0","","","","","","","","","","","","","","","",""
"html-button-response","570","1492770","0.0-50.0","106055","<div style='width: 700px;'> <font size=6><b>BLOCK 3</font></b><br><br>Press the button whenever you feel ready to start the third and final block</div>","0","","","","","","","","","","","","",""
"image-selector-fb","571","1494477","0.0-51.0-0.0","1201","pics2/FR3.jpg,pics2/FR6.jpg","","","","","","","false","0","","","heartS.png","","",""
"image-slider-2AFC","572","1496245","0.0-51.0-1.0","1766","","","","-60","","","","","","","","heartS.png","1120","-60",""
"html-keyboard-response","573","1496949","0.0-51.0-2.0","null","","","","","","","null","","","","","","","",""
"image-selector-fb","574","1499954","0.0-51.1-0.1","null","pics2/SA3.jpg,pics2/FR1.jpg","","","","","","","false","null","","","noS.png","","",""
"image-slider-2AFC","575","1503476","0.0-51.1-1.1","3519","","","","100","","","","","","","","heartS.png","2848","100",""
"html-keyboard-response","576","1504179","0.0-51.1-2.1","null","","","","","","","null","","","","","","","",""
"image-selector-fb","577","1505703","0.0-51.2-0.2","1020","pics2/FR1.jpg,pics2/SW3.jpg","","","","","","","false","0","","","heartS.png","","",""
"image-slider-2AFC","578","1507939","0.0-51.2-1.2","2231","","","","-98","","","","","","","","heartS.png","1434","-98",""
"html-keyboard-response","579","1508791","0.0-51.2-2.2","null","","","","","","","null","","","","","","","",""
"image-selector-fb","580","1510465","0.0-51.3-0.3","1169","pics2/SA6.jpg,pics2/SW4.jpg","","","","","","","true","1","","","sizeS.png","","",""
"image-slider-2AFC","581","1512667","0.0-51.3-1.3","2199","","","","91","","","","","","","","heartS.png","1387","91",""
"html-keyboard-response","582","1513470","0.0-51.3-2.3","null","","","","","","","null","","","","","","","",""
"image-selector-fb","583","1516475","0.0-51.4-0.4","null","pics2/SA6.jpg,pics2/SA4.jpg","","","","","","","false","null","","","noS.png","","",""
"image-slider-2AFC","584","1518705","0.0-51.4-1.4","2228","","","","-65","","","","","","","","sizeS.png","1423","-65",""
"html-keyboard-response","585","1519559","0.0-51.4-2.4","null","","","","","","","null","","","","","","","",""
"image-selector-fb","586","1521879","0.0-51.5-0.5","1817","pics2/FR6.jpg,pics2/SA3.jpg","","","","","","","true","1","","","sizeS.png","","",""
"image-slider-2AFC","587","1523720","0.0-51.5-1.5","1840","","","","55","","","","","","","","sizeS.png","1263","55",""
"html-keyboard-response","588","1524573","0.0-51.5-2.5","null","","","","","","","null","","","","","","","",""
"image-selector-fb","589","1526209","0.0-51.6-0.6","1131","pics2/SA6.jpg,pics2/SW1.jpg","","","","","","","true","1","","","sizeS.png","","",""
"image-slider-2AFC","590","1527757","0.0-51.6-1.6","1545","","","","33","","","","","","","","sizeS.png","953","33",""
"html-keyboard-response","591","1528460","0.0-51.6-2.6","null","","","","","","","null","","","","","","","",""
"image-selector-fb","592","1530347","0.0-51.7-0.7","1382","pics2/SA6.jpg,pics2/SA4.jpg","","","","","","","false","0","","","sizeS.png","","",""
"image-slider-2AFC","593","1533306","0.0-51.7-1.7","2956","","","","63","","","","","","","","heartS.png","1782","63",""
"html-keyboard-response","594","1534007","0.0-51.7-2.7","null","","","","","","","null","","","","","","","",""
"image-selector-fb","595","1537013","0.0-51.8-0.8","null","pics2/SW3.jpg,pics2/SW4.jpg","","","","","","","false","null","","","noS.png","","",""
"image-slider-2AFC","596","1539473","0.0-51.8-1.8","2458","","","","-25","","","","","","","","sizeS.png","1811","-25",""
"html-keyboard-response","597","1540326","0.0-51.8-2.8","null","","","","","","","null","","","","","","","",""
"image-selector-fb","598","1542025","0.0-51.9-0.9","1195","pics2/FR2.jpg,pics2/SW3.jpg","","","","","","","false","0","","","heartS.png","","",""
"image-slider-2AFC","599","1544221","0.0-51.9-1.9","2193","","","","-14","","","","","","","","sizeS.png","1680","-14",""
"html-keyboard-response","600","1544974","0.0-51.9-2.9","null","","","","","","","null","","","","","","","",""
"image-selector-fb","601","1547977","0.0-51.10-0.10","null","pics2/SW3.jpg,pics2/SW1.jpg","","","","","","","false","null","","","noS.png","","",""
"image-slider-2AFC","602","1550070","0.0-51.10-1.10","2090","","","","42","","","","","","","","sizeS.png","1537","42",""
"html-keyboard-response","603","1550773","0.0-51.10-2.10","null","","","","","","","null","","","","","","","",""
"image-selector-fb","604","1552614","0.0-51.11-0.11","1336","pics2/SW1.jpg,pics2/SA6.jpg","","","","","","","false","0","","","heartS.png","","",""
"image-slider-2AFC","605","1554397","0.0-51.11-1.11","1781","","","","-54","","","","","","","","heartS.png","1190","-54",""
"html-keyboard-response","606","1555199","0.0-51.11-2.11","null","","","","","","","null","","","","","","","",""
"image-selector-fb","607","1558204","0.0-51.12-0.12","null","pics2/FR6.jpg,pics2/FR4.jpg","","","","","","","false","null","","","noS.png","","",""
"image-slider-2AFC","608","1560810","0.0-51.12-1.12","2604","","","","64","","","","","","","","heartS.png","1901","64",""
"html-keyboard-response","609","1561613","0.0-51.12-2.12","null","","","","","","","null","","","","","","","",""
"image-selector-fb","610","1564703","0.0-51.13-0.13","2585","pics2/SA3.jpg,pics2/FR2.jpg","","","","","","","true","1","","","sizeS.png","","",""
"image-slider-2AFC","611","1566732","0.0-51.13-1.13","2028","","","","6","","","","","","","","sizeS.png","1112","6",""
"html-keyboard-response","612","1567435","0.0-51.13-2.13","null","","","","","","","null","","","","","","","",""
"image-selector-fb","613","1569528","0.0-51.14-0.14","1588","pics2/VE2.jpg,pics2/SW1.jpg","","","","","","","true","1","","","sizeS.png","","",""
"image-slider-2AFC","614","1571036","0.0-51.14-1.14","1506","","","","4","","","","","","","","sizeS.png","1095","4",""
"html-keyboard-response","615","1571739","0.0-51.14-2.14","null","","","","","","","null","","","","","","","",""
"image-selector-fb","616","1573469","0.0-51.15-0.15","1227","pics2/FR2.jpg,pics2/FR6.jpg","","","","","","","false","0","","","heartS.png","","",""
"image-slider-2AFC","617","1575499","0.0-51.15-1.15","2028","","","","-36","","","","","","","","sizeS.png","1419","-36",""
"html-keyboard-response","618","1576252","0.0-51.15-2.15","null","","","","","","","null","","","","","","","",""
"image-selector-fb","619","1579257","0.0-51.16-0.16","null","pics2/SA4.jpg,pics2/FR1.jpg","","","","","","","false","null","","","noS.png","","",""
"image-slider-2AFC","620","1581410","0.0-51.16-1.16","2151","","","","57","","","","","","","","heartS.png","1417","57",""
"html-keyboard-response","621","1582112","0.0-51.16-2.16","null","","","","","","","null","","","","","","","",""
"image-selector-fb","622","1584789","0.0-51.17-0.17","2173","pics2/SW3.jpg,pics2/FR4.jpg","","","","","","","false","0","","","sizeS.png","","",""
"image-slider-2AFC","623","1587291","0.0-51.17-1.17","2499","","","","-23","","","","","","","","sizeS.png","1829","-23",""
"html-keyboard-response","624","1588044","0.0-51.17-2.17","null","","","","","","","null","","","","","","","",""
"image-selector-fb","625","1591050","0.0-51.18-0.18","null","pics2/SA4.jpg,pics2/FR3.jpg","","","","","","","false","null","","","noS.png","","",""
"image-slider-2AFC","626","1593055","0.0-51.18-1.18","2004","","","","53","","","","","","","","heartS.png","1270","53",""
"html-keyboard-response","627","1593808","0.0-51.18-2.18","null","","","","","","","null","","","","","","","",""
"image-selector-fb","628","1596814","0.0-51.19-0.19","null","pics2/FR4.jpg,pics2/FR1.jpg","","","","","","","false","null","","","noS.png","","",""
"image-slider-2AFC","629","1599552","0.0-51.19-1.19","2735","","","","46","","","","","","","","sizeS.png","2127","46",""
"html-keyboard-response","630","1600255","0.0-51.19-2.19","null","","","","","","","null","","","","","","","",""
"image-selector-fb","631","1603261","0.0-51.20-0.20","null","pics2/FR6.jpg,pics2/SA3.jpg","","","","","","","false","null","","","noS.png","","",""
"image-slider-2AFC","632","1607991","0.0-51.20-1.20","4729","","","","-38","","","","","","","","heartS.png","4208","-38",""
"html-keyboard-response","633","1608844","0.0-51.20-2.20","null","","","","","","","null","","","","","","","",""
"image-selector-fb","634","1610548","0.0-51.21-0.21","1201","pics2/SW1.jpg,pics2/FR2.jpg","","","","","","","true","1","","","heartS.png","","",""
"image-slider-2AFC","635","1612586","0.0-51.21-1.21","2036","","","","72","","","","","","","","heartS.png","1263","72",""
"html-keyboard-response","636","1613389","0.0-51.21-2.21","null","","","","","","","null","","","","","","","",""
"image-selector-fb","637","1615611","0.0-51.22-0.22","1717","pics2/FR6.jpg,pics2/FR1.jpg","","","","","","","true","1","","","sizeS.png","","",""
"image-slider-2AFC","638","1617955","0.0-51.22-1.22","2343","","","","67","","","","","","","","sizeS.png","1512","67",""
"html-keyboard-response","639","1618758","0.0-51.22-2.22","null","","","","","","","null","","","","","","","",""
"image-selector-fb","640","1621105","0.0-51.23-0.23","1843","pics2/FR6.jpg,pics2/SW1.jpg","","","","","","","true","1","","","sizeS.png","","",""
"image-slider-2AFC","641","1622567","0.0-51.23-1.23","1458","","","","13","","","","","","","","sizeS.png","1000","13",""
"html-keyboard-response","642","1623420","0.0-51.23-2.23","null","","","","","","","null","","","","","","","",""
"image-selector-fb","643","1626117","0.0-51.24-0.24","2193","pics2/FR4.jpg,pics2/VE2.jpg","","","","","","","false","0","","","heartS.png","","",""
"image-slider-2AFC","644","1628053","0.0-51.24-1.24","1933","","","","37","","","","","","","","sizeS.png","1301","37",""
"html-keyboard-response","645","1628856","0.0-51.24-2.24","null","","","","","","","null","","","","","","","",""
"image-selector-fb","646","1630398","0.0-51.25-0.25","1039","pics2/FR3.jpg,pics2/SA6.jpg","","","","","","","false","0","","","sizeS.png","","",""
"image-slider-2AFC","647","1632096","0.0-51.25-1.25","1696","","","","-63","","","","","","","","sizeS.png","1064","-63",""
"html-keyboard-response","648","1632899","0.0-51.25-2.25","null","","","","","","","null","","","","","","","",""
"image-selector-fb","649","1635905","0.0-51.26-0.26","null","pics2/VE2.jpg,pics2/SA3.jpg","","","","","","","false","null","","","noS.png","","",""
"image-slider-2AFC","650","1637569","0.0-51.26-1.26","1661","","","","-31","","","","","","","","sizeS.png","1070","-31",""
"html-keyboard-response","651","1638422","0.0-51.26-2.26","null","","","","","","","null","","","","","","","",""
"image-selector-fb","652","1641427","0.0-51.27-0.27","null","pics2/SW3.jpg,pics2/SA6.jpg","","","","","","","false","null","","","noS.png","","",""
"image-slider-2AFC","653","1644283","0.0-51.27-1.27","2853","","","","-29","","","","","","","","heartS.png","1553","-29",""
"html-keyboard-response","654","1645036","0.0-51.27-2.27","null","","","","","","","null","","","","","","","",""
"image-selector-fb","655","1648042","0.0-51.28-0.28","null","pics2/SW3.jpg,pics2/FR3.jpg","","","","","","","false","null","","","noS.png","","",""
"image-slider-2AFC","656","1651457","0.0-51.28-1.28","3413","","","","64","","","","","","","","heartS.png","2584","64",""
"html-keyboard-response","657","1652210","0.0-51.28-2.28","null","","","","","","","null","","","","","","","",""
"image-selector-fb","658","1655216","0.0-51.29-0.29","null","pics2/SW3.jpg,pics2/FR1.jpg","","","","","","","false","null","","","noS.png","","",""
"image-slider-2AFC","659","1657597","0.0-51.29-1.29","2379","","","","72","","","","","","","","heartS.png","1560","72",""
"html-keyboard-response","660","1658350","0.0-51.29-2.29","null","","","","","","","null","","","","","","","",""
"image-selector-fb","661","1661355","0.0-51.30-0.30","null","pics2/SA4.jpg,pics2/SA3.jpg","","","","","","","false","null","","","noS.png","","",""
"image-slider-2AFC","662","1664328","0.0-51.30-1.30","2972","","","","63","","","","","","","","sizeS.png","1568","63",""
"html-keyboard-response","663","1665181","0.0-51.30-2.30","null","","","","","","","null","","","","","","","",""
"image-selector-fb","664","1668186","0.0-51.31-0.31","null","pics2/SA6.jpg,pics2/FR1.jpg","","","","","","","false","null","","","noS.png","","",""
"image-slider-2AFC","665","1670116","0.0-51.31-1.31","1928","","","","87","","","","","","","","heartS.png","1129","87",""
"html-keyboard-response","666","1670919","0.0-51.31-2.31","null","","","","","","","null","","","","","","","",""
"image-selector-fb","667","1674495","0.0-51.32-0.32","3071","pics2/VE2.jpg,pics2/FR4.jpg","","","","","","","false","0","","","sizeS.png","","",""
"image-slider-2AFC","668","1677178","0.0-51.32-1.32","2681","","","","-38","","","","","","","","sizeS.png","1924","-38",""
"html-keyboard-response","669","1677981","0.0-51.32-2.32","null","","","","","","","null","","","","","","","",""
"image-selector-fb","670","1680108","0.0-51.33-0.33","1622","pics2/SA6.jpg,pics2/SW3.jpg","","","","","","","true","1","","","sizeS.png","","",""
"image-slider-2AFC","671","1682192","0.0-51.33-1.33","2081","","","","29","","","","","","","","sizeS.png","1340","29",""
"html-keyboard-response","672","1682995","0.0-51.33-2.33","null","","","","","","","null","","","","","","","",""
"image-selector-fb","673","1686001","0.0-51.34-0.34","null","pics2/SW3.jpg,pics2/SA3.jpg","","","","","","","false","null","","","noS.png","","",""
"image-slider-2AFC","674","1687932","0.0-51.34-1.34","1928","","","","-34","","","","","","","","sizeS.png","1360","-34",""
"html-keyboard-response","675","1688784","0.0-51.34-2.34","null","","","","","","","null","","","","","","","",""
"image-selector-fb","676","1690467","0.0-51.35-0.35","1178","pics2/FR2.jpg,pics2/SA4.jpg","","","","","","","false","0","","","sizeS.png","","",""
"image-slider-2AFC","677","1693182","0.0-51.35-1.35","2713","","","","-88","","","","","","","","heartS.png","1348","-88",""
"html-keyboard-response","678","1693985","0.0-51.35-2.35","null","","","","","","","null","","","","","","","",""
"image-selector-fb","679","1695615","0.0-51.36-0.36","1125","pics2/VE2.jpg,pics2/FR1.jpg","","","","","","","true","1","","","sizeS.png","","",""
"image-slider-2AFC","680","1697738","0.0-51.36-1.36","2121","","","","29","","","","","","","","sizeS.png","1592","29",""
"html-keyboard-response","681","1698591","0.0-51.36-2.36","null","","","","","","","null","","","","","","","",""
"image-selector-fb","682","1700384","0.0-51.37-0.37","1288","pics2/SA6.jpg,pics2/FR6.jpg","","","","","","","true","1","","","heartS.png","","",""
"image-slider-2AFC","683","1703508","0.0-51.37-1.37","3123","","","","2","","","","","","","","sizeS.png","2572","2",""
"html-keyboard-response","684","1704312","0.0-51.37-2.37","null","","","","","","","null","","","","","","","",""
"image-selector-fb","685","1707318","0.0-51.38-0.38","null","pics2/FR4.jpg,pics2/SA6.jpg","","","","","","","false","null","","","noS.png","","",""
"image-slider-2AFC","686","1708926","0.0-51.38-1.38","1606","","","","13","","","","","","","","sizeS.png","1157","13",""
"html-keyboard-response","687","1709779","0.0-51.38-2.38","null","","","","","","","null","","","","","","","",""
"image-selector-fb","688","1711288","0.0-51.39-0.39","1005","pics2/FR2.jpg,pics2/VE2.jpg","","","","","","","false","0","","","heartS.png","","",""
"image-slider-2AFC","689","1713799","0.0-51.39-1.39","2508","","","","-94","","","","","","","","heartS.png","1806","-94",""
"html-keyboard-response","690","1714501","0.0-51.39-2.39","null","","","","","","","null","","","","","","","",""
"image-selector-fb","691","1716081","0.0-51.40-0.40","1076","pics2/SA4.jpg,pics2/SA6.jpg","","","","","","","false","0","","","heartS.png","","",""
"image-slider-2AFC","692","1717922","0.0-51.40-1.40","1838","","","","17","","","","","","","","sizeS.png","1301","17",""
"html-keyboard-response","693","1718625","0.0-51.40-2.40","null","","","","","","","null","","","","","","","",""
"image-selector-fb","694","1721631","0.0-51.41-0.41","null","pics2/VE2.jpg,pics2/FR1.jpg","","","","","","","false","null","","","noS.png","","",""
"image-slider-2AFC","695","1725328","0.0-51.41-1.41","3696","","","","100","","","","","","","","heartS.png","2953","100",""
"html-keyboard-response","696","1726032","0.0-51.41-2.41","null","","","","","","","null","","","","","","","",""
"image-selector-fb","697","1728400","0.0-51.42-0.42","1863","pics2/SA3.jpg,pics2/VE2.jpg","","","","","","","true","1","","","heartS.png","","",""
"image-slider-2AFC","698","1731430","0.0-51.42-1.42","3029","","","","-6","","","","","","","","sizeS.png","2602","-6",""
"html-keyboard-response","699","1732133","0.0-51.42-2.42","null","","","","","","","null","","","","","","","",""
"image-selector-fb","700","1733729","0.0-51.43-0.43","1091","pics2/FR2.jpg,pics2/SW4.jpg","","","","","","","false","0","","","heartS.png","","",""
"image-slider-2AFC","701","1735497","0.0-51.43-1.43","1767","","","","-66","","","","","","","","heartS.png","1191","-66",""
"html-keyboard-response","702","1736350","0.0-51.43-2.43","null","","","","","","","null","","","","","","","",""
"image-selector-fb","703","1739009","0.0-51.44-0.44","2155","pics2/SW4.jpg,pics2/FR6.jpg","","","","","","","true","1","","","heartS.png","","",""
"image-slider-2AFC","704","1740566","0.0-51.44-1.44","1556","","","","31","","","","","","","","heartS.png","932","31",""
"html-keyboard-response","705","1741269","0.0-51.44-2.44","null","","","","","","","null","","","","","","","",""
"image-selector-fb","706","1743274","0.0-51.45-0.45","1500","pics2/SW4.jpg,pics2/FR1.jpg","","","","","","","true","1","","","sizeS.png","","",""
"image-slider-2AFC","707","1745618","0.0-51.45-1.45","2342","","","","93","","","","","","","","heartS.png","1624","93",""
"html-keyboard-response","708","1746322","0.0-51.45-2.45","null","","","","","","","null","","","","","","","",""
"image-selector-fb","709","1749327","0.0-51.46-0.46","null","pics2/SW1.jpg,pics2/SW4.jpg","","","","","","","false","null","","","noS.png","","",""
"image-slider-2AFC","710","1751856","0.0-51.46-1.46","2527","","","","60","","","","","","","","heartS.png","1809","60",""
"html-keyboard-response","711","1752659","0.0-51.46-2.46","null","","","","","","","null","","","","","","","",""
