"trial_type","trial_index","time_elapsed","internal_node_id","rt","stimulus","button_pressed","success","response","cat","value","key_press","correct","image_click","first_click_rt","first_click_val","symbol","all_click_rt","all_click_val","view_history"
"pavlovia","0","5","0.0-0.0","","","","","","","","","","","","","","","",""
"html-button-response","1","3768","0.0-1.0","3761","<div style='width: 700px; font-size: 150%'><font size='40'>  Welcome to our study!</font><br><br><br> <small> Our experiment is about <i>decision making</i>. You will choose and rate different food items, such as these: <br><br> <div><img src='food_combo2.png', height = '400px'></img></div>","0","","","","","","","","","","","","",""
"html-button-response","2","12097","0.0-2.0","8326","<div style='width: 700px; font-size: 150%'><br><br><br><small> <u><i>This is a multi-part study.</i></u><br><br> In the first part you will rate 24 food items twice.<br><br><div><img src=""rat1.png"" style=""width: 25%""></img></div><br>In the second part (longest) you will make repeated choices and judgements concerning the food items.<br><br><div><img src=""mainx.png"" style=""width: 50%""></img></div><br>In the third and final part, you will rate the items again and answer few short questionnaires.<br><br><div><img src=""rat2.png"" style=""width: 50%""></img></div><br><br>","0","","","","","","","","","","","","",""
"fullscreen","3","19272","0.0-3.0","","","","true","","","","","","","","","","","",""
"html-button-response","4","32771","0.0-4.0","13497","<div style='width: 900px; font-size: 150%;' <font size='20%'> In the first part of the task you will use the mouse to rate food items on <i>2 scales</i> </font></div><br><br><div style='width: 900px'><div style='float: left; width: 50%; margin-right:2.5em'><img src='heartS.png'></img><p class='small' style='text-align: justify'>When you see the heart cue you will rate food items in terms of how much like them/would like to eat them <i>right now</i>. You will rate them on a continuous scale from left (strong dislike) to right (strong liking). Before submitting your rating, try imagining how the item tastes and how much you desire it.<br><br></p></div><div ><img src='sizeS.png'></img><p class='small' style='text-align: justify'>When you see the size cue, you will rate the same food items in terms of their size. The scale goes from left (tiny) to right (very large). You should assess picture size <i><u>relative</i></u> to the white background. <b>Remember:</b> rate the size of the picture, <u>not</u> the size of the item in real life. </p></div><div style='width: 900px'><br><br><b><i>Notice:</b> by starting the rating you agree that your sumbission might be rejected at an early stage and the experiment might end, if your size ratings are not at least modestly related to objective sizes, or if you repeat the same value ratings too many times. If you don't agree, please exit by closing the browser window. </i><br><br><br>","0","","","","","","","","","","","","",""
"html-button-response","5","38333","0.0-5.0","5561","<div><img src='heartS.png'></img></div><br><div style='text-align: justify; width: 700px'>Using the mouse, rate the <b><i>likeness</b></i> of the food items (how much you like them/would like to eat them <i>right now</i>). Far right-end of the scale indicates an item you <i>like a lot</i>. Far left-end indicates an item you <i>dislike a lot</i>. Think about each answer.   <ul><li>Try <b><i>not</b></i> to give identical rating to different items.</li><li>Use the whole scale, and <b><i>not</b></i> just the extremes</ul></div><br>","0","","","","","","","","","","","","",""
"image-slider-response","6","40601","0.0-6.0-0.0-0.0","2262","pics2/SW2.jpg","","","67","SW","","","","","","","","","",""
"image-slider-response","7","42258","0.0-6.0-0.0-0.1","1449","pics2/SW5.jpg","","","61","SW","","","","","","","","","",""
"image-slider-response","8","44210","0.0-6.0-0.0-0.2","1742","pics2/SA4.jpg","","","65","SA","","","","","","","","","",""
"image-slider-response","9","46424","0.0-6.0-0.0-0.3","1997","pics2/FR4.jpg","","","62","FR","","","","","","","","","",""
"image-slider-response","10","49008","0.0-6.0-0.0-0.4","2375","pics2/VE2.jpg","","","38","VE","","","","","","","","","",""
"image-slider-response","11","50633","0.0-6.0-0.0-0.5","1408","pics2/FR3.jpg","","","68","FR","","","","","","","","","",""
"image-slider-response","12","52575","0.0-6.0-0.0-0.6","1735","pics2/SW6.jpg","","","79","SW","","","","","","","","","",""
"image-slider-response","13","54687","0.0-6.0-0.0-0.7","1900","pics2/VE6.jpg","","","96","VE","","","","","","","","","",""
"image-slider-response","14","57007","0.0-6.0-0.0-0.8","2109","pics2/SA1.jpg","","","59","SA","","","","","","","","","",""
"image-slider-response","15","59069","0.0-6.0-0.0-0.9","1845","pics2/SW4.jpg","","","68","SW","","","","","","","","","",""
"image-slider-response","16","60684","0.0-6.0-0.0-0.10","1401","pics2/SW1.jpg","","","60","SW","","","","","","","","","",""
"image-slider-response","17","62695","0.0-6.0-0.0-0.11","1799","pics2/SA6.jpg","","","37","SA","","","","","","","","","",""
"image-slider-response","18","65357","0.0-6.0-0.0-0.12","2447","pics2/VE4.jpg","","","16","VE","","","","","","","","","",""
"image-slider-response","19","67613","0.0-6.0-0.0-0.13","2047","pics2/FR1.jpg","","","58","FR","","","","","","","","","",""
"image-slider-response","20","69134","0.0-6.0-0.0-0.14","1307","pics2/FR6.jpg","","","54","FR","","","","","","","","","",""
"image-slider-response","21","71342","0.0-6.0-0.0-0.15","1997","pics2/SA2.jpg","","","39","SA","","","","","","","","","",""
"image-slider-response","22","73882","0.0-6.0-0.0-0.16","2334","pics2/VE3.jpg","","","22","VE","","","","","","","","","",""
"image-slider-response","23","76161","0.0-6.0-0.0-0.17","2074","pics2/VE5.jpg","","","3","VE","","","","","","","","","",""
"image-slider-response","24","78754","0.0-6.0-0.0-0.18","2386","pics2/SW3.jpg","","","32","SW","","","","","","","","","",""
"image-slider-response","25","81531","0.0-6.0-0.0-0.19","2562","pics2/VE1.jpg","","","6","VE","","","","","","","","","",""
"image-slider-response","26","83059","0.0-6.0-0.0-0.20","1318","pics2/SA3.jpg","","","62","SA","","","","","","","","","",""
"image-slider-response","27","85628","0.0-6.0-0.0-0.21","2356","pics2/FR2.jpg","","","63","FR","","","","","","","","","",""
"image-slider-response","28","87561","0.0-6.0-0.0-0.22","1721","pics2/SA5.jpg","","","13","SA","","","","","","","","","",""
"image-slider-response","29","89917","0.0-6.0-0.0-0.23","2143","pics2/FR5.jpg","","","79","FR","","","","","","","","","",""
"html-button-response","30","90968","0.0-7.0","837","<div style='width: 900px;'> <font size = 6><b> End of the first rating</b><br><br>","0","","","","","","","","","","","","",""
"html-button-response","31","100816","0.0-9.0","9846","<div ><img src='sizeS.png'></img></div><br><div style='text-align: justify; width: 700px'> Using the mouse, rate the <b><i>size</b></i> of the food items <b><i> relative to the white background.</b></i> Right-end of the scale indicates a <i>very large item</i>, which covers a large portion of the white rectangle. Left-end indicates a <i>very tiny</i> item which covers a tiny portion of the white rectangle.<br><br><i><u>Remember</i></u>: everything that is not the white background also contributes to item size (e.g. packing, plates, ect.)<br><br> Please keep in mind that if the accuracy of ratings do not allign well with actual sizes, the experiment will end.  As a result it will be consider incomplete and therefore no payment would be made. Good luck!<br><br></div><br>","0","","","","","","","","","","","","",""
"html-button-response","32","103510","0.0-10.0","2692","<div ><img src='sizeS.png'></img></div><br><b><font size=6>Examples of items that you might encounter</b><br><div style='width: 750px;'><div style='width: 33.33%; float:left'><br><br><br><i>Large Item</i><br><br><img src='large.jpg', width=200px></img></div><div style='float:right'><br><br><br><i>Small Item</i><br><br><img src='small.jpg', width=200px></img></div><div ><br><br><br><i>Medium Item</i><br><br><img src='med.jpg', width=200px></img></div></div><br><br>","0","","","","","","","","","","","","",""
"image-slider-response","33","105561","0.0-11.0-0.0-0.0","2048","pics2/FR5.jpg","","","75","null","","","","","","","","","",""
"image-slider-response","34","107155","0.0-11.0-0.0-0.1","1389","pics2/VE2.jpg","","","87","null","","","","","","","","","",""
"image-slider-response","35","109943","0.0-11.0-0.0-0.2","2584","pics2/SW4.jpg","","","75","null","","","","","","","","","",""
"image-slider-response","36","111592","0.0-11.0-0.0-0.3","1439","pics2/VE6.jpg","","","74","null","","","","","","","","","",""
"image-slider-response","37","113413","0.0-11.0-0.0-0.4","1607","pics2/FR6.jpg","","","34","null","","","","","","","","","",""
"image-slider-response","38","115442","0.0-11.0-0.0-0.5","1813","pics2/SW1.jpg","","","100","null","","","","","","","","","",""
"image-slider-response","39","117404","0.0-11.0-0.0-0.6","1747","pics2/VE4.jpg","","","93","null","","","","","","","","","",""
"image-slider-response","40","120055","0.0-11.0-0.0-0.7","2443","pics2/SA3.jpg","","","100","null","","","","","","","","","",""
"image-slider-response","41","121987","0.0-11.0-0.0-0.8","1718","pics2/SA6.jpg","","","100","null","","","","","","","","","",""
"image-slider-response","42","124794","0.0-11.0-0.0-0.9","2594","pics2/SW5.jpg","","","100","null","","","","","","","","","",""
"image-slider-response","43","127374","0.0-11.0-0.0-0.10","2370","pics2/SA2.jpg","","","39","null","","","","","","","","","",""
"image-slider-response","44","129466","0.0-11.0-0.0-0.11","1889","pics2/SA1.jpg","","","100","null","","","","","","","","","",""
"image-slider-response","45","131673","0.0-11.0-0.0-0.12","2000","pics2/SW3.jpg","","","100","null","","","","","","","","","",""
"image-slider-response","46","133765","0.0-11.0-0.0-0.13","1890","pics2/VE1.jpg","","","91","null","","","","","","","","","",""
"image-slider-response","47","136042","0.0-11.0-0.0-0.14","2070","pics2/VE5.jpg","","","100","null","","","","","","","","","",""
"image-slider-response","48","138757","0.0-11.0-0.0-0.15","2503","pics2/SW6.jpg","","","44","null","","","","","","","","","",""
"image-slider-response","49","141112","0.0-11.0-0.0-0.16","2152","pics2/FR1.jpg","","","100","null","","","","","","","","","",""
"image-slider-response","50","143614","0.0-11.0-0.0-0.17","2286","pics2/SA4.jpg","","","20","null","","","","","","","","","",""
"image-slider-response","51","145869","0.0-11.0-0.0-0.18","2047","pics2/FR3.jpg","","","100","null","","","","","","","","","",""
"image-slider-response","52","148096","0.0-11.0-0.0-0.19","2024","pics2/FR4.jpg","","","100","null","","","","","","","","","",""
"image-slider-response","53","150656","0.0-11.0-0.0-0.20","2355","pics2/SW2.jpg","","","100","null","","","","","","","","","",""
"image-slider-response","54","152939","0.0-11.0-0.0-0.21","2081","pics2/VE3.jpg","","","78","null","","","","","","","","","",""
"image-slider-response","55","156064","0.0-11.0-0.0-0.22","2922","pics2/SA5.jpg","","","53","null","","","","","","","","","",""
"image-slider-response","56","158285","0.0-11.0-0.0-0.23","2010","pics2/FR2.jpg","","","73","null","","","","","","","","","",""
"html-button-response","57","159424","0.0-12.0","931","<div style='width: 900px;'> <font size = 6><b> End of the second rating</b><br><br>","0","","","","","","","","","","","","",""
"html-button-response","58","162202","0.0-13.0","2776","<div style='width: 900px;'>Now please rate the items for the second time. <br><br>This is not a memory test - you don't need to be consistent with your previous ratings. Just as before, try to make accurate judgements.<br><br>","0","","","","","","","","","","","","",""
"html-button-response","59","163751","0.0-14.0","1547","<div><img src='heartS.png'></img></div><br><div style='text-align: justify; width: 700px'>Using the mouse, rate the <b><i>likeness</b></i> of the food items (how much you like them/would like to eat them <i>right now</i>). Far right-end of the scale indicates an item you <i>like a lot</i>. Far left-end indicates an item you <i>dislike a lot</i>. Think about each answer.   <ul><li>Try <b><i>not</b></i> to give identical rating to different items.</li><li>Use the whole scale, and <b><i>not</b></i> just the extremes</ul></div><br>","0","","","","","","","","","","","","",""
"image-slider-response","60","166155","0.0-15.0-0.0-0.0","2400","pics2/FR2.jpg","","","57","FR","","","","","","","","","",""
"image-slider-response","61","167547","0.0-15.0-0.0-0.1","1180","pics2/SW4.jpg","","","59","SW","","","","","","","","","",""
"image-slider-response","62","168935","0.0-15.0-0.0-0.2","1171","pics2/SW2.jpg","","","62","SW","","","","","","","","","",""
"image-slider-response","63","170378","0.0-15.0-0.0-0.3","1238","pics2/FR6.jpg","","","40","FR","","","","","","","","","",""
"image-slider-response","64","171822","0.0-15.0-0.0-0.4","1229","pics2/SW5.jpg","","","33","SW","","","","","","","","","",""
"image-slider-response","65","173360","0.0-15.0-0.0-0.5","1325","pics2/VE1.jpg","","","62","VE","","","","","","","","","",""
"image-slider-response","66","175376","0.0-15.0-0.0-0.6","1799","pics2/FR4.jpg","","","53","FR","","","","","","","","","",""
"image-slider-response","67","176699","0.0-15.0-0.0-0.7","1118","pics2/SW3.jpg","","","41","SW","","","","","","","","","",""
"image-slider-response","68","178100","0.0-15.0-0.0-0.8","1191","pics2/SA2.jpg","","","28","SA","","","","","","","","","",""
"image-slider-response","69","179760","0.0-15.0-0.0-0.9","1457","pics2/SA6.jpg","","","27","SA","","","","","","","","","",""
"image-slider-response","70","181674","0.0-15.0-0.0-0.10","1704","pics2/SA3.jpg","","","68","SA","","","","","","","","","",""
"image-slider-response","71","184087","0.0-15.0-0.0-0.11","2197","pics2/VE5.jpg","","","0","VE","","","","","","","","","",""
"image-slider-response","72","185695","0.0-15.0-0.0-0.12","1394","pics2/SA4.jpg","","","60","SA","","","","","","","","","",""
"image-slider-response","73","187324","0.0-15.0-0.0-0.13","1424","pics2/SW1.jpg","","","22","SW","","","","","","","","","",""
"image-slider-response","74","188754","0.0-15.0-0.0-0.14","1216","pics2/SA1.jpg","","","31","SA","","","","","","","","","",""
"image-slider-response","75","190185","0.0-15.0-0.0-0.15","1223","pics2/SW6.jpg","","","34","SW","","","","","","","","","",""
"image-slider-response","76","191509","0.0-15.0-0.0-0.16","1118","pics2/VE4.jpg","","","29","VE","","","","","","","","","",""
"image-slider-response","77","193084","0.0-15.0-0.0-0.17","1360","pics2/VE3.jpg","","","28","VE","","","","","","","","","",""
"image-slider-response","78","194299","0.0-15.0-0.0-0.18","998","pics2/SA5.jpg","","","38","SA","","","","","","","","","",""
"image-slider-response","79","195656","0.0-15.0-0.0-0.19","1145","pics2/FR5.jpg","","","13","FR","","","","","","","","","",""
"image-slider-response","80","197151","0.0-15.0-0.0-0.20","1287","pics2/VE6.jpg","","","63","VE","","","","","","","","","",""
"image-slider-response","81","198799","0.0-15.0-0.0-0.21","1423","pics2/FR3.jpg","","","72","FR","","","","","","","","","",""
"image-slider-response","82","200318","0.0-15.0-0.0-0.22","1313","pics2/FR1.jpg","","","65","FR","","","","","","","","","",""
"image-slider-response","83","201892","0.0-15.0-0.0-0.23","1363","pics2/VE2.jpg","","","21","VE","","","","","","","","","",""
"call-function","84","202112","0.0-16.0","","","","","","","","","","","","","","","",""
"call-function","85","202118","0.0-17.0","","","","","","","","","","","","","","","",""
"html-button-response","86","202909","0.0-18.0","789","<div style='width: 900px;'> <font size = 6><b> End of the first rating</b><br><br>","0","","","","","","","","","","","","",""
"html-button-response","87","203680","0.0-19.0","769","<div ><img src='sizeS.png'></img></div><br><div style='text-align: justify; width: 700px'> Using the mouse, rate the <b><i>size</b></i> of the food items <b><i> relative to the white background.</b></i> Right-end of the scale indicates a <i>very large item</i>, which covers a large portion of the white rectangle. Left-end indicates a <i>very tiny</i> item which covers a tiny portion of the white rectangle.<br><br><i><u>Remember</i></u>: everything that is not the white background also contributes to item size (e.g. packing, plates, ect.)<br><br> Please keep in mind that if the accuracy of ratings do not allign well with actual sizes, the experiment will end.  As a result it will be consider incomplete and therefore no payment would be made. Good luck!<br><br></div><br>","0","","","","","","","","","","","","",""
"image-slider-response","88","205089","0.0-20.0-0.0-0.0","1407","pics2/VE5.jpg","","","63","null","","","","","","","","","",""
"image-slider-response","89","206467","0.0-20.0-0.0-0.1","1164","pics2/FR2.jpg","","","74","null","","","","","","","","","",""
"image-slider-response","90","208685","0.0-20.0-0.0-0.2","2002","pics2/SW2.jpg","","","89","null","","","","","","","","","",""
"image-slider-response","91","210257","0.0-20.0-0.0-0.3","1355","pics2/SW4.jpg","","","89","null","","","","","","","","","",""
"image-slider-response","92","211700","0.0-20.0-0.0-0.4","1226","pics2/SA4.jpg","","","78","null","","","","","","","","","",""
"image-slider-response","93","213089","0.0-20.0-0.0-0.5","1171","pics2/FR4.jpg","","","82","null","","","","","","","","","",""
"image-slider-response","94","214610","0.0-20.0-0.0-0.6","1314","pics2/SW3.jpg","","","100","null","","","","","","","","","",""
"image-slider-response","95","216400","0.0-20.0-0.0-0.7","1572","pics2/FR3.jpg","","","59","null","","","","","","","","","",""
"image-slider-response","96","217910","0.0-20.0-0.0-0.8","1296","pics2/FR1.jpg","","","100","null","","","","","","","","","",""
"image-slider-response","97","219484","0.0-20.0-0.0-0.9","1359","pics2/VE4.jpg","","","100","null","","","","","","","","","",""
"image-slider-response","98","221006","0.0-20.0-0.0-0.10","1309","pics2/SA2.jpg","","","37","null","","","","","","","","","",""
"image-slider-response","99","222448","0.0-20.0-0.0-0.11","1231","pics2/VE2.jpg","","","74","null","","","","","","","","","",""
"image-slider-response","100","224099","0.0-20.0-0.0-0.12","1445","pics2/SA3.jpg","","","100","null","","","","","","","","","",""
"image-slider-response","101","226099","0.0-20.0-0.0-0.13","1794","pics2/SA6.jpg","","","80","null","","","","","","","","","",""
"image-slider-response","102","228222","0.0-20.0-0.0-0.14","1912","pics2/VE1.jpg","","","39","null","","","","","","","","","",""
"image-slider-response","103","230653","0.0-20.0-0.0-0.15","2218","pics2/SA1.jpg","","","100","null","","","","","","","","","",""
"image-slider-response","104","231989","0.0-20.0-0.0-0.16","1123","pics2/SW6.jpg","","","79","null","","","","","","","","","",""
"image-slider-response","105","233842","0.0-20.0-0.0-0.17","1635","pics2/FR6.jpg","","","69","null","","","","","","","","","",""
"image-slider-response","106","236228","0.0-20.0-0.0-0.18","2180","pics2/SW1.jpg","","","100","null","","","","","","","","","",""
"image-slider-response","107","240351","0.0-20.0-0.0-0.19","3909","pics2/VE3.jpg","","","100","null","","","","","","","","","",""
"image-slider-response","108","244254","0.0-20.0-0.0-0.20","3689","pics2/VE6.jpg","","","68","null","","","","","","","","","",""
"image-slider-response","109","246411","0.0-20.0-0.0-0.21","1947","pics2/FR5.jpg","","","69","null","","","","","","","","","",""
"image-slider-response","110","250327","0.0-20.0-0.0-0.22","3714","pics2/SA5.jpg","","","4","null","","","","","","","","","",""
"image-slider-response","111","252492","0.0-20.0-0.0-0.23","1953","pics2/SW5.jpg","","","70","null","","","","","","","","","",""
"call-function","112","252711","0.0-21.0","","","","","","","","","","","","","","","",""
"html-button-response","113","253714","0.0-22.0","1002","<div style='width: 900px;'> <font size = 6><b> End of the second rating</b><br><br>","0","","","","","","","","","","","","",""
"pavlovia","114","253731","0.0-23.0","","","","","","","","","","","","","","","",""
"html-keyboard-response","115","258736","0.0-24.0","null","<div style='width: 700px;'> <font size=6><b>SHORT BREAK</font></b><br><br><i> Please wait 5 seconds to continue</i></div> ","","","","","","null","","","","","","","",""
"pavlovia","116","258739","0.0-25.0","","","","","","","","","","","","","","","",""
"html-button-response","117","265445","0.0-26.0","6704","<div style='width: 700px;'>In the main part of the study, you will be choosing between 2 items. When it's time to choose,  this symbol will appear: <br><br><img src='chooseS.png'></img><br><br>Below, a cue will signify the type of choice: </div><br><div style='width: 700px;'><div style='float: left; width: 50%'><img src='heartS.png'></img><p class='small'>Heart cue means you should choose the item you <b><i>prefer</b></i> more.</p></div><div class='float: right; width:50%'><img src='sizeS.png'></img><p class='small'>Size cue means you should choose the <b><i>larger</b></i> item. </p></div></div><br><div style='width: 700px;'>When you click, a green square will appear around the item you chose.<br></div><div><br>","0","","","","","","","","","","","","",""
"image-selector-fb-tut","118","270686","0.0-27.0","4232","0232.jpg,0123.jpg","","","","","","","false","0","","","","","",""
"image-selector-fb-tut","119","273863","0.0-28.0","2173","0232.jpg,0123.jpg","","","","","","","true","1","","","","","",""
"html-button-response","120","275654","0.0-29.0","1791","<div style='width: 900px;'>Your choices should be both <b><i>fast and accurate</b></i>. <br><br>You will have <i>4 seconds</i> to make each choice, which should be enough consider the options and click on one of the items.<br><br>","0","","","","","","","","","","","","",""
"html-button-response","121","278220","0.0-30.0","2564","<div style='width: 900px;'>Additionally, on some choice trials you will see the <b><i>no-choice cue</b></i>: <br><br><img src='noS.png'></img> <br><br>This cue means you can't make any choice. You can examine the items, but  can't click on any of them. Just wait patiently for the cue to dissapear.<br><br>","0","","","","","","","","","","","","",""
"image-selector-fb-tut","122","280226","0.0-31.0","null","0232.jpg,0123.jpg","","","","","","","false","null","","","","","",""
"html-button-response","123","286247","0.0-32.0","6020","<div style='width: 900px;'>After each choice the items will remain on the screen and you will see this symbol: <br><br><img src='judgeS.png'></img> <br><br>This means you should rate<b> the magnitude of the difference</b> between the items using a scale: </div><br><div style='width: 900px; '><div style='float: left; width: 50%; margin-right: 2.5em; align-self:left'><img src='heartS.png'></img><p class='small' style = 'text-align: justify;'>Heart cue means you should rate <b>how much you prefer</b> one of the items over the other. Moving the scale indicator to the left means you prefer the left one; moving it to the right - right one. The more you prefer one of them, the more towards that side you should move the scale indicator. </p></div><div class='float: right; width: 50%; margin-left: 2.5em;'><img src='sizeS.png'></img><p class='small' style='text-align: justify'>Size cue means you should rate <b>how much larger</b> is one of the items over the other. Moving the scale indicator to the left means you think the left is larger; moving it to the right - right one. The greater the difference in size, the more towards that side you should move the scale indicator.</div><br>","0","","","","","","","","","","","","",""
"image-slider-2AFC-tut","124","290061","0.0-33.0","3811","","","","30","","","","","","","","","","",""
"image-slider-2AFC-tut","125","293464","0.0-34.0","3401","","","","0","","","","","","","","","","",""
"html-button-response","126","302538","0.0-35.0","9073","<br><br><font size = 36><b> Examples </b></font><br><br><i> 1) I would like to eat some croissants a <b>lot more</b> than doritos right now:</i><br><img src='ex1.PNG', width='62%'></img><br><br><br><i> 2) I would like to eat some doritos a <b>bit more</b> than croissants right now, but just slightly:</i><br><img src='ex2.PNG' width='62%'></img>","0","","","","","","","","","","","","",""
"html-button-response","127","307365","0.0-36.0","4825","<div style='width: 900px;'><i>Now you know everything you need to do the task!</i> <br><br>Let's start by doing a <b>short training</b>, so you'll get used to how it works. </div><br>","0","","","","","","","","","","","","",""
"image-selector-fb","128","311893","0.0-37.0-0.0","null","pics2/FR5.jpg,pics2/SW1.jpg","","","","","","","false","null","","","sizeS.png","","",""
"image-slider-2AFC","129","311895","0.0-37.0-1.0","null","","","","null","","","","","","","","sizeS.png","","",""
"html-keyboard-response","130","312765","0.0-37.0-2.0","null","","","","","","","null","","","","","","","",""
"image-selector-fb","131","315347","0.0-37.1-0.1","2069","pics2/SA5.jpg,pics2/SA1.jpg","","","","","","","true","1","","","heartS.png","","",""
"image-slider-2AFC","132","320372","0.0-37.1-1.1","null","","","","null","","","","","","","","heartS.png","","",""
"html-keyboard-response","133","321138","0.0-37.1-2.1","null","","","","","","","null","","","","","","","",""
"image-selector-fb","134","323923","0.0-37.2-0.2","2269","pics2/SW3.jpg,pics2/VE5.jpg","","","","","","","false","0","","","sizeS.png","","",""
"image-slider-2AFC","135","328937","0.0-37.2-1.2","null","","","","null","","","","","","","","sizeS.png","","",""
"html-keyboard-response","136","329778","0.0-37.2-2.2","null","","","","","","","null","","","","","","","",""
"image-selector-fb","137","332786","0.0-37.3-0.3","null","pics2/VE2.jpg,pics2/SA1.jpg","","","","","","","false","null","","","noS.png","","",""
"image-slider-2AFC","138","337790","0.0-37.3-1.3","null","","","","null","","","","","","","","heartS.png","","",""
"html-keyboard-response","139","338643","0.0-37.3-2.3","null","","","","","","","null","","","","","","","",""
"image-selector-fb","140","340766","0.0-37.4-0.4","1606","pics2/SW3.jpg,pics2/VE1.jpg","","","","","","","false","0","","","sizeS.png","","",""
"image-slider-2AFC","141","345772","0.0-37.4-1.4","null","","","","null","","","","","","","","heartS.png","","",""
"html-keyboard-response","142","346476","0.0-37.4-2.4","null","","","","","","","null","","","","","","","",""
"image-selector-fb","143","349763","0.0-37.5-0.5","2782","pics2/FR5.jpg,pics2/SA6.jpg","","","","","","","false","0","","","sizeS.png","","",""
"image-slider-2AFC","144","352571","0.0-37.5-1.5","2805","","","","-58","","","","","","","","heartS.png","2147","-58",""
"html-keyboard-response","145","353349","0.0-37.5-2.5","null","","","","","","","null","","","","","","","",""
"image-selector-fb","146","354614","0.0-37.6-0.6","753","pics2/FR5.jpg,pics2/VE4.jpg","","","","","","","false","0","","","sizeS.png","","",""
"image-slider-2AFC","147","356523","0.0-37.6-1.6","1907","","","","-65","","","","","","","","sizeS.png","1015","-65",""
"html-keyboard-response","148","357385","0.0-37.6-2.6","null","","","","","","","null","","","","","","","",""
"image-selector-fb","149","360424","0.0-37.7-0.7","null","pics2/VE3.jpg,pics2/VE5.jpg","","","","","","","false","null","","","noS.png","","",""
"image-slider-2AFC","150","362611","0.0-37.7-1.7","2184","","","","8","","","","","","","","sizeS.png","1710","8",""
"html-keyboard-response","151","363394","0.0-37.7-2.7","null","","","","","","","null","","","","","","","",""
"image-selector-fb","152","365175","0.0-37.8-0.8","1265","pics2/SW1.jpg,pics2/VE1.jpg","","","","","","","true","1","","","heartS.png","","",""
"image-slider-2AFC","153","368628","0.0-37.8-1.8","3450","","","","-70","","","","","","","","sizeS.png","1371,2545","33,-70",""
"html-keyboard-response","154","369500","0.0-37.8-2.8","null","","","","","","","null","","","","","","","",""
"image-selector-fb","155","373515","0.0-37.9-0.9","3510","pics2/SW3.jpg,pics2/SA1.jpg","","","","","","","false","0","","","sizeS.png","","",""
"image-slider-2AFC","156","376145","0.0-37.9-1.9","2627","","","","-72","","","","","","","","sizeS.png","1334","-72",""
"html-keyboard-response","157","376911","0.0-37.9-2.9","null","","","","","","","null","","","","","","","",""
"image-selector-fb","158","380690","0.0-37.10-0.10","3262","pics2/FR5.jpg,pics2/VE5.jpg","","","","","","","true","1","","","sizeS.png","","",""
"image-slider-2AFC","159","382333","0.0-37.10-1.10","1640","","","","73","","","","","","","","sizeS.png","954","73",""
"html-keyboard-response","160","383100","0.0-37.10-2.10","null","","","","","","","null","","","","","","","",""
"image-selector-fb","161","385119","0.0-37.11-0.11","1513","pics2/SA5.jpg,pics2/VE5.jpg","","","","","","","false","0","","","heartS.png","","",""
"image-slider-2AFC","162","386560","0.0-37.11-1.11","1439","","","","-20","","","","","","","","heartS.png","937","-20",""
"html-keyboard-response","163","387377","0.0-37.11-2.11","null","","","","","","","null","","","","","","","",""
"html-button-response","164","389396","0.0-38.0","2017","<i><font size=10>Good job!</font></i> <br><br>Before we begin, you have a chance to review the rules, in case something was not clear.<br><br>","0","","","","","","","","","","","","",""
"instructions","165","402258","0.0-39.0","12861","","","","","","","","","","","","","","","[{""page_index"":0,""viewing_time"":3492},{""page_index"":1,""viewing_time"":7984},{""page_index"":2,""viewing_time"":1384}]"
"html-button-response","166","407732","0.0-40.0","5472","<div style='width: 900px;'> <font size='40'>Great! Now you're ready to begin</font><br><br>The main part of the experiment will consist of <u>3 blocks</u>. Each block consists of 66 decisions and judgements. You will have time for a short break between blocks.<br><br><br><i><u>Do your best to respond within the time limit.</u></i><br><br><i> Press the button to start the experiment<br><br></i>","0","","","","","","","","","","","","",""
"image-selector-fb","167","409394","0.0-41.0-0.0","1143","pics2/SW6.jpg,pics2/FR2.jpg","","","","","","","false","0","","","sizeS.png","","",""
"image-slider-2AFC","168","411026","0.0-41.0-1.0","1629","","","","-25","","","","","","","","heartS.png","1149","-25",""
"html-keyboard-response","169","411890","0.0-41.0-2.0","null","","","","","","","null","","","","","","","",""
"image-selector-fb","170","414930","0.0-41.1-0.1","null","pics2/FR4.jpg,pics2/SA3.jpg","","","","","","","false","null","","","noS.png","","",""
"image-slider-2AFC","171","419936","0.0-41.1-1.1","null","","","","null","","","","","","","","sizeS.png","","",""
"html-keyboard-response","172","420807","0.0-41.1-2.1","null","","","","","","","null","","","","","","","",""
"image-selector-fb","173","423826","0.0-41.2-0.2","null","pics2/SA3.jpg,pics2/SW5.jpg","","","","","","","false","null","","","noS.png","","",""
"image-slider-2AFC","174","428830","0.0-41.2-1.2","null","","","","null","","","","","","","","heartS.png","","",""
"html-keyboard-response","175","429694","0.0-41.2-2.2","null","","","","","","","null","","","","","","","",""
"image-selector-fb","176","431709","0.0-41.3-0.3","1506","pics2/SW4.jpg,pics2/FR6.jpg","","","","","","","false","0","","","sizeS.png","","",""
"image-slider-2AFC","177","436712","0.0-41.3-1.3","null","","","","null","","","","","","","","sizeS.png","","",""
"html-keyboard-response","178","437543","0.0-41.3-2.3","null","","","","","","","null","","","","","","","",""
"image-selector-fb","179","440554","0.0-41.4-0.4","null","pics2/SW6.jpg,pics2/VE6.jpg","","","","","","","false","null","","","noS.png","","",""
"image-slider-2AFC","180","443029","0.0-41.4-1.4","2471","","","","17","","","","","","","","heartS.png","1836","17",""
"html-keyboard-response","181","443794","0.0-41.4-2.4","null","","","","","","","null","","","","","","","",""
"image-selector-fb","182","446815","0.0-41.5-0.5","null","pics2/FR1.jpg,pics2/FR3.jpg","","","","","","","false","null","","","noS.png","","",""
"image-slider-2AFC","183","449344","0.0-41.5-1.5","2526","","","","-68","","","","","","","","sizeS.png","1725","-68",""
"html-keyboard-response","184","450220","0.0-41.5-2.5","null","","","","","","","null","","","","","","","",""
"image-selector-fb","185","453241","0.0-41.6-0.6","null","pics2/SA3.jpg,pics2/VE6.jpg","","","","","","","false","null","","","noS.png","","",""
"image-slider-2AFC","186","456457","0.0-41.6-1.6","3214","","","","-49","","","","","","","","sizeS.png","2266","-49",""
"html-keyboard-response","187","457173","0.0-41.6-2.6","null","","","","","","","null","","","","","","","",""
"image-selector-fb","188","460704","0.0-41.7-0.7","3025","pics2/SW4.jpg,pics2/VE6.jpg","","","","","","","false","0","","","sizeS.png","","",""
"image-slider-2AFC","189","464158","0.0-41.7-1.7","3451","","","","38","","","","","","","","heartS.png","2667","38",""
"html-keyboard-response","190","464882","0.0-41.7-2.7","null","","","","","","","null","","","","","","","",""
"image-selector-fb","191","468232","0.0-41.8-0.8","2841","pics2/SA3.jpg,pics2/FR1.jpg","","","","","","","false","0","","","sizeS.png","","",""
"image-slider-2AFC","192","470642","0.0-41.8-1.8","2408","","","","15","","","","","","","","heartS.png","1771","15",""
"html-keyboard-response","193","471474","0.0-41.8-2.8","null","","","","","","","null","","","","","","","",""
"image-selector-fb","194","475867","0.0-41.9-0.9","3887","pics2/SW2.jpg,pics2/FR2.jpg","","","","","","","false","0","","","sizeS.png","","",""
"image-slider-2AFC","195","478817","0.0-41.9-1.9","2946","","","","-18","","","","","","","","sizeS.png","1235,2345","21,-18",""
"html-keyboard-response","196","479676","0.0-41.9-2.9","null","","","","","","","null","","","","","","","",""
"image-selector-fb","197","482689","0.0-41.10-0.10","null","pics2/FR6.jpg,pics2/SW5.jpg","","","","","","","false","null","","","noS.png","","",""
"image-slider-2AFC","198","487693","0.0-41.10-1.10","null","","","","null","","","","","","","","heartS.png","4709","-17",""
"html-keyboard-response","199","488529","0.0-41.10-2.10","null","","","","","","","null","","","","","","","",""
"image-selector-fb","200","491328","0.0-41.11-0.11","2291","pics2/FR4.jpg,pics2/SW6.jpg","","","","","","","true","1","","","heartS.png","","",""
"image-slider-2AFC","201","493397","0.0-41.11-1.11","2068","","","","9","","","","","","","","heartS.png","1297","9",""
"html-keyboard-response","202","494172","0.0-41.11-2.11","null","","","","","","","null","","","","","","","",""
"image-selector-fb","203","497481","0.0-41.12-0.12","2806","pics2/SW5.jpg,pics2/FR3.jpg","","","","","","","false","0","","","sizeS.png","","",""
"image-slider-2AFC","204","499684","0.0-41.12-1.12","2200","","","","9","","","","","","","","heartS.png","1451","9",""
"html-keyboard-response","205","500444","0.0-41.12-2.12","null","","","","","","","null","","","","","","","",""
"image-selector-fb","206","503507","0.0-41.13-0.13","2559","pics2/FR6.jpg,pics2/SW4.jpg","","","","","","","false","0","","","heartS.png","","",""
"image-slider-2AFC","207","506472","0.0-41.13-1.13","2962","","","","68","","","","","","","","sizeS.png","2008","68",""
"html-keyboard-response","208","507249","0.0-41.13-2.13","null","","","","","","","null","","","","","","","",""
"image-selector-fb","209","510268","0.0-41.14-0.14","null","pics2/SW5.jpg,pics2/FR2.jpg","","","","","","","false","null","","","noS.png","","",""
"image-slider-2AFC","210","514915","0.0-41.14-1.14","4644","","","","-36","","","","","","","","sizeS.png","3973","-36",""
"html-keyboard-response","211","515623","0.0-41.14-2.14","null","","","","","","","null","","","","","","","",""
"image-selector-fb","212","517773","0.0-41.15-0.15","1635","pics2/SW6.jpg,pics2/SW2.jpg","","","","","","","true","1","","","heartS.png","","",""
"image-slider-2AFC","213","522777","0.0-41.15-1.15","null","","","","null","","","","","","","","sizeS.png","4402","-45",""
"html-keyboard-response","214","523494","0.0-41.15-2.15","null","","","","","","","null","","","","","","","",""
"image-selector-fb","215","525391","0.0-41.16-0.16","1390","pics2/FR6.jpg,pics2/FR3.jpg","","","","","","","false","0","","","heartS.png","","",""
"image-slider-2AFC","216","527233","0.0-41.16-1.16","1839","","","","-26","","","","","","","","heartS.png","1331","-26",""
"html-keyboard-response","217","528005","0.0-41.16-2.16","null","","","","","","","null","","","","","","","",""
"image-selector-fb","218","531025","0.0-41.17-0.17","null","pics2/FR6.jpg,pics2/FR2.jpg","","","","","","","false","null","","","noS.png","","",""
"image-slider-2AFC","219","534425","0.0-41.17-1.17","3397","","","","-27","","","","","","","","heartS.png","2301","-27",""
"html-keyboard-response","220","535164","0.0-41.17-2.17","null","","","","","","","null","","","","","","","",""
"image-selector-fb","221","539669","0.0-41.18-0.18","null","pics2/FR3.jpg,pics2/SW4.jpg","","","","","","","false","null","","","heartS.png","","",""
"image-slider-2AFC","222","539670","0.0-41.18-1.18","null","","","","null","","","","","","","","heartS.png","","",""
"html-keyboard-response","223","540539","0.0-41.18-2.18","null","","","","","","","null","","","","","","","",""
"image-selector-fb","224","542642","0.0-41.19-0.19","1598","pics2/FR1.jpg,pics2/SA4.jpg","","","","","","","true","1","","","heartS.png","","",""
"image-slider-2AFC","225","544410","0.0-41.19-1.19","1766","","","","11","","","","","","","","heartS.png","1228","11",""
"html-keyboard-response","226","545180","0.0-41.19-2.19","null","","","","","","","null","","","","","","","",""
"image-selector-fb","227","548199","0.0-41.20-0.20","null","pics2/SW4.jpg,pics2/FR3.jpg","","","","","","","false","null","","","noS.png","","",""
"image-slider-2AFC","228","551480","0.0-41.20-1.20","3279","","","","41","","","","","","","","heartS.png","2785","41",""
"html-keyboard-response","229","552257","0.0-41.20-2.20","null","","","","","","","null","","","","","","","",""
"image-selector-fb","230","556775","0.0-41.21-0.21","null","pics2/SA3.jpg,pics2/FR2.jpg","","","","","","","false","null","","","sizeS.png","","",""
"image-slider-2AFC","231","556776","0.0-41.21-1.21","null","","","","null","","","","","","","","heartS.png","","",""
"html-keyboard-response","232","557650","0.0-41.21-2.21","null","","","","","","","null","","","","","","","",""
"image-selector-fb","233","559966","0.0-41.22-0.22","1811","pics2/SW4.jpg,pics2/SA4.jpg","","","","","","","false","0","","","sizeS.png","","",""
"image-slider-2AFC","234","561938","0.0-41.22-1.22","1970","","","","-52","","","","","","","","sizeS.png","1320","-52",""
"html-keyboard-response","235","562695","0.0-41.22-2.22","null","","","","","","","null","","","","","","","",""
"image-selector-fb","236","565724","0.0-41.23-0.23","null","pics2/FR6.jpg,pics2/FR3.jpg","","","","","","","false","null","","","noS.png","","",""
"image-slider-2AFC","237","569674","0.0-41.23-1.23","3946","","","","18","","","","","","","","sizeS.png","3169","18",""
"html-keyboard-response","238","570444","0.0-41.23-2.23","null","","","","","","","null","","","","","","","",""
"image-selector-fb","239","572903","0.0-41.24-0.24","1950","pics2/SW2.jpg,pics2/FR6.jpg","","","","","","","false","0","","","sizeS.png","","",""
"image-slider-2AFC","240","575861","0.0-41.24-1.24","2955","","","","-100","","","","","","","","sizeS.png","1951","-100",""
"html-keyboard-response","241","576647","0.0-41.24-2.24","null","","","","","","","null","","","","","","","",""
"image-selector-fb","242","579677","0.0-41.25-0.25","null","pics2/SA4.jpg,pics2/FR2.jpg","","","","","","","false","null","","","noS.png","","",""
"image-slider-2AFC","243","583313","0.0-41.25-1.25","3634","","","","-15","","","","","","","","heartS.png","3005","-15",""
"html-keyboard-response","244","584124","0.0-41.25-2.25","null","","","","","","","null","","","","","","","",""
"image-selector-fb","245","587154","0.0-41.26-0.26","null","pics2/FR6.jpg,pics2/SW4.jpg","","","","","","","false","null","","","noS.png","","",""
"image-slider-2AFC","246","589388","0.0-41.26-1.26","2231","","","","47","","","","","","","","sizeS.png","1630","47",""
"html-keyboard-response","247","590247","0.0-41.26-2.26","null","","","","","","","null","","","","","","","",""
"image-selector-fb","248","593037","0.0-41.27-0.27","2284","pics2/SA3.jpg,pics2/SW5.jpg","","","","","","","true","1","","","sizeS.png","","",""
"image-slider-2AFC","249","594889","0.0-41.27-1.27","1850","","","","-12","","","","","","","","heartS.png","1440","-12",""
"html-keyboard-response","250","595659","0.0-41.27-2.27","null","","","","","","","null","","","","","","","",""
"image-selector-fb","251","597564","0.0-41.28-0.28","1398","pics2/SW2.jpg,pics2/SW6.jpg","","","","","","","false","0","","","sizeS.png","","",""
"image-slider-2AFC","252","599506","0.0-41.28-1.28","1941","","","","16","","","","","","","","heartS.png","1404","16",""
"html-keyboard-response","253","600326","0.0-41.28-2.28","null","","","","","","","null","","","","","","","",""
"image-selector-fb","254","602497","0.0-41.29-0.29","1666","pics2/FR6.jpg,pics2/SA4.jpg","","","","","","","true","1","","","heartS.png","","",""
"image-slider-2AFC","255","604144","0.0-41.29-1.29","1644","","","","2","","","","","","","","heartS.png","1206","2",""
"html-keyboard-response","256","604955","0.0-41.29-2.29","null","","","","","","","null","","","","","","","",""
"image-selector-fb","257","606641","0.0-41.30-0.30","1166","pics2/VE6.jpg,pics2/FR3.jpg","","","","","","","false","0","","","heartS.png","","",""
"image-slider-2AFC","258","609256","0.0-41.30-1.30","2614","","","","0","","","","","","","","heartS.png","1433","0",""
"html-keyboard-response","259","610129","0.0-41.30-2.30","null","","","","","","","null","","","","","","","",""
"image-selector-fb","260","613139","0.0-41.31-0.31","null","pics2/FR3.jpg,pics2/VE6.jpg","","","","","","","false","null","","","noS.png","","",""
"image-slider-2AFC","261","615507","0.0-41.31-1.31","2366","","","","-62","","","","","","","","sizeS.png","1567","-62",""
"html-keyboard-response","262","616219","0.0-41.31-2.31","null","","","","","","","null","","","","","","","",""
"image-selector-fb","263","619230","0.0-41.32-0.32","null","pics2/SW2.jpg,pics2/FR1.jpg","","","","","","","false","null","","","noS.png","","",""
"image-slider-2AFC","264","620996","0.0-41.32-1.32","1764","","","","-42","","","","","","","","sizeS.png","1261","-42",""
"html-keyboard-response","265","621777","0.0-41.32-2.32","null","","","","","","","null","","","","","","","",""
"image-selector-fb","266","625275","0.0-41.33-0.33","2992","pics2/SW2.jpg,pics2/SA3.jpg","","","","","","","true","1","","","heartS.png","","",""
"image-slider-2AFC","267","626771","0.0-41.33-1.33","1494","","","","3","","","","","","","","heartS.png","1042","3",""
"html-keyboard-response","268","627627","0.0-41.33-2.33","null","","","","","","","null","","","","","","","",""
"image-selector-fb","269","630075","0.0-41.34-0.34","1942","pics2/FR3.jpg,pics2/FR6.jpg","","","","","","","false","0","","","sizeS.png","","",""
"image-slider-2AFC","270","631700","0.0-41.34-1.34","1621","","","","-7","","","","","","","","sizeS.png","1191","-7",""
"html-keyboard-response","271","632408","0.0-41.34-2.34","null","","","","","","","null","","","","","","","",""
"image-selector-fb","272","634725","0.0-41.35-0.35","1807","pics2/SA4.jpg,pics2/FR4.jpg","","","","","","","true","1","","","sizeS.png","","",""
"image-slider-2AFC","273","636941","0.0-41.35-1.35","2213","","","","-54","","","","","","","","heartS.png","1463","-54",""
"html-keyboard-response","274","637659","0.0-41.35-2.35","null","","","","","","","null","","","","","","","",""
"image-selector-fb","275","639835","0.0-41.36-0.36","1661","pics2/FR4.jpg,pics2/SA3.jpg","","","","","","","true","1","","","heartS.png","","",""
"image-slider-2AFC","276","641876","0.0-41.36-1.36","2038","","","","3","","","","","","","","heartS.png","1034","3",""
"html-keyboard-response","277","642705","0.0-41.36-2.36","null","","","","","","","null","","","","","","","",""
"image-selector-fb","278","644096","0.0-41.37-0.37","886","pics2/SW2.jpg,pics2/SW5.jpg","","","","","","","false","0","","","heartS.png","","",""
"image-slider-2AFC","279","645829","0.0-41.37-1.37","1730","","","","-9","","","","","","","","sizeS.png","931","-9",""
"html-keyboard-response","280","646545","0.0-41.37-2.37","null","","","","","","","null","","","","","","","",""
"image-selector-fb","281","648681","0.0-41.38-0.38","1631","pics2/FR1.jpg,pics2/FR3.jpg","","","","","","","true","1","","","heartS.png","","",""
"image-slider-2AFC","282","650899","0.0-41.38-1.38","2214","","","","17","","","","","","","","heartS.png","1720","17",""
"html-keyboard-response","283","651612","0.0-41.38-2.38","null","","","","","","","null","","","","","","","",""
"image-selector-fb","284","652945","0.0-41.39-0.39","826","pics2/FR6.jpg,pics2/SW6.jpg","","","","","","","false","0","","","heartS.png","","",""
"image-slider-2AFC","285","655043","0.0-41.39-1.39","2095","","","","-33","","","","","","","","sizeS.png","936","-33",""
"html-keyboard-response","286","655808","0.0-41.39-2.39","null","","","","","","","null","","","","","","","",""
"image-selector-fb","287","657001","0.0-41.40-0.40","682","pics2/FR1.jpg,pics2/SA3.jpg","","","","","","","false","0","","","heartS.png","","",""
"image-slider-2AFC","288","658141","0.0-41.40-1.40","1136","","","","-44","","","","","","","","sizeS.png","591","-44",""
"html-keyboard-response","289","658865","0.0-41.40-2.40","null","","","","","","","null","","","","","","","",""
"image-selector-fb","290","659753","0.0-41.41-0.41","383","pics2/VE6.jpg,pics2/SA3.jpg","","","","","","","true","1","","","heartS.png","","",""
"image-slider-2AFC","291","661535","0.0-41.41-1.41","1779","","","","37","","","","","","","","sizeS.png","1086","37",""
"html-keyboard-response","292","662351","0.0-41.41-2.41","null","","","","","","","null","","","","","","","",""
"image-selector-fb","293","664061","0.0-41.42-0.42","1204","pics2/SA4.jpg,pics2/SW6.jpg","","","","","","","false","0","","","sizeS.png","","",""
"image-slider-2AFC","294","665474","0.0-41.42-1.42","1410","","","","-34","","","","","","","","heartS.png","901","-34",""
"html-keyboard-response","295","666342","0.0-41.42-2.42","null","","","","","","","null","","","","","","","",""
"image-selector-fb","296","667616","0.0-41.43-0.43","767","pics2/SW2.jpg,pics2/FR3.jpg","","","","","","","true","1","","","sizeS.png","","",""
"image-slider-2AFC","297","670303","0.0-41.43-1.43","2683","","","","28","","","","","","","","sizeS.png","1644","28",""
"html-keyboard-response","298","671169","0.0-41.43-2.43","null","","","","","","","null","","","","","","","",""
"image-selector-fb","299","674196","0.0-41.44-0.44","null","pics2/SA4.jpg,pics2/FR3.jpg","","","","","","","false","null","","","noS.png","","",""
"image-slider-2AFC","300","675953","0.0-41.44-1.44","1754","","","","-56","","","","","","","","sizeS.png","1013","-56",""
"html-keyboard-response","301","676667","0.0-41.44-2.44","null","","","","","","","null","","","","","","","",""
"image-selector-fb","302","679691","0.0-41.45-0.45","null","pics2/SW5.jpg,pics2/SA4.jpg","","","","","","","false","null","","","noS.png","","",""
"image-slider-2AFC","303","683215","0.0-41.45-1.45","3521","","","","-17","","","","","","","","sizeS.png","2552","-17",""
"html-keyboard-response","304","684022","0.0-41.45-2.45","null","","","","","","","null","","","","","","","",""
"image-selector-fb","305","687046","0.0-41.46-0.46","null","pics2/FR6.jpg,pics2/SA4.jpg","","","","","","","false","null","","","noS.png","","",""
"image-slider-2AFC","306","688971","0.0-41.46-1.46","1923","","","","-52","","","","","","","","heartS.png","983","-52",""
"html-keyboard-response","307","689692","0.0-41.46-2.46","null","","","","","","","null","","","","","","","",""
"image-selector-fb","308","692325","0.0-41.47-0.47","2120","pics2/SA4.jpg,pics2/FR2.jpg","","","","","","","false","0","","","sizeS.png","","",""
"image-slider-2AFC","309","694459","0.0-41.47-1.47","2130","","","","-85","","","","","","","","sizeS.png","1381","-85",""
"html-keyboard-response","310","695222","0.0-41.47-2.47","null","","","","","","","null","","","","","","","",""
"image-selector-fb","311","698237","0.0-41.48-0.48","null","pics2/SW4.jpg,pics2/SA4.jpg","","","","","","","false","null","","","noS.png","","",""
"image-slider-2AFC","312","703006","0.0-41.48-1.48","4767","","","","1","","","","","","","","sizeS.png","2867,3497","0,1",""
"html-keyboard-response","313","703739","0.0-41.48-2.48","null","","","","","","","null","","","","","","","",""
"image-selector-fb","314","705896","0.0-41.49-0.49","1653","pics2/SW4.jpg,pics2/SW5.jpg","","","","","","","false","0","","","sizeS.png","","",""
"image-slider-2AFC","315","708382","0.0-41.49-1.49","2483","","","","53","","","","","","","","sizeS.png","1353","53",""
"html-keyboard-response","316","709211","0.0-41.49-2.49","null","","","","","","","null","","","","","","","",""
"image-selector-fb","317","710880","0.0-41.50-0.50","1162","pics2/FR3.jpg,pics2/FR4.jpg","","","","","","","false","0","","","sizeS.png","","",""
"image-slider-2AFC","318","712646","0.0-41.50-1.50","1763","","","","-26","","","","","","","","heartS.png","1086","-26",""
"html-keyboard-response","319","713510","0.0-41.50-2.50","null","","","","","","","null","","","","","","","",""
"image-selector-fb","320","716540","0.0-41.51-0.51","null","pics2/FR4.jpg,pics2/FR6.jpg","","","","","","","false","null","","","noS.png","","",""
"image-slider-2AFC","321","719215","0.0-41.51-1.51","2673","","","","10","","","","","","","","heartS.png","1965","10",""
"html-keyboard-response","322","720091","0.0-41.51-2.51","null","","","","","","","null","","","","","","","",""
"image-selector-fb","323","723111","0.0-41.52-0.52","null","pics2/SW5.jpg,pics2/FR3.jpg","","","","","","","false","null","","","noS.png","","",""
"image-slider-2AFC","324","725444","0.0-41.52-1.52","2329","","","","-9","","","","","","","","heartS.png","1764","-9",""
"html-keyboard-response","325","726166","0.0-41.52-2.52","null","","","","","","","null","","","","","","","",""
"image-selector-fb","326","729177","0.0-41.53-0.53","null","pics2/FR1.jpg,pics2/VE6.jpg","","","","","","","false","null","","","noS.png","","",""
"image-slider-2AFC","327","731264","0.0-41.53-1.53","2084","","","","-39","","","","","","","","sizeS.png","1511","-39",""
"html-keyboard-response","328","732075","0.0-41.53-2.53","null","","","","","","","null","","","","","","","",""
"image-selector-fb","329","735096","0.0-41.54-0.54","null","pics2/SA4.jpg,pics2/VE6.jpg","","","","","","","false","null","","","noS.png","","",""
"image-slider-2AFC","330","737932","0.0-41.54-1.54","2833","","","","-74","","","","","","","","sizeS.png","2062","-74",""
"html-keyboard-response","331","738796","0.0-41.54-2.54","null","","","","","","","null","","","","","","","",""
"image-selector-fb","332","740924","0.0-41.55-0.55","1615","pics2/FR2.jpg,pics2/SW5.jpg","","","","","","","true","1","","","heartS.png","","",""
"image-slider-2AFC","333","743164","0.0-41.55-1.55","2238","","","","-9","","","","","","","","sizeS.png","1721","-9",""
"html-keyboard-response","334","743995","0.0-41.55-2.55","null","","","","","","","null","","","","","","","",""
"image-selector-fb","335","746822","0.0-41.56-0.56","2305","pics2/SW4.jpg,pics2/SA3.jpg","","","","","","","true","1","","","sizeS.png","","",""
"image-slider-2AFC","336","749755","0.0-41.56-1.56","2929","","","","7","","","","","","","","heartS.png","1670","7",""
"html-keyboard-response","337","750577","0.0-41.56-2.56","null","","","","","","","null","","","","","","","",""
"image-selector-fb","338","753276","0.0-41.57-0.57","2192","pics2/SA3.jpg,pics2/SW4.jpg","","","","","","","false","0","","","heartS.png","","",""
"image-slider-2AFC","339","754676","0.0-41.57-1.57","1396","","","","13","","","","","","","","sizeS.png","915","13",""
"html-keyboard-response","340","755536","0.0-41.57-2.57","null","","","","","","","null","","","","","","","",""
"image-selector-fb","341","756989","0.0-41.58-0.58","947","pics2/SW6.jpg,pics2/SW4.jpg","","","","","","","false","0","","","heartS.png","","",""
"image-slider-2AFC","342","759894","0.0-41.58-1.58","2902","","","","18","","","","","","","","sizeS.png","838","18",""
"html-keyboard-response","343","760774","0.0-41.58-2.58","null","","","","","","","null","","","","","","","",""
"image-selector-fb","344","763804","0.0-41.59-0.59","null","pics2/SW2.jpg,pics2/SW6.jpg","","","","","","","false","null","","","noS.png","","",""
"image-slider-2AFC","345","765827","0.0-41.59-1.59","2019","","","","-100","","","","","","","","sizeS.png","1108","-100",""
"html-keyboard-response","346","766545","0.0-41.59-2.59","null","","","","","","","null","","","","","","","",""
"image-selector-fb","347","769554","0.0-41.60-0.60","null","pics2/SW2.jpg,pics2/SW5.jpg","","","","","","","false","null","","","noS.png","","",""
"image-slider-2AFC","348","771370","0.0-41.60-1.60","1813","","","","12","","","","","","","","heartS.png","1099","12",""
"html-keyboard-response","349","772155","0.0-41.60-2.60","null","","","","","","","null","","","","","","","",""
"image-selector-fb","350","774573","0.0-41.61-0.61","1914","pics2/FR3.jpg,pics2/VE6.jpg","","","","","","","false","0","","","sizeS.png","","",""
"image-slider-2AFC","351","776285","0.0-41.61-1.61","1709","","","","17","","","","","","","","heartS.png","1074","17",""
"html-keyboard-response","352","777045","0.0-41.61-2.61","null","","","","","","","null","","","","","","","",""
"image-selector-fb","353","780175","0.0-41.62-0.62","2626","pics2/SW2.jpg,pics2/SA4.jpg","","","","","","","true","1","","","heartS.png","","",""
"image-slider-2AFC","354","783250","0.0-41.62-1.62","3072","","","","-77","","","","","","","","sizeS.png","2026","-77",""
"html-keyboard-response","355","784108","0.0-41.62-2.62","null","","","","","","","null","","","","","","","",""
"image-selector-fb","356","787379","0.0-41.63-0.63","2766","pics2/FR4.jpg,pics2/FR3.jpg","","","","","","","true","1","","","heartS.png","","",""
"image-slider-2AFC","357","790221","0.0-41.63-1.63","2840","","","","-39","","","","","","","","sizeS.png","1956","-39",""
"html-keyboard-response","358","790942","0.0-41.63-2.63","null","","","","","","","null","","","","","","","",""
"image-selector-fb","359","795030","0.0-41.64-0.64","3576","pics2/FR6.jpg,pics2/SW2.jpg","","","","","","","false","0","","","heartS.png","","",""
"image-slider-2AFC","360","798275","0.0-41.64-1.64","3242","","","","38","","","","","","","","sizeS.png","2211","38",""
"html-keyboard-response","361","799100","0.0-41.64-2.64","null","","","","","","","null","","","","","","","",""
"image-selector-fb","362","802112","0.0-41.65-0.65","null","pics2/SW6.jpg,pics2/SA4.jpg","","","","","","","false","null","","","noS.png","","",""
"image-slider-2AFC","363","805198","0.0-41.65-1.65","3084","","","","31","","","","","","","","sizeS.png","2208","31",""
"html-keyboard-response","364","805973","0.0-41.65-2.65","null","","","","","","","null","","","","","","","",""
"pavlovia","365","805994","0.0-42.0","","","","","","","","","","","","","","","",""
"html-keyboard-response","366","811004","0.0-43.0","null","<div style='width: 700px;'> <font size=6><b>SHORT BREAK</font></b><br><br><i> Please wait 5 seconds to continue</i></div> ","","","","","","null","","","","","","","",""
"pavlovia","367","811006","0.0-44.0","","","","","","","","","","","","","","","",""
"html-button-response","368","814871","0.0-45.0","3863","<div style='width: 700px;'> <font size=6><b>BLOCK 2</font></b><br><br>Press the button whenever you feel ready to start the second block (there are 3 in total)</div>","0","","","","","","","","","","","","",""
"image-selector-fb","369","817389","0.0-46.0-0.0","2013","pics2/SW5.jpg,pics2/VE6.jpg","","","","","","","false","0","","","sizeS.png","","",""
"image-slider-2AFC","370","820719","0.0-46.0-1.0","3327","","","","-87","","","","","","","","sizeS.png","1305,2571","1,-87",""
"html-keyboard-response","371","821530","0.0-46.0-2.0","null","","","","","","","null","","","","","","","",""
"image-selector-fb","372","824549","0.0-46.1-0.1","null","pics2/FR4.jpg,pics2/SW6.jpg","","","","","","","false","null","","","noS.png","","",""
"image-slider-2AFC","373","827302","0.0-46.1-1.1","2751","","","","-34","","","","","","","","heartS.png","1761","-34",""
"html-keyboard-response","374","828016","0.0-46.1-2.1","null","","","","","","","null","","","","","","","",""
"image-selector-fb","375","830336","0.0-46.2-0.2","1801","pics2/SW5.jpg,pics2/SW2.jpg","","","","","","","true","1","","","sizeS.png","","",""
"image-slider-2AFC","376","832274","0.0-46.2-1.2","1935","","","","67","","","","","","","","sizeS.png","1186","67",""
"html-keyboard-response","377","832992","0.0-46.2-2.2","null","","","","","","","null","","","","","","","",""
"image-selector-fb","378","836001","0.0-46.3-0.3","null","pics2/FR1.jpg,pics2/FR2.jpg","","","","","","","false","null","","","noS.png","","",""
"image-slider-2AFC","379","838539","0.0-46.3-1.3","2535","","","","0","","","","","","","","heartS.png","1750","0",""
"html-keyboard-response","380","839306","0.0-46.3-2.3","null","","","","","","","null","","","","","","","",""
"image-selector-fb","381","841963","0.0-46.4-0.4","2150","pics2/FR3.jpg,pics2/SW5.jpg","","","","","","","false","0","","","heartS.png","","",""
"image-slider-2AFC","382","843928","0.0-46.4-1.4","1962","","","","57","","","","","","","","sizeS.png","1326","57",""
"html-keyboard-response","383","844646","0.0-46.4-2.4","null","","","","","","","null","","","","","","","",""
"image-selector-fb","384","847662","0.0-46.5-0.5","null","pics2/SW4.jpg,pics2/VE6.jpg","","","","","","","false","null","","","noS.png","","",""
"image-slider-2AFC","385","849485","0.0-46.5-1.5","1820","","","","15","","","","","","","","heartS.png","1262","15",""
"html-keyboard-response","386","850350","0.0-46.5-2.5","null","","","","","","","null","","","","","","","",""
"image-selector-fb","387","853378","0.0-46.6-0.6","null","pics2/SW5.jpg,pics2/VE6.jpg","","","","","","","false","null","","","noS.png","","",""
"image-slider-2AFC","388","855546","0.0-46.6-1.6","2165","","","","9","","","","","","","","heartS.png","1650","9",""
"html-keyboard-response","389","856361","0.0-46.6-2.6","null","","","","","","","null","","","","","","","",""
"image-selector-fb","390","859369","0.0-46.7-0.7","null","pics2/SA3.jpg,pics2/FR6.jpg","","","","","","","false","null","","","noS.png","","",""
"image-slider-2AFC","391","863353","0.0-46.7-1.7","3980","","","","-26","","","","","","","","sizeS.png","685,2764","4,-26",""
"html-keyboard-response","392","864234","0.0-46.7-2.7","null","","","","","","","null","","","","","","","",""
"image-selector-fb","393","866359","0.0-46.8-0.8","1618","pics2/FR1.jpg,pics2/SW2.jpg","","","","","","","true","1","","","heartS.png","","",""
"image-slider-2AFC","394","868727","0.0-46.8-1.8","2365","","","","100","","","","","","","","sizeS.png","1531","100",""
"html-keyboard-response","395","869545","0.0-46.8-2.8","null","","","","","","","null","","","","","","","",""
"image-selector-fb","396","872553","0.0-46.9-0.9","null","pics2/SW2.jpg,pics2/SA4.jpg","","","","","","","false","null","","","noS.png","","",""
"image-slider-2AFC","397","874482","0.0-46.9-1.9","1927","","","","4","","","","","","","","heartS.png","1304","4",""
"html-keyboard-response","398","875337","0.0-46.9-2.9","null","","","","","","","null","","","","","","","",""
"image-selector-fb","399","878360","0.0-46.10-0.10","null","pics2/FR1.jpg,pics2/SW6.jpg","","","","","","","false","null","","","noS.png","","",""
"image-slider-2AFC","400","881172","0.0-46.10-1.10","2810","","","","9","","","","","","","","sizeS.png","1784","9",""
"html-keyboard-response","401","881908","0.0-46.10-2.10","null","","","","","","","null","","","","","","","",""
"image-selector-fb","402","884969","0.0-46.11-0.11","2542","pics2/SW4.jpg,pics2/SW6.jpg","","","","","","","false","0","","","sizeS.png","","",""
"image-slider-2AFC","403","886524","0.0-46.11-1.11","1553","","","","10","","","","","","","","heartS.png","1131","10",""
"html-keyboard-response","404","887337","0.0-46.11-2.11","null","","","","","","","null","","","","","","","",""
"image-selector-fb","405","890361","0.0-46.12-0.12","null","pics2/SW6.jpg,pics2/FR3.jpg","","","","","","","false","null","","","noS.png","","",""
"image-slider-2AFC","406","892577","0.0-46.12-1.12","2213","","","","11","","","","","","","","heartS.png","1733","11",""
"html-keyboard-response","407","893460","0.0-46.12-2.12","null","","","","","","","null","","","","","","","",""
"image-selector-fb","408","896319","0.0-46.13-0.13","2354","pics2/SA4.jpg,pics2/SW4.jpg","","","","","","","false","0","","","heartS.png","","",""
"image-slider-2AFC","409","897979","0.0-46.13-1.13","1658","","","","-10","","","","","","","","heartS.png","1276","-10",""
"html-keyboard-response","410","898804","0.0-46.13-2.13","null","","","","","","","null","","","","","","","",""
"image-selector-fb","411","901042","0.0-46.14-0.14","1726","pics2/FR4.jpg,pics2/SW2.jpg","","","","","","","false","0","","","heartS.png","","",""
"image-slider-2AFC","412","902872","0.0-46.14-1.14","1829","","","","-86","","","","","","","","heartS.png","1151","-86",""
"html-keyboard-response","413","903752","0.0-46.14-2.14","null","","","","","","","null","","","","","","","",""
"image-selector-fb","414","907093","0.0-46.15-0.15","2837","pics2/SW6.jpg,pics2/VE6.jpg","","","","","","","false","0","","","sizeS.png","","",""
"image-slider-2AFC","415","908875","0.0-46.15-1.15","1779","","","","-10","","","","","","","","sizeS.png","1009","-10",""
"html-keyboard-response","416","909715","0.0-46.15-2.15","null","","","","","","","null","","","","","","","",""
"image-selector-fb","417","912739","0.0-46.16-0.16","null","pics2/FR4.jpg,pics2/FR3.jpg","","","","","","","false","null","","","noS.png","","",""
"image-slider-2AFC","418","915261","0.0-46.16-1.16","2519","","","","26","","","","","","","","heartS.png","1423,2017","9,26",""
"html-keyboard-response","419","916126","0.0-46.16-2.16","null","","","","","","","null","","","","","","","",""
"image-selector-fb","420","920617","0.0-46.17-0.17","3976","pics2/FR4.jpg,pics2/FR6.jpg","","","","","","","false","0","","","sizeS.png","","",""
"image-slider-2AFC","421","924029","0.0-46.17-1.17","3409","","","","-44","","","","","","","","sizeS.png","2412","-44",""
"html-keyboard-response","422","924744","0.0-46.17-2.17","null","","","","","","","null","","","","","","","",""
"image-selector-fb","423","927381","0.0-46.18-0.18","2130","pics2/SA4.jpg,pics2/FR3.jpg","","","","","","","false","0","","","sizeS.png","","",""
"image-slider-2AFC","424","928930","0.0-46.18-1.18","1547","","","","-46","","","","","","","","sizeS.png","974","-46",""
"html-keyboard-response","425","929662","0.0-46.18-2.18","null","","","","","","","null","","","","","","","",""
"image-selector-fb","426","932682","0.0-46.19-0.19","null","pics2/FR4.jpg,pics2/SW4.jpg","","","","","","","false","null","","","noS.png","","",""
"image-slider-2AFC","427","934925","0.0-46.19-1.19","2241","","","","-22","","","","","","","","heartS.png","1690","-22",""
"html-keyboard-response","428","935746","0.0-46.19-2.19","null","","","","","","","null","","","","","","","",""
"image-selector-fb","429","938340","0.0-46.20-0.20","2088","pics2/SW4.jpg,pics2/FR4.jpg","","","","","","","false","0","","","sizeS.png","","",""
"image-slider-2AFC","430","940597","0.0-46.20-1.20","2255","","","","24","","","","","","","","heartS.png","1598","24",""
"html-keyboard-response","431","941409","0.0-46.20-2.20","null","","","","","","","null","","","","","","","",""
"image-selector-fb","432","943398","0.0-46.21-0.21","1483","pics2/SA3.jpg,pics2/FR3.jpg","","","","","","","false","0","","","sizeS.png","","",""
"image-slider-2AFC","433","945073","0.0-46.21-1.21","1672","","","","6","","","","","","","","heartS.png","1100","6",""
"html-keyboard-response","434","945882","0.0-46.21-2.21","null","","","","","","","null","","","","","","","",""
"image-selector-fb","435","949218","0.0-46.22-0.22","2829","pics2/VE6.jpg,pics2/FR1.jpg","","","","","","","false","0","","","heartS.png","","",""
"image-slider-2AFC","436","951444","0.0-46.22-1.22","2223","","","","-1","","","","","","","","heartS.png","1530","-1",""
"html-keyboard-response","437","952173","0.0-46.22-2.22","null","","","","","","","null","","","","","","","",""
"image-selector-fb","438","955192","0.0-46.23-0.23","null","pics2/SW2.jpg,pics2/VE6.jpg","","","","","","","false","null","","","noS.png","","",""
"image-slider-2AFC","439","957667","0.0-46.23-1.23","2472","","","","-100","","","","","","","","sizeS.png","1524","-100",""
"html-keyboard-response","440","958483","0.0-46.23-2.23","null","","","","","","","null","","","","","","","",""
"image-selector-fb","441","961535","0.0-46.24-0.24","2547","pics2/FR2.jpg,pics2/FR3.jpg","","","","","","","true","1","","","heartS.png","","",""
"image-slider-2AFC","442","964872","0.0-46.24-1.24","3334","","","","-37","","","","","","","","sizeS.png","916,2628","2,-37",""
"html-keyboard-response","443","965588","0.0-46.24-2.24","null","","","","","","","null","","","","","","","",""
"image-selector-fb","444","968601","0.0-46.25-0.25","null","pics2/SW6.jpg,pics2/SA3.jpg","","","","","","","false","null","","","noS.png","","",""
"image-slider-2AFC","445","972763","0.0-46.25-1.25","4160","","","","-100","","","","","","","","sizeS.png","1473","-100",""
"html-keyboard-response","446","973470","0.0-46.25-2.25","null","","","","","","","null","","","","","","","",""
"image-selector-fb","447","976742","0.0-46.26-0.26","2763","pics2/SW4.jpg,pics2/FR1.jpg","","","","","","","true","1","","","sizeS.png","","",""
"image-slider-2AFC","448","979106","0.0-46.26-1.26","2361","","","","71","","","","","","","","sizeS.png","1549","71",""
"html-keyboard-response","449","979928","0.0-46.26-2.26","null","","","","","","","null","","","","","","","",""
"image-selector-fb","450","982953","0.0-46.27-0.27","null","pics2/FR4.jpg,pics2/SA4.jpg","","","","","","","false","null","","","noS.png","","",""
"image-slider-2AFC","451","985753","0.0-46.27-1.27","2797","","","","33","","","","","","","","sizeS.png","1843","33",""
"html-keyboard-response","452","986626","0.0-46.27-2.27","null","","","","","","","null","","","","","","","",""
"image-selector-fb","453","988623","0.0-46.28-0.28","1492","pics2/VE6.jpg,pics2/SW4.jpg","","","","","","","false","0","","","heartS.png","","",""
"image-slider-2AFC","454","990964","0.0-46.28-1.28","2339","","","","11","","","","","","","","sizeS.png","1455","11",""
"html-keyboard-response","455","991742","0.0-46.28-2.28","null","","","","","","","null","","","","","","","",""
"image-selector-fb","456","994579","0.0-46.29-0.29","2318","pics2/FR2.jpg,pics2/SA3.jpg","","","","","","","true","1","","","heartS.png","","",""
"image-slider-2AFC","457","997894","0.0-46.29-1.29","3311","","","","4","","","","","","","","heartS.png","1911,2703","0,4",""
"html-keyboard-response","458","998718","0.0-46.29-2.29","null","","","","","","","null","","","","","","","",""
"image-selector-fb","459","1001142","0.0-46.30-0.30","1919","pics2/SW2.jpg,pics2/FR4.jpg","","","","","","","false","0","","","sizeS.png","","",""
"image-slider-2AFC","460","1002950","0.0-46.30-1.30","1805","","","","6","","","","","","","","heartS.png","1183","6",""
"html-keyboard-response","461","1003763","0.0-46.30-2.30","null","","","","","","","null","","","","","","","",""
"image-selector-fb","462","1006781","0.0-46.31-0.31","null","pics2/SW2.jpg,pics2/FR2.jpg","","","","","","","false","null","","","noS.png","","",""
"image-slider-2AFC","463","1008882","0.0-46.31-1.31","2099","","","","35","","","","","","","","heartS.png","1244","35",""
"html-keyboard-response","464","1009753","0.0-46.31-2.31","null","","","","","","","null","","","","","","","",""
"image-selector-fb","465","1012374","0.0-46.32-0.32","2115","pics2/FR4.jpg,pics2/FR1.jpg","","","","","","","false","0","","","heartS.png","","",""
"image-slider-2AFC","466","1015069","0.0-46.32-1.32","2693","","","","81","","","","","","","","sizeS.png","1611","81",""
"html-keyboard-response","467","1015944","0.0-46.32-2.32","null","","","","","","","null","","","","","","","",""
"image-selector-fb","468","1018734","0.0-46.33-0.33","2276","pics2/SA4.jpg,pics2/SA3.jpg","","","","","","","true","1","","","sizeS.png","","",""
"image-slider-2AFC","469","1021469","0.0-46.33-1.33","2733","","","","76","","","","","","","","heartS.png","1778","76",""
"html-keyboard-response","470","1022345","0.0-46.33-2.33","null","","","","","","","null","","","","","","","",""
"image-selector-fb","471","1024608","0.0-46.34-0.34","1757","pics2/FR6.jpg,pics2/SW5.jpg","","","","","","","false","0","","","heartS.png","","",""
"image-slider-2AFC","472","1026418","0.0-46.34-1.34","1808","","","","-14","","","","","","","","heartS.png","1058","-14",""
"html-keyboard-response","473","1027230","0.0-46.34-2.34","null","","","","","","","null","","","","","","","",""
"image-selector-fb","474","1028937","0.0-46.35-0.35","1200","pics2/VE6.jpg,pics2/SW5.jpg","","","","","","","false","0","","","heartS.png","","",""
"image-slider-2AFC","475","1030484","0.0-46.35-1.35","1544","","","","-10","","","","","","","","heartS.png","972","-10",""
"html-keyboard-response","476","1031315","0.0-46.35-2.35","null","","","","","","","null","","","","","","","",""
"image-selector-fb","477","1034322","0.0-46.36-0.36","null","pics2/FR6.jpg,pics2/VE6.jpg","","","","","","","false","null","","","noS.png","","",""
"image-slider-2AFC","478","1038404","0.0-46.36-1.36","4079","","","","-51","","","","","","","","sizeS.png","1548,3252","23,-51",""
"html-keyboard-response","479","1039225","0.0-46.36-2.36","null","","","","","","","null","","","","","","","",""
"image-selector-fb","480","1042249","0.0-46.37-0.37","null","pics2/SW2.jpg,pics2/SW4.jpg","","","","","","","false","null","","","noS.png","","",""
"image-slider-2AFC","481","1045093","0.0-46.37-1.37","2841","","","","-77","","","","","","","","sizeS.png","1626","-77",""
"html-keyboard-response","482","1045961","0.0-46.37-2.37","null","","","","","","","null","","","","","","","",""
"image-selector-fb","483","1050504","0.0-46.38-0.38","null","pics2/SW6.jpg,pics2/FR3.jpg","","","","","","","false","null","","","heartS.png","","",""
"image-slider-2AFC","484","1050506","0.0-46.38-1.38","null","","","","null","","","","","","","","heartS.png","","",""
"html-keyboard-response","485","1051347","0.0-46.38-2.38","null","","","","","","","null","","","","","","","",""
"image-selector-fb","486","1054174","0.0-46.39-0.39","2312","pics2/SW2.jpg,pics2/SW4.jpg","","","","","","","true","1","","","heartS.png","","",""
"image-slider-2AFC","487","1059189","0.0-46.39-1.39","null","","","","null","","","","","","","","heartS.png","","",""
"html-keyboard-response","488","1060056","0.0-46.39-2.39","null","","","","","","","null","","","","","","","",""
"image-selector-fb","489","1062361","0.0-46.40-0.40","1799","pics2/FR4.jpg,pics2/FR2.jpg","","","","","","","true","1","","","sizeS.png","","",""
"image-slider-2AFC","490","1064106","0.0-46.40-1.40","1743","","","","29","","","","","","","","sizeS.png","1042","29",""
"html-keyboard-response","491","1064920","0.0-46.40-2.40","null","","","","","","","null","","","","","","","",""
"image-selector-fb","492","1067040","0.0-46.41-0.41","1616","pics2/FR6.jpg,pics2/FR2.jpg","","","","","","","false","0","","","heartS.png","","",""
"image-slider-2AFC","493","1068539","0.0-46.41-1.41","1497","","","","-21","","","","","","","","heartS.png","1080","-21",""
"html-keyboard-response","494","1069317","0.0-46.41-2.41","null","","","","","","","null","","","","","","","",""
"image-selector-fb","495","1071728","0.0-46.42-0.42","1906","pics2/SW5.jpg,pics2/SW6.jpg","","","","","","","false","0","","","sizeS.png","","",""
"image-slider-2AFC","496","1073475","0.0-46.42-1.42","1743","","","","-83","","","","","","","","sizeS.png","1022","-83",""
"html-keyboard-response","497","1074195","0.0-46.42-2.42","null","","","","","","","null","","","","","","","",""
"image-selector-fb","498","1077392","0.0-46.43-0.43","2692","pics2/SW5.jpg,pics2/SA4.jpg","","","","","","","true","1","","","heartS.png","","",""
"image-slider-2AFC","499","1079456","0.0-46.43-1.43","2062","","","","2","","","","","","","","heartS.png","1362","2",""
"html-keyboard-response","500","1080190","0.0-46.43-2.43","null","","","","","","","null","","","","","","","",""
"image-selector-fb","501","1083195","0.0-46.44-0.44","null","pics2/SA3.jpg,pics2/SA4.jpg","","","","","","","false","null","","","noS.png","","",""
"image-slider-2AFC","502","1085332","0.0-46.44-1.44","2135","","","","-1","","","","","","","","heartS.png","1307","-1",""
"html-keyboard-response","503","1086163","0.0-46.44-2.44","null","","","","","","","null","","","","","","","",""
"image-selector-fb","504","1089302","0.0-46.45-0.45","2634","pics2/FR4.jpg,pics2/SW4.jpg","","","","","","","false","0","","","heartS.png","","",""
"image-slider-2AFC","505","1092495","0.0-46.45-1.45","3191","","","","-51","","","","","","","","heartS.png","2187","-51",""
"html-keyboard-response","506","1093362","0.0-46.45-2.45","null","","","","","","","null","","","","","","","",""
"image-selector-fb","507","1095776","0.0-46.46-0.46","1897","pics2/FR1.jpg,pics2/FR4.jpg","","","","","","","false","0","","","sizeS.png","","",""
"image-slider-2AFC","508","1098449","0.0-46.46-1.46","2670","","","","-100","","","","","","","","sizeS.png","1532","-100",""
"html-keyboard-response","509","1099322","0.0-46.46-2.46","null","","","","","","","null","","","","","","","",""
"image-selector-fb","510","1101558","0.0-46.47-0.47","1731","pics2/SA4.jpg,pics2/SW5.jpg","","","","","","","true","1","","","sizeS.png","","",""
"image-slider-2AFC","511","1103971","0.0-46.47-1.47","2411","","","","46","","","","","","","","sizeS.png","1563","46",""
"html-keyboard-response","512","1104808","0.0-46.47-2.47","null","","","","","","","null","","","","","","","",""
"image-selector-fb","513","1107705","0.0-46.48-0.48","2391","pics2/SA4.jpg,pics2/FR6.jpg","","","","","","","true","1","","","sizeS.png","","",""
"image-slider-2AFC","514","1109636","0.0-46.48-1.48","1928","","","","31","","","","","","","","sizeS.png","988","31",""
"html-keyboard-response","515","1110515","0.0-46.48-2.48","null","","","","","","","null","","","","","","","",""
"image-selector-fb","516","1113781","0.0-46.49-0.49","2752","pics2/FR1.jpg,pics2/SW5.jpg","","","","","","","false","0","","","heartS.png","","",""
"image-slider-2AFC","517","1116212","0.0-46.49-1.49","2428","","","","-1","","","","","","","","heartS.png","1722","-1",""
"html-keyboard-response","518","1116938","0.0-46.49-2.49","null","","","","","","","null","","","","","","","",""
"image-selector-fb","519","1119427","0.0-46.50-0.50","1979","pics2/FR6.jpg,pics2/VE6.jpg","","","","","","","true","1","","","heartS.png","","",""
"image-slider-2AFC","520","1121677","0.0-46.50-1.50","2247","","","","-43","","","","","","","","sizeS.png","1519","-43",""
"html-keyboard-response","521","1122539","0.0-46.50-2.50","null","","","","","","","null","","","","","","","",""
"image-selector-fb","522","1126431","0.0-46.51-0.51","3386","pics2/SW4.jpg,pics2/FR2.jpg","","","","","","","false","0","","","sizeS.png","","",""
"image-slider-2AFC","523","1128410","0.0-46.51-1.51","1976","","","","-9","","","","","","","","sizeS.png","1495","-9",""
"html-keyboard-response","524","1129122","0.0-46.51-2.51","null","","","","","","","null","","","","","","","",""
"image-selector-fb","525","1131766","0.0-46.52-0.52","2139","pics2/FR1.jpg,pics2/VE6.jpg","","","","","","","false","0","","","sizeS.png","","",""
"image-slider-2AFC","526","1133876","0.0-46.52-1.52","2106","","","","-98","","","","","","","","sizeS.png","1243","-98",""
"html-keyboard-response","527","1134600","0.0-46.52-2.52","null","","","","","","","null","","","","","","","",""
"image-selector-fb","528","1137544","0.0-46.53-0.53","2430","pics2/SW5.jpg,pics2/FR2.jpg","","","","","","","true","1","","","sizeS.png","","",""
"image-slider-2AFC","529","1140983","0.0-46.53-1.53","3435","","","","-9","","","","","","","","heartS.png","1992","-9",""
"html-keyboard-response","530","1141800","0.0-46.53-2.53","null","","","","","","","null","","","","","","","",""
"image-selector-fb","531","1144810","0.0-46.54-0.54","null","pics2/FR4.jpg,pics2/SW5.jpg","","","","","","","false","null","","","noS.png","","",""
"image-slider-2AFC","532","1146669","0.0-46.54-1.54","1854","","","","-52","","","","","","","","sizeS.png","1274","-52",""
"html-keyboard-response","533","1147432","0.0-46.54-2.54","null","","","","","","","null","","","","","","","",""
"image-selector-fb","534","1149459","0.0-46.55-0.55","1511","pics2/SW2.jpg,pics2/VE6.jpg","","","","","","","false","0","","","sizeS.png","","",""
"image-slider-2AFC","535","1150932","0.0-46.55-1.55","1471","","","","16","","","","","","","","heartS.png","962","16",""
"html-keyboard-response","536","1151656","0.0-46.55-2.55","null","","","","","","","null","","","","","","","",""
"image-selector-fb","537","1154668","0.0-46.56-0.56","null","pics2/SA3.jpg,pics2/FR3.jpg","","","","","","","false","null","","","noS.png","","",""
"image-slider-2AFC","538","1156426","0.0-46.56-1.56","1755","","","","-20","","","","","","","","sizeS.png","1288","-20",""
"html-keyboard-response","539","1157192","0.0-46.56-2.56","null","","","","","","","null","","","","","","","",""
"image-selector-fb","540","1160221","0.0-46.57-0.57","null","pics2/FR1.jpg,pics2/SA4.jpg","","","","","","","false","null","","","noS.png","","",""
"image-slider-2AFC","541","1163526","0.0-46.57-1.57","3302","","","","10","","","","","","","","heartS.png","2709","10",""
"html-keyboard-response","542","1164243","0.0-46.57-2.57","null","","","","","","","null","","","","","","","",""
"image-selector-fb","543","1168595","0.0-46.58-0.58","3840","pics2/SW5.jpg,pics2/SW4.jpg","","","","","","","false","0","","","heartS.png","","",""
"image-slider-2AFC","544","1170880","0.0-46.58-1.58","2282","","","","-27","","","","","","","","sizeS.png","1469","-27",""
"html-keyboard-response","545","1171709","0.0-46.58-2.58","null","","","","","","","null","","","","","","","",""
"image-selector-fb","546","1174466","0.0-46.59-0.59","2251","pics2/SW5.jpg,pics2/FR1.jpg","","","","","","","true","1","","","sizeS.png","","",""
"image-slider-2AFC","547","1176904","0.0-46.59-1.59","2435","","","","-6","","","","","","","","heartS.png","1757","-6",""
"html-keyboard-response","548","1177712","0.0-46.59-2.59","null","","","","","","","null","","","","","","","",""
"image-selector-fb","549","1180730","0.0-46.60-0.60","null","pics2/SW5.jpg,pics2/SW4.jpg","","","","","","","false","null","","","noS.png","","",""
"image-slider-2AFC","550","1184152","0.0-46.60-1.60","3419","","","","18","","","","","","","","heartS.png","2791","18",""
"html-keyboard-response","551","1184969","0.0-46.60-2.60","null","","","","","","","null","","","","","","","",""
"image-selector-fb","552","1187988","0.0-46.61-0.61","null","pics2/SW2.jpg,pics2/FR4.jpg","","","","","","","false","null","","","noS.png","","",""
"image-slider-2AFC","553","1192170","0.0-46.61-1.61","4180","","","","19","","","","","","","","heartS.png","3551","19",""
"html-keyboard-response","554","1193037","0.0-46.61-2.61","null","","","","","","","null","","","","","","","",""
"image-selector-fb","555","1196051","0.0-46.62-0.62","null","pics2/SW6.jpg,pics2/FR6.jpg","","","","","","","false","null","","","noS.png","","",""
"image-slider-2AFC","556","1198810","0.0-46.62-1.62","2757","","","","14","","","","","","","","heartS.png","2029","14",""
"html-keyboard-response","557","1199688","0.0-46.62-2.62","null","","","","","","","null","","","","","","","",""
"image-selector-fb","558","1202698","0.0-46.63-0.63","null","pics2/SW6.jpg,pics2/FR2.jpg","","","","","","","false","null","","","noS.png","","",""
"image-slider-2AFC","559","1204927","0.0-46.63-1.63","2226","","","","-56","","","","","","","","sizeS.png","1569","-56",""
"html-keyboard-response","560","1205661","0.0-46.63-2.63","null","","","","","","","null","","","","","","","",""
"image-selector-fb","561","1208691","0.0-46.64-0.64","null","pics2/FR1.jpg,pics2/SA3.jpg","","","","","","","false","null","","","noS.png","","",""
"image-slider-2AFC","562","1210322","0.0-46.64-1.64","1628","","","","7","","","","","","","","heartS.png","1085","7",""
"html-keyboard-response","563","1211088","0.0-46.64-2.64","null","","","","","","","null","","","","","","","",""
"image-selector-fb","564","1214268","0.0-46.65-0.65","2668","pics2/FR1.jpg,pics2/SW4.jpg","","","","","","","false","0","","","heartS.png","","",""
"image-slider-2AFC","565","1215993","0.0-46.65-1.65","1722","","","","-25","","","","","","","","sizeS.png","1207","-25",""
"html-keyboard-response","566","1216855","0.0-46.65-2.65","null","","","","","","","null","","","","","","","",""
"pavlovia","567","1216890","0.0-47.0","","","","","","","","","","","","","","","",""
"html-keyboard-response","568","1221907","0.0-48.0","null","<div style='width: 700px;'> <font size=6><b>SHORT BREAK</font></b><br><br><i> Please wait 5 seconds to continue</i></div> ","","","","","","null","","","","","","","",""
"pavlovia","569","1221910","0.0-49.0","","","","","","","","","","","","","","","",""
"html-button-response","570","1228310","0.0-50.0","6398","<div style='width: 700px;'> <font size=6><b>BLOCK 3</font></b><br><br>Press the button whenever you feel ready to start the third and final block</div>","0","","","","","","","","","","","","",""
"image-selector-fb","571","1231091","0.0-51.0-0.0","2274","pics2/FR1.jpg,pics2/SW6.jpg","","","","","","","true","1","","","heartS.png","","",""
"image-slider-2AFC","572","1233861","0.0-51.0-1.0","2768","","","","-64","","","","","","","","sizeS.png","1947","-64",""
"html-keyboard-response","573","1234719","0.0-51.0-2.0","null","","","","","","","null","","","","","","","",""
"image-selector-fb","574","1237725","0.0-51.1-0.1","null","pics2/FR1.jpg,pics2/FR4.jpg","","","","","","","false","null","","","noS.png","","",""
"image-slider-2AFC","575","1239582","0.0-51.1-1.1","1853","","","","5","","","","","","","","heartS.png","1309","5",""
"html-keyboard-response","576","1240308","0.0-51.1-2.1","null","","","","","","","null","","","","","","","",""
"image-selector-fb","577","1244003","0.0-51.2-0.2","3189","pics2/SW5.jpg,pics2/SA3.jpg","","","","","","","false","0","","","heartS.png","","",""
"image-slider-2AFC","578","1246243","0.0-51.2-1.2","2237","","","","42","","","","","","","","sizeS.png","1473","42",""
"html-keyboard-response","579","1246960","0.0-51.2-2.2","null","","","","","","","null","","","","","","","",""
"image-selector-fb","580","1250366","0.0-51.3-0.3","2898","pics2/FR2.jpg,pics2/SW2.jpg","","","","","","","false","0","","","heartS.png","","",""
"image-slider-2AFC","581","1251787","0.0-51.3-1.3","1418","","","","-22","","","","","","","","heartS.png","881","-22",""
"html-keyboard-response","582","1252669","0.0-51.3-2.3","null","","","","","","","null","","","","","","","",""
"image-selector-fb","583","1255351","0.0-51.4-0.4","2176","pics2/SW5.jpg,pics2/FR4.jpg","","","","","","","false","0","","","sizeS.png","","",""
"image-slider-2AFC","584","1257457","0.0-51.4-1.4","2103","","","","-54","","","","","","","","sizeS.png","1283","-54",""
"html-keyboard-response","585","1258237","0.0-51.4-2.4","null","","","","","","","null","","","","","","","",""
"image-selector-fb","586","1261317","0.0-51.5-0.5","2576","pics2/SW6.jpg,pics2/FR6.jpg","","","","","","","false","0","","","sizeS.png","","",""
"image-slider-2AFC","587","1263234","0.0-51.5-1.5","1914","","","","18","","","","","","","","heartS.png","1179","18",""
"html-keyboard-response","588","1263954","0.0-51.5-2.5","null","","","","","","","null","","","","","","","",""
"image-selector-fb","589","1266437","0.0-51.6-0.6","1979","pics2/VE6.jpg,pics2/SW2.jpg","","","","","","","false","0","","","heartS.png","","",""
"image-slider-2AFC","590","1268629","0.0-51.6-1.6","2190","","","","59","","","","","","","","sizeS.png","1392","59",""
"html-keyboard-response","591","1269458","0.0-51.6-2.6","null","","","","","","","null","","","","","","","",""
"image-selector-fb","592","1272193","0.0-51.7-0.7","2229","pics2/FR1.jpg,pics2/FR2.jpg","","","","","","","false","0","","","sizeS.png","","",""
"image-slider-2AFC","593","1273812","0.0-51.7-1.7","1618","","","","17","","","","","","","","heartS.png","1151","17",""
"html-keyboard-response","594","1274642","0.0-51.7-2.7","null","","","","","","","null","","","","","","","",""
"image-selector-fb","595","1277163","0.0-51.8-0.8","2016","pics2/SW4.jpg,pics2/SW2.jpg","","","","","","","true","1","","","sizeS.png","","",""
"image-slider-2AFC","596","1278741","0.0-51.8-1.8","1575","","","","-8","","","","","","","","heartS.png","1073","-8",""
"html-keyboard-response","597","1279501","0.0-51.8-2.8","null","","","","","","","null","","","","","","","",""
"image-selector-fb","598","1281736","0.0-51.9-0.9","1712","pics2/SA3.jpg,pics2/VE6.jpg","","","","","","","false","0","","","sizeS.png","","",""
"image-slider-2AFC","599","1283931","0.0-51.9-1.9","2192","","","","-37","","","","","","","","sizeS.png","1223","-37",""
"html-keyboard-response","600","1284691","0.0-51.9-2.9","null","","","","","","","null","","","","","","","",""
"image-selector-fb","601","1287695","0.0-51.10-0.10","null","pics2/SA3.jpg,pics2/SW4.jpg","","","","","","","false","null","","","noS.png","","",""
"image-slider-2AFC","602","1289820","0.0-51.10-1.10","2122","","","","-17","","","","","","","","sizeS.png","1621","-17",""
"html-keyboard-response","603","1290546","0.0-51.10-2.10","null","","","","","","","null","","","","","","","",""
"image-selector-fb","604","1292727","0.0-51.11-0.11","1675","pics2/VE6.jpg,pics2/SW6.jpg","","","","","","","false","0","","","heartS.png","","",""
"image-slider-2AFC","605","1294416","0.0-51.11-1.11","1688","","","","22","","","","","","","","sizeS.png","1172","22",""
"html-keyboard-response","606","1295239","0.0-51.11-2.11","null","","","","","","","null","","","","","","","",""
"image-selector-fb","607","1297233","0.0-51.12-0.12","1487","pics2/FR2.jpg,pics2/SA4.jpg","","","","","","","true","1","","","heartS.png","","",""
"image-slider-2AFC","608","1299027","0.0-51.12-1.12","1791","","","","-50","","","","","","","","sizeS.png","1084","-50",""
"html-keyboard-response","609","1299741","0.0-51.12-2.12","null","","","","","","","null","","","","","","","",""
"image-selector-fb","610","1302771","0.0-51.13-0.13","null","pics2/FR3.jpg,pics2/FR2.jpg","","","","","","","false","null","","","noS.png","","",""
"image-slider-2AFC","611","1306968","0.0-51.13-1.13","4194","","","","0","","","","","","","","heartS.png","3537","0",""
"html-keyboard-response","612","1307858","0.0-51.13-2.13","null","","","","","","","null","","","","","","","",""
"image-selector-fb","613","1310086","0.0-51.14-0.14","1724","pics2/FR3.jpg,pics2/SW2.jpg","","","","","","","false","0","","","heartS.png","","",""
"image-slider-2AFC","614","1312370","0.0-51.14-1.14","2282","","","","-81","","","","","","","","heartS.png","1377","-81",""
"html-keyboard-response","615","1313239","0.0-51.14-2.14","null","","","","","","","null","","","","","","","",""
"image-selector-fb","616","1316247","0.0-51.15-0.15","null","pics2/FR1.jpg,pics2/FR6.jpg","","","","","","","false","null","","","noS.png","","",""
"image-slider-2AFC","617","1318444","0.0-51.15-1.15","2194","","","","-97","","","","","","","","sizeS.png","1176","-97",""
"html-keyboard-response","618","1319208","0.0-51.15-2.15","null","","","","","","","null","","","","","","","",""
"image-selector-fb","619","1322483","0.0-51.16-0.16","2747","pics2/SA3.jpg,pics2/FR6.jpg","","","","","","","false","0","","","sizeS.png","","",""
"image-slider-2AFC","620","1325218","0.0-51.16-1.16","2732","","","","10","","","","","","","","heartS.png","2195","10",""
"html-keyboard-response","621","1326087","0.0-51.16-2.16","null","","","","","","","null","","","","","","","",""
"image-selector-fb","622","1329058","0.0-51.17-0.17","2465","pics2/SA3.jpg,pics2/FR4.jpg","","","","","","","false","0","","","sizeS.png","","",""
"image-slider-2AFC","623","1330974","0.0-51.17-1.17","1913","","","","-2","","","","","","","","sizeS.png","1270","-2",""
"html-keyboard-response","624","1331805","0.0-51.17-2.17","null","","","","","","","null","","","","","","","",""
"image-selector-fb","625","1334920","0.0-51.18-0.18","2595","pics2/SA4.jpg,pics2/VE6.jpg","","","","","","","false","0","","","sizeS.png","","",""
"image-slider-2AFC","626","1337903","0.0-51.18-1.18","2980","","","","17","","","","","","","","heartS.png","2203","17",""
"html-keyboard-response","627","1338621","0.0-51.18-2.18","null","","","","","","","null","","","","","","","",""
"image-selector-fb","628","1340882","0.0-51.19-0.19","1754","pics2/VE6.jpg,pics2/FR2.jpg","","","","","","","false","0","","","heartS.png","","",""
"image-slider-2AFC","629","1342810","0.0-51.19-1.19","1925","","","","-27","","","","","","","","heartS.png","1176","-27",""
"html-keyboard-response","630","1343575","0.0-51.19-2.19","null","","","","","","","null","","","","","","","",""
"image-selector-fb","631","1346845","0.0-51.20-0.20","2746","pics2/FR3.jpg,pics2/SA3.jpg","","","","","","","false","0","","","heartS.png","","",""
"image-slider-2AFC","632","1348693","0.0-51.20-1.20","1846","","","","-8","","","","","","","","heartS.png","1316","-8",""
"html-keyboard-response","633","1349570","0.0-51.20-2.20","null","","","","","","","null","","","","","","","",""
"image-selector-fb","634","1353284","0.0-51.21-0.21","3200","pics2/FR6.jpg,pics2/SA3.jpg","","","","","","","false","0","","","heartS.png","","",""
"image-slider-2AFC","635","1355149","0.0-51.21-1.21","1862","","","","46","","","","","","","","sizeS.png","1163","46",""
"html-keyboard-response","636","1355917","0.0-51.21-2.21","null","","","","","","","null","","","","","","","",""
"image-selector-fb","637","1358557","0.0-51.22-0.22","2135","pics2/FR2.jpg,pics2/FR4.jpg","","","","","","","true","1","","","heartS.png","","",""
"image-slider-2AFC","638","1360254","0.0-51.22-1.22","1695","","","","1","","","","","","","","heartS.png","1145","1",""
"html-keyboard-response","639","1361110","0.0-51.22-2.22","null","","","","","","","null","","","","","","","",""
"image-selector-fb","640","1364135","0.0-51.23-0.23","null","pics2/SW6.jpg,pics2/SW5.jpg","","","","","","","false","null","","","noS.png","","",""
"image-slider-2AFC","641","1365854","0.0-51.23-1.23","1716","","","","100","","","","","","","","sizeS.png","1038","100",""
"html-keyboard-response","642","1366578","0.0-51.23-2.23","null","","","","","","","null","","","","","","","",""
"image-selector-fb","643","1369587","0.0-51.24-0.24","null","pics2/SW6.jpg,pics2/SW4.jpg","","","","","","","false","null","","","noS.png","","",""
"image-slider-2AFC","644","1372670","0.0-51.24-1.24","3081","","","","-1","","","","","","","","heartS.png","1596,2154","0,-1",""
"html-keyboard-response","645","1373565","0.0-51.24-2.24","null","","","","","","","null","","","","","","","",""
"image-selector-fb","646","1376573","0.0-51.25-0.25","null","pics2/FR4.jpg,pics2/VE6.jpg","","","","","","","false","null","","","noS.png","","",""
"image-slider-2AFC","647","1378305","0.0-51.25-1.25","1730","","","","8","","","","","","","","heartS.png","1193","8",""
"html-keyboard-response","648","1379069","0.0-51.25-2.25","null","","","","","","","null","","","","","","","",""
"image-selector-fb","649","1382090","0.0-51.26-0.26","null","pics2/FR4.jpg,pics2/FR2.jpg","","","","","","","false","null","","","noS.png","","",""
"image-slider-2AFC","650","1385102","0.0-51.26-1.26","3011","","","","52","","","","","","","","sizeS.png","1588","52",""
"html-keyboard-response","651","1385873","0.0-51.26-2.26","null","","","","","","","null","","","","","","","",""
"image-selector-fb","652","1388028","0.0-51.27-0.27","1643","pics2/FR2.jpg,pics2/FR1.jpg","","","","","","","false","0","","","heartS.png","","",""
"image-slider-2AFC","653","1390071","0.0-51.27-1.27","2040","","","","87","","","","","","","","sizeS.png","1079","87",""
"html-keyboard-response","654","1390939","0.0-51.27-2.27","null","","","","","","","null","","","","","","","",""
"image-selector-fb","655","1393895","0.0-51.28-0.28","2439","pics2/FR6.jpg,pics2/FR1.jpg","","","","","","","false","0","","","heartS.png","","",""
"image-slider-2AFC","656","1395071","0.0-51.28-1.28","1173","","","","-22","","","","","","","","heartS.png","756","-22",""
"html-keyboard-response","657","1395783","0.0-51.28-2.28","null","","","","","","","null","","","","","","","",""
"image-selector-fb","658","1397359","0.0-51.29-0.29","1071","pics2/FR3.jpg,pics2/SW6.jpg","","","","","","","true","1","","","sizeS.png","","",""
"image-slider-2AFC","659","1398825","0.0-51.29-1.29","1463","","","","12","","","","","","","","heartS.png","1046","12",""
"html-keyboard-response","660","1399709","0.0-51.29-2.29","null","","","","","","","null","","","","","","","",""
"image-selector-fb","661","1402744","0.0-51.30-0.30","2527","pics2/VE6.jpg,pics2/FR6.jpg","","","","","","","false","0","","","sizeS.png","","",""
"image-slider-2AFC","662","1404284","0.0-51.30-1.30","1537","","","","-37","","","","","","","","heartS.png","1007","-37",""
"html-keyboard-response","663","1404993","0.0-51.30-2.30","null","","","","","","","null","","","","","","","",""
"image-selector-fb","664","1408029","0.0-51.31-0.31","null","pics2/FR1.jpg,pics2/SW4.jpg","","","","","","","false","null","","","noS.png","","",""
"image-slider-2AFC","665","1409771","0.0-51.31-1.31","1739","","","","-2","","","","","","","","sizeS.png","1166","-2",""
"html-keyboard-response","666","1410529","0.0-51.31-2.31","null","","","","","","","null","","","","","","","",""
"image-selector-fb","667","1412409","0.0-51.32-0.32","1374","pics2/SW6.jpg,pics2/FR4.jpg","","","","","","","true","1","","","sizeS.png","","",""
"image-slider-2AFC","668","1413497","0.0-51.32-1.32","1085","","","","2","","","","","","","","sizeS.png","639","2",""
"html-keyboard-response","669","1414266","0.0-51.32-2.32","null","","","","","","","null","","","","","","","",""
"image-selector-fb","670","1416460","0.0-51.33-0.33","1675","pics2/FR1.jpg,pics2/FR6.jpg","","","","","","","true","1","","","sizeS.png","","",""
"image-slider-2AFC","671","1417973","0.0-51.33-1.33","1509","","","","-2","","","","","","","","heartS.png","1065","-2",""
"html-keyboard-response","672","1418839","0.0-51.33-2.33","null","","","","","","","null","","","","","","","",""
"image-selector-fb","673","1421109","0.0-51.34-0.34","1762","pics2/VE6.jpg,pics2/FR4.jpg","","","","","","","false","0","","","heartS.png","","",""
"image-slider-2AFC","674","1423290","0.0-51.34-1.34","2179","","","","100","","","","","","","","sizeS.png","1196","100",""
"html-keyboard-response","675","1424004","0.0-51.34-2.34","null","","","","","","","null","","","","","","","",""
"image-selector-fb","676","1426391","0.0-51.35-0.35","1880","pics2/FR4.jpg,pics2/SW5.jpg","","","","","","","false","0","","","heartS.png","","",""
"image-slider-2AFC","677","1428367","0.0-51.35-1.35","1974","","","","100","","","","","","","","sizeS.png","913","100",""
"html-keyboard-response","678","1429191","0.0-51.35-2.35","null","","","","","","","null","","","","","","","",""
"image-selector-fb","679","1431401","0.0-51.36-0.36","1705","pics2/FR2.jpg,pics2/FR6.jpg","","","","","","","true","1","","","sizeS.png","","",""
"image-slider-2AFC","680","1433564","0.0-51.36-1.36","2162","","","","9","","","","","","","","sizeS.png","1455","9",""
"html-keyboard-response","681","1434400","0.0-51.36-2.36","null","","","","","","","null","","","","","","","",""
"image-selector-fb","682","1438125","0.0-51.37-0.37","3221","pics2/SW4.jpg,pics2/FR3.jpg","","","","","","","true","1","","","sizeS.png","","",""
"image-slider-2AFC","683","1439788","0.0-51.37-1.37","1660","","","","27","","","","","","","","sizeS.png","1052","27",""
"html-keyboard-response","684","1440609","0.0-51.37-2.37","null","","","","","","","null","","","","","","","",""
"image-selector-fb","685","1442248","0.0-51.38-0.38","1134","pics2/SW6.jpg,pics2/SA4.jpg","","","","","","","true","1","","","heartS.png","","",""
"image-slider-2AFC","686","1444122","0.0-51.38-1.38","1872","","","","9","","","","","","","","heartS.png","1320","9",""
"html-keyboard-response","687","1444978","0.0-51.38-2.38","null","","","","","","","null","","","","","","","",""
"image-selector-fb","688","1447191","0.0-51.39-0.39","1696","pics2/FR3.jpg,pics2/FR2.jpg","","","","","","","true","1","","","sizeS.png","","",""
"image-slider-2AFC","689","1450069","0.0-51.39-1.39","2876","","","","61","","","","","","","","sizeS.png","1696","61",""
"html-keyboard-response","690","1450876","0.0-51.39-2.39","null","","","","","","","null","","","","","","","",""
"image-selector-fb","691","1454313","0.0-51.40-0.40","2930","pics2/SA4.jpg,pics2/FR1.jpg","","","","","","","true","1","","","sizeS.png","","",""
"image-slider-2AFC","692","1456214","0.0-51.40-1.40","1897","","","","1","","","","","","","","sizeS.png","1105","1",""
"html-keyboard-response","693","1456992","0.0-51.40-2.40","null","","","","","","","null","","","","","","","",""
"image-selector-fb","694","1458514","0.0-51.41-0.41","1001","pics2/SW2.jpg,pics2/FR1.jpg","","","","","","","false","0","","","sizeS.png","","",""
"image-slider-2AFC","695","1461665","0.0-51.41-1.41","3149","","","","-68","","","","","","","","sizeS.png","2350","-68",""
"html-keyboard-response","696","1462524","0.0-51.41-2.41","null","","","","","","","null","","","","","","","",""
"image-selector-fb","697","1464532","0.0-51.42-0.42","1503","pics2/SW5.jpg,pics2/FR6.jpg","","","","","","","false","0","","","sizeS.png","","",""
"image-slider-2AFC","698","1466644","0.0-51.42-1.42","2109","","","","6","","","","","","","","heartS.png","1551","6",""
"html-keyboard-response","699","1467516","0.0-51.42-2.42","null","","","","","","","null","","","","","","","",""
"image-selector-fb","700","1470800","0.0-51.43-0.43","2779","pics2/SA3.jpg,pics2/SA4.jpg","","","","","","","false","0","","","heartS.png","","",""
"image-slider-2AFC","701","1472569","0.0-51.43-1.43","1767","","","","-37","","","","","","","","heartS.png","1053","-37",""
"html-keyboard-response","702","1473428","0.0-51.43-2.43","null","","","","","","","null","","","","","","","",""
"image-selector-fb","703","1475226","0.0-51.44-0.44","1290","pics2/VE6.jpg,pics2/SA4.jpg","","","","","","","false","0","","","heartS.png","","",""
"image-slider-2AFC","704","1477279","0.0-51.44-1.44","2050","","","","-2","","","","","","","","heartS.png","1343","-2",""
"html-keyboard-response","705","1478145","0.0-51.44-2.44","null","","","","","","","null","","","","","","","",""
"image-selector-fb","706","1481162","0.0-51.45-0.45","null","pics2/FR1.jpg,pics2/SW5.jpg","","","","","","","false","null","","","noS.png","","",""
"image-slider-2AFC","707","1483452","0.0-51.45-1.45","2287","","","","-13","","","","","","","","heartS.png","1587","-13",""
"html-keyboard-response","708","1484307","0.0-51.45-2.45","null","","","","","","","null","","","","","","","",""
"image-selector-fb","709","1487325","0.0-51.46-0.46","null","pics2/SW4.jpg,pics2/FR2.jpg","","","","","","","false","null","","","noS.png","","",""
"image-slider-2AFC","710","1489201","0.0-51.46-1.46","1872","","","","4","","","","","","","","sizeS.png","1286","4",""
"html-keyboard-response","711","1490023","0.0-51.46-2.46","null","","","","","","","null","","","","","","","",""
