"trial_type","trial_index","time_elapsed","internal_node_id","rt","stimulus","button_pressed","success","response","cat","value","key_press","correct","image_click","first_click_rt","first_click_val","symbol","all_click_rt","all_click_val","view_history"
"pavlovia","0","5","0.0-0.0","","","","","","","","","","","","","","","",""
"html-button-response","1","2343","0.0-1.0","2336","<div style='width: 700px; font-size: 150%'><font size='40'>  Welcome to our study!</font><br><br><br> <small> Our experiment is about <i>decision making</i>. You will choose and rate different food items, such as these: <br><br> <div><img src='food_combo2.png', height = '400px'></img></div>","0","","","","","","","","","","","","",""
"html-button-response","2","23681","0.0-2.0","21336","<div style='width: 700px; font-size: 150%'><br><br><br><small> <u><i>This is a multi-part study.</i></u><br><br> In the first part you will rate 24 food items twice.<br><br><div><img src=""rat1.png"" style=""width: 25%""></img></div><br>In the second part (longest) you will make repeated choices and judgements concerning the food items.<br><br><div><img src=""mainx.png"" style=""width: 50%""></img></div><br>In the third and final part, you will rate the items again and answer few short questionnaires.<br><br><div><img src=""rat2.png"" style=""width: 50%""></img></div><br><br>","0","","","","","","","","","","","","",""
"fullscreen","3","26667","0.0-3.0","","","","true","","","","","","","","","","","",""
"html-button-response","4","290837","0.0-4.0","264168","<div style='width: 900px; font-size: 150%;' <font size='20%'> In the first part of the task you will use the mouse to rate food items on <i>2 scales</i> </font></div><br><br><div style='width: 900px'><div style='float: left; width: 50%; margin-right:2.5em'><img src='heartS.png'></img><p class='small' style='text-align: justify'>When you see the heart cue you will rate food items in terms of how much like them/would like to eat them <i>right now</i>. You will rate them on a continuous scale from left (strong dislike) to right (strong liking). Before submitting your rating, try imagining how the item tastes and how much you desire it.<br><br></p></div><div ><img src='sizeS.png'></img><p class='small' style='text-align: justify'>When you see the size cue, you will rate the same food items in terms of their size. The scale goes from left (tiny) to right (very large). You should assess picture size <i><u>relative</i></u> to the white background. <b>Remember:</b> rate the size of the picture, <u>not</u> the size of the item in real life. </p></div><div style='width: 900px'><br><br><b><i>Notice:</b> by starting the rating you agree that your sumbission might be rejected at an early stage and the experiment might end, if your size ratings are not at least modestly related to objective sizes, or if you repeat the same value ratings too many times. If you don't agree, please exit by closing the browser window. </i><br><br><br>","0","","","","","","","","","","","","",""
"html-button-response","5","502656","0.0-5.0","211819","<div><img src='heartS.png'></img></div><br><div style='text-align: justify; width: 700px'>Using the mouse, rate the <b><i>likeness</b></i> of the food items (how much you like them/would like to eat them <i>right now</i>). Far right-end of the scale indicates an item you <i>like a lot</i>. Far left-end indicates an item you <i>dislike a lot</i>. Think about each answer.   <ul><li>Try <b><i>not</b></i> to give identical rating to different items.</li><li>Use the whole scale, and <b><i>not</b></i> just the extremes</ul></div><br>","0","","","","","","","","","","","","",""
"image-slider-response","6","515223","0.0-6.0-0.0-0.0","12564","pics2/FR5.jpg","","","57","FR","","","","","","","","","",""
"image-slider-response","7","520322","0.0-6.0-0.0-0.1","4897","pics2/SA1.jpg","","","88","SA","","","","","","","","","",""
"image-slider-response","8","523842","0.0-6.0-0.0-0.2","3317","pics2/SA6.jpg","","","0","SA","","","","","","","","","",""
"image-slider-response","9","530104","0.0-6.0-0.0-0.3","6060","pics2/VE4.jpg","","","8","VE","","","","","","","","","",""
"image-slider-response","10","541153","0.0-6.0-0.0-0.4","10845","pics2/FR6.jpg","","","96","FR","","","","","","","","","",""
"image-slider-response","11","546103","0.0-6.0-0.0-0.5","4747","pics2/SA5.jpg","","","30","SA","","","","","","","","","",""
"image-slider-response","12","549961","0.0-6.0-0.0-0.6","3656","pics2/VE1.jpg","","","64","VE","","","","","","","","","",""
"image-slider-response","13","556711","0.0-6.0-0.0-0.7","6548","pics2/SW3.jpg","","","93","SW","","","","","","","","","",""
"image-slider-response","14","559517","0.0-6.0-0.0-0.8","2603","pics2/VE6.jpg","","","69","VE","","","","","","","","","",""
"image-slider-response","15","565600","0.0-6.0-0.0-0.9","5882","pics2/FR4.jpg","","","68","FR","","","","","","","","","",""
"image-slider-response","16","568533","0.0-6.0-0.0-0.10","2731","pics2/SW6.jpg","","","29","SW","","","","","","","","","",""
"image-slider-response","17","572083","0.0-6.0-0.0-0.11","3348","pics2/SW2.jpg","","","6","SW","","","","","","","","","",""
"image-slider-response","18","578653","0.0-6.0-0.0-0.12","6368","pics2/SW4.jpg","","","84","SW","","","","","","","","","",""
"image-slider-response","19","583491","0.0-6.0-0.0-0.13","4636","pics2/FR2.jpg","","","84","FR","","","","","","","","","",""
"image-slider-response","20","587195","0.0-6.0-0.0-0.14","3502","pics2/VE2.jpg","","","54","VE","","","","","","","","","",""
"image-slider-response","21","590085","0.0-6.0-0.0-0.15","2688","pics2/SA3.jpg","","","100","SA","","","","","","","","","",""
"image-slider-response","22","593213","0.0-6.0-0.0-0.16","2926","pics2/SW1.jpg","","","85","SW","","","","","","","","","",""
"image-slider-response","23","597218","0.0-6.0-0.0-0.17","3802","pics2/SW5.jpg","","","72","SW","","","","","","","","","",""
"image-slider-response","24","673689","0.0-6.0-0.0-0.18","76268","pics2/FR1.jpg","","","90","FR","","","","","","","","","",""
"image-slider-response","25","677573","0.0-6.0-0.0-0.19","3682","pics2/SA4.jpg","","","92","SA","","","","","","","","","",""
"image-slider-response","26","681206","0.0-6.0-0.0-0.20","3431","pics2/SA2.jpg","","","88","SA","","","","","","","","","",""
"image-slider-response","27","686927","0.0-6.0-0.0-0.21","5518","pics2/VE5.jpg","","","43","VE","","","","","","","","","",""
"image-slider-response","28","692361","0.0-6.0-0.0-0.22","5232","pics2/VE3.jpg","","","38","VE","","","","","","","","","",""
"image-slider-response","29","696373","0.0-6.0-0.0-0.23","3810","pics2/FR3.jpg","","","66","FR","","","","","","","","","",""
"html-button-response","30","697709","0.0-7.0","1134","<div style='width: 900px;'> <font size = 6><b> End of the first rating</b><br><br>","0","","","","","","","","","","","","",""
"html-button-response","31","1004730","0.0-9.0","307019","<div ><img src='sizeS.png'></img></div><br><div style='text-align: justify; width: 700px'> Using the mouse, rate the <b><i>size</b></i> of the food items <b><i> relative to the white background.</b></i> Right-end of the scale indicates a <i>very large item</i>, which covers a large portion of the white rectangle. Left-end indicates a <i>very tiny</i> item which covers a tiny portion of the white rectangle.<br><br><i><u>Remember</i></u>: everything that is not the white background also contributes to item size (e.g. packing, plates, ect.)<br><br> Please keep in mind that if the accuracy of ratings do not allign well with actual sizes, the experiment will end.  As a result it will be consider incomplete and therefore no payment would be made. Good luck!<br><br></div><br>","0","","","","","","","","","","","","",""
"html-button-response","32","1038108","0.0-10.0","33377","<div ><img src='sizeS.png'></img></div><br><b><font size=6>Examples of items that you might encounter</b><br><div style='width: 750px;'><div style='width: 33.33%; float:left'><br><br><br><i>Large Item</i><br><br><img src='large.jpg', width=200px></img></div><div style='float:right'><br><br><br><i>Small Item</i><br><br><img src='small.jpg', width=200px></img></div><div ><br><br><br><i>Medium Item</i><br><br><img src='med.jpg', width=200px></img></div></div><br><br>","0","","","","","","","","","","","","",""
"image-slider-response","33","1099997","0.0-11.0-0.0-0.0","61888","pics2/FR1.jpg","","","50","null","","","","","","","","","",""
"image-slider-response","34","1106597","0.0-11.0-0.0-0.1","6398","pics2/SA4.jpg","","","28","null","","","","","","","","","",""
"image-slider-response","35","1111215","0.0-11.0-0.0-0.2","4415","pics2/FR2.jpg","","","77","null","","","","","","","","","",""
"image-slider-response","36","1114647","0.0-11.0-0.0-0.3","3229","pics2/SW5.jpg","","","72","null","","","","","","","","","",""
"image-slider-response","37","1118126","0.0-11.0-0.0-0.4","3276","pics2/SA6.jpg","","","53","null","","","","","","","","","",""
"image-slider-response","38","1142406","0.0-11.0-0.0-0.5","24079","pics2/VE2.jpg","","","76","null","","","","","","","","","",""
"image-slider-response","39","1146186","0.0-11.0-0.0-0.6","3578","pics2/VE5.jpg","","","50","null","","","","","","","","","",""
"image-slider-response","40","1149220","0.0-11.0-0.0-0.7","2832","pics2/FR5.jpg","","","56","null","","","","","","","","","",""
"image-slider-response","41","1153056","0.0-11.0-0.0-0.8","3634","pics2/VE6.jpg","","","53","null","","","","","","","","","",""
"image-slider-response","42","1157750","0.0-11.0-0.0-0.9","4492","pics2/FR6.jpg","","","45","null","","","","","","","","","",""
"image-slider-response","43","1161398","0.0-11.0-0.0-0.10","3447","pics2/SW2.jpg","","","82","null","","","","","","","","","",""
"image-slider-response","44","1165118","0.0-11.0-0.0-0.11","3518","pics2/VE1.jpg","","","81","null","","","","","","","","","",""
"image-slider-response","45","1168974","0.0-11.0-0.0-0.12","3654","pics2/SW1.jpg","","","91","null","","","","","","","","","",""
"image-slider-response","46","1172510","0.0-11.0-0.0-0.13","3333","pics2/SW4.jpg","","","56","null","","","","","","","","","",""
"image-slider-response","47","1176781","0.0-11.0-0.0-0.14","4067","pics2/VE3.jpg","","","81","null","","","","","","","","","",""
"image-slider-response","48","1180127","0.0-11.0-0.0-0.15","3143","pics2/SA5.jpg","","","49","null","","","","","","","","","",""
"image-slider-response","49","1182860","0.0-11.0-0.0-0.16","2531","pics2/VE4.jpg","","","54","null","","","","","","","","","",""
"image-slider-response","50","1186201","0.0-11.0-0.0-0.17","3139","pics2/SA2.jpg","","","40","null","","","","","","","","","",""
"image-slider-response","51","1217731","0.0-11.0-0.0-0.18","31327","pics2/FR3.jpg","","","79","null","","","","","","","","","",""
"image-slider-response","52","1223307","0.0-11.0-0.0-0.19","5374","pics2/FR4.jpg","","","79","null","","","","","","","","","",""
"image-slider-response","53","1284856","0.0-11.0-0.0-0.20","61348","pics2/SW3.jpg","","","82","null","","","","","","","","","",""
"image-slider-response","54","1431876","0.0-11.0-0.0-0.21","146818","pics2/SA3.jpg","","","62","null","","","","","","","","","",""
"image-slider-response","55","1434733","0.0-11.0-0.0-0.22","2653","pics2/SW6.jpg","","","43","null","","","","","","","","","",""
"image-slider-response","56","1437323","0.0-11.0-0.0-0.23","2387","pics2/SA1.jpg","","","63","null","","","","","","","","","",""
"html-button-response","57","1438569","0.0-12.0","1044","<div style='width: 900px;'> <font size = 6><b> End of the second rating</b><br><br>","0","","","","","","","","","","","","",""
"html-button-response","58","1441486","0.0-13.0","2917","<div style='width: 900px;'>Now please rate the items for the second time. <br><br>This is not a memory test - you don't need to be consistent with your previous ratings. Just as before, try to make accurate judgements.<br><br>","0","","","","","","","","","","","","",""
"html-button-response","59","1442915","0.0-14.0","1427","<div><img src='heartS.png'></img></div><br><div style='text-align: justify; width: 700px'>Using the mouse, rate the <b><i>likeness</b></i> of the food items (how much you like them/would like to eat them <i>right now</i>). Far right-end of the scale indicates an item you <i>like a lot</i>. Far left-end indicates an item you <i>dislike a lot</i>. Think about each answer.   <ul><li>Try <b><i>not</b></i> to give identical rating to different items.</li><li>Use the whole scale, and <b><i>not</b></i> just the extremes</ul></div><br>","0","","","","","","","","","","","","",""
"image-slider-response","60","1447255","0.0-15.0-0.0-0.0","4338","pics2/VE5.jpg","","","42","VE","","","","","","","","","",""
"image-slider-response","61","1449555","0.0-15.0-0.0-0.1","2097","pics2/VE1.jpg","","","54","VE","","","","","","","","","",""
"image-slider-response","62","1452077","0.0-15.0-0.0-0.2","2319","pics2/SW5.jpg","","","71","SW","","","","","","","","","",""
"image-slider-response","63","1454773","0.0-15.0-0.0-0.3","2494","pics2/SW1.jpg","","","83","SW","","","","","","","","","",""
"image-slider-response","64","1457439","0.0-15.0-0.0-0.4","2464","pics2/SA6.jpg","","","0","SA","","","","","","","","","",""
"image-slider-response","65","1460861","0.0-15.0-0.0-0.5","3220","pics2/FR3.jpg","","","69","FR","","","","","","","","","",""
"image-slider-response","66","1463411","0.0-15.0-0.0-0.6","2348","pics2/VE6.jpg","","","64","VE","","","","","","","","","",""
"image-slider-response","67","1466109","0.0-15.0-0.0-0.7","2495","pics2/SA1.jpg","","","87","SA","","","","","","","","","",""
"image-slider-response","68","1469315","0.0-15.0-0.0-0.8","3005","pics2/SW4.jpg","","","88","SW","","","","","","","","","",""
"image-slider-response","69","1472221","0.0-15.0-0.0-0.9","2704","pics2/FR5.jpg","","","60","FR","","","","","","","","","",""
"image-slider-response","70","1475179","0.0-15.0-0.0-0.10","2756","pics2/SA4.jpg","","","94","SA","","","","","","","","","",""
"image-slider-response","71","1478521","0.0-15.0-0.0-0.11","3141","pics2/SW2.jpg","","","21","SW","","","","","","","","","",""
"image-slider-response","72","1481667","0.0-15.0-0.0-0.12","2944","pics2/FR1.jpg","","","89","FR","","","","","","","","","",""
"image-slider-response","73","1483925","0.0-15.0-0.0-0.13","2056","pics2/FR6.jpg","","","69","FR","","","","","","","","","",""
"image-slider-response","74","1486947","0.0-15.0-0.0-0.14","2820","pics2/SA5.jpg","","","22","SA","","","","","","","","","",""
"image-slider-response","75","1489843","0.0-15.0-0.0-0.15","2694","pics2/FR4.jpg","","","87","FR","","","","","","","","","",""
"image-slider-response","76","1492989","0.0-15.0-0.0-0.16","2944","pics2/VE3.jpg","","","22","VE","","","","","","","","","",""
"image-slider-response","77","1499641","0.0-15.0-0.0-0.17","6450","pics2/FR2.jpg","","","89","FR","","","","","","","","","",""
"image-slider-response","78","1508020","0.0-15.0-0.0-0.18","8176","pics2/VE2.jpg","","","38","VE","","","","","","","","","",""
"image-slider-response","79","1510428","0.0-15.0-0.0-0.19","2205","pics2/SA2.jpg","","","71","SA","","","","","","","","","",""
"image-slider-response","80","1513004","0.0-15.0-0.0-0.20","2373","pics2/VE4.jpg","","","5","VE","","","","","","","","","",""
"image-slider-response","81","1515892","0.0-15.0-0.0-0.21","2685","pics2/SW3.jpg","","","93","SW","","","","","","","","","",""
"image-slider-response","82","1518636","0.0-15.0-0.0-0.22","2542","pics2/SA3.jpg","","","100","SA","","","","","","","","","",""
"image-slider-response","83","1521668","0.0-15.0-0.0-0.23","2830","pics2/SW6.jpg","","","8","SW","","","","","","","","","",""
"call-function","84","1521874","0.0-16.0","","","","","","","","","","","","","","","",""
"call-function","85","1521876","0.0-17.0","","","","","","","","","","","","","","","",""
"html-button-response","86","1522934","0.0-18.0","1057","<div style='width: 900px;'> <font size = 6><b> End of the first rating</b><br><br>","0","","","","","","","","","","","","",""
"html-button-response","87","1524180","0.0-19.0","1246","<div ><img src='sizeS.png'></img></div><br><div style='text-align: justify; width: 700px'> Using the mouse, rate the <b><i>size</b></i> of the food items <b><i> relative to the white background.</b></i> Right-end of the scale indicates a <i>very large item</i>, which covers a large portion of the white rectangle. Left-end indicates a <i>very tiny</i> item which covers a tiny portion of the white rectangle.<br><br><i><u>Remember</i></u>: everything that is not the white background also contributes to item size (e.g. packing, plates, ect.)<br><br> Please keep in mind that if the accuracy of ratings do not allign well with actual sizes, the experiment will end.  As a result it will be consider incomplete and therefore no payment would be made. Good luck!<br><br></div><br>","0","","","","","","","","","","","","",""
"image-slider-response","88","1664590","0.0-20.0-0.0-0.0","140409","pics2/SA6.jpg","","","48","null","","","","","","","","","",""
"image-slider-response","89","1668920","0.0-20.0-0.0-0.1","4128","pics2/SA4.jpg","","","26","null","","","","","","","","","",""
"image-slider-response","90","1691994","0.0-20.0-0.0-0.2","22872","pics2/SW4.jpg","","","66","null","","","","","","","","","",""
"image-slider-response","91","1695479","0.0-20.0-0.0-0.3","3281","pics2/FR3.jpg","","","73","null","","","","","","","","","",""
"image-slider-response","92","1698035","0.0-20.0-0.0-0.4","2353","pics2/FR5.jpg","","","56","null","","","","","","","","","",""
"image-slider-response","93","1700773","0.0-20.0-0.0-0.5","2535","pics2/SW5.jpg","","","80","null","","","","","","","","","",""
"image-slider-response","94","1704777","0.0-20.0-0.0-0.6","3801","pics2/FR6.jpg","","","54","null","","","","","","","","","",""
"image-slider-response","95","1711841","0.0-20.0-0.0-0.7","6861","pics2/FR4.jpg","","","71","null","","","","","","","","","",""
"image-slider-response","96","1714251","0.0-20.0-0.0-0.8","2208","pics2/SW3.jpg","","","72","null","","","","","","","","","",""
"image-slider-response","97","1716710","0.0-20.0-0.0-0.9","2257","pics2/VE2.jpg","","","38","null","","","","","","","","","",""
"image-slider-response","98","1719649","0.0-20.0-0.0-0.10","2736","pics2/SA1.jpg","","","81","null","","","","","","","","","",""
"image-slider-response","99","1722837","0.0-20.0-0.0-0.11","2987","pics2/SW6.jpg","","","34","null","","","","","","","","","",""
"image-slider-response","100","1725617","0.0-20.0-0.0-0.12","2579","pics2/SA2.jpg","","","36","null","","","","","","","","","",""
"image-slider-response","101","1728113","0.0-20.0-0.0-0.13","2294","pics2/SA5.jpg","","","35","null","","","","","","","","","",""
"image-slider-response","102","1731449","0.0-20.0-0.0-0.14","3134","pics2/VE5.jpg","","","49","null","","","","","","","","","",""
"image-slider-response","103","1733893","0.0-20.0-0.0-0.15","2243","pics2/SA3.jpg","","","54","null","","","","","","","","","",""
"image-slider-response","104","1736723","0.0-20.0-0.0-0.16","2628","pics2/SW2.jpg","","","69","null","","","","","","","","","",""
"image-slider-response","105","1739509","0.0-20.0-0.0-0.17","2584","pics2/VE4.jpg","","","54","null","","","","","","","","","",""
"image-slider-response","106","1741829","0.0-20.0-0.0-0.18","2118","pics2/FR1.jpg","","","58","null","","","","","","","","","",""
"image-slider-response","107","1744379","0.0-20.0-0.0-0.19","2348","pics2/FR2.jpg","","","69","null","","","","","","","","","",""
"image-slider-response","108","1750061","0.0-20.0-0.0-0.20","5479","pics2/SW1.jpg","","","86","null","","","","","","","","","",""
"image-slider-response","109","1752741","0.0-20.0-0.0-0.21","2478","pics2/VE3.jpg","","","67","null","","","","","","","","","",""
"image-slider-response","110","1755619","0.0-20.0-0.0-0.22","2676","pics2/VE1.jpg","","","70","null","","","","","","","","","",""
"image-slider-response","111","1759184","0.0-20.0-0.0-0.23","3361","pics2/VE6.jpg","","","42","null","","","","","","","","","",""
"call-function","112","1759388","0.0-21.0","","","","","","","","","","","","","","","",""
"html-button-response","113","1760441","0.0-22.0","1053","<div style='width: 900px;'> <font size = 6><b> End of the second rating</b><br><br>","0","","","","","","","","","","","","",""
"pavlovia","114","1760447","0.0-23.0","","","","","","","","","","","","","","","",""
"html-keyboard-response","115","1765450","0.0-24.0","null","<div style='width: 700px;'> <font size=6><b>SHORT BREAK</font></b><br><br><i> Please wait 5 seconds to continue</i></div> ","","","","","","null","","","","","","","",""
"pavlovia","116","1765451","0.0-25.0","","","","","","","","","","","","","","","",""
"html-button-response","117","2028943","0.0-26.0","263491","<div style='width: 700px;'>In the main part of the study, you will be choosing between 2 items. When it's time to choose,  this symbol will appear: <br><br><img src='chooseS.png'></img><br><br>Below, a cue will signify the type of choice: </div><br><div style='width: 700px;'><div style='float: left; width: 50%'><img src='heartS.png'></img><p class='small'>Heart cue means you should choose the item you <b><i>prefer</b></i> more.</p></div><div class='float: right; width:50%'><img src='sizeS.png'></img><p class='small'>Size cue means you should choose the <b><i>larger</b></i> item. </p></div></div><br><div style='width: 700px;'>When you click, a green square will appear around the item you chose.<br></div><div><br>","0","","","","","","","","","","","","",""
"image-selector-fb-tut","118","2032451","0.0-27.0","2504","0232.jpg,0123.jpg","","","","","","","false","0","","","","","",""
"image-selector-fb-tut","119","2035905","0.0-28.0","2450","0232.jpg,0123.jpg","","","","","","","true","1","","","","","",""
"html-button-response","120","2037824","0.0-29.0","1919","<div style='width: 900px;'>Your choices should be both <b><i>fast and accurate</b></i>. <br><br>You will have <i>4 seconds</i> to make each choice, which should be enough consider the options and click on one of the items.<br><br>","0","","","","","","","","","","","","",""
"html-button-response","121","2042068","0.0-30.0","4243","<div style='width: 900px;'>Additionally, on some choice trials you will see the <b><i>no-choice cue</b></i>: <br><br><img src='noS.png'></img> <br><br>This cue means you can't make any choice. You can examine the items, but  can't click on any of them. Just wait patiently for the cue to dissapear.<br><br>","0","","","","","","","","","","","","",""
"image-selector-fb-tut","122","2044073","0.0-31.0","null","0232.jpg,0123.jpg","","","","","","","false","null","","","","","",""
"html-button-response","123","2047892","0.0-32.0","3818","<div style='width: 900px;'>After each choice the items will remain on the screen and you will see this symbol: <br><br><img src='judgeS.png'></img> <br><br>This means you should rate<b> the magnitude of the difference</b> between the items using a scale: </div><br><div style='width: 900px; '><div style='float: left; width: 50%; margin-right: 2.5em; align-self:left'><img src='heartS.png'></img><p class='small' style = 'text-align: justify;'>Heart cue means you should rate <b>how much you prefer</b> one of the items over the other. Moving the scale indicator to the left means you prefer the left one; moving it to the right - right one. The more you prefer one of them, the more towards that side you should move the scale indicator. </p></div><div class='float: right; width: 50%; margin-left: 2.5em;'><img src='sizeS.png'></img><p class='small' style='text-align: justify'>Size cue means you should rate <b>how much larger</b> is one of the items over the other. Moving the scale indicator to the left means you think the left is larger; moving it to the right - right one. The greater the difference in size, the more towards that side you should move the scale indicator.</div><br>","0","","","","","","","","","","","","",""
"image-slider-2AFC-tut","124","2061518","0.0-33.0","13624","","","","82","","","","","","","","","","",""
"image-slider-2AFC-tut","125","2086552","0.0-34.0","25033","","","","30","","","","","","24400","30","","","",""
"html-button-response","126","2101581","0.0-35.0","15028","<br><br><font size = 36><b> Examples </b></font><br><br><i> 1) I would like to eat some croissants a <b>lot more</b> than doritos right now:</i><br><img src='ex1.PNG', width='62%'></img><br><br><br><i> 2) I would like to eat some doritos a <b>bit more</b> than croissants right now, but just slightly:</i><br><img src='ex2.PNG' width='62%'></img>","0","","","","","","","","","","","","",""
"html-button-response","127","2104247","0.0-36.0","2666","<div style='width: 900px;'><i>Now you know everything you need to do the task!</i> <br><br>Let's start by doing a <b>short training</b>, so you'll get used to how it works. </div><br>","0","","","","","","","","","","","","",""
"image-selector-fb","128","2108750","0.0-37.0-0.0","null","pics2/FR3.jpg,pics2/VE1.jpg","","","","","","","false","null","","","heartS.png","","",""
"image-slider-2AFC","129","2108752","0.0-37.0-1.0","null","","","","null","","","","","","","","sizeS.png","","",""
"html-keyboard-response","130","2109554","0.0-37.0-2.0","null","","","","","","","null","","","","","","","",""
"image-selector-fb","131","2111067","0.0-37.1-0.1","1008","pics2/FR5.jpg,pics2/VE6.jpg","","","","","","","false","0","","","sizeS.png","","",""
"image-slider-2AFC","132","2116070","0.0-37.1-1.1","null","","","","null","","","","","","","","sizeS.png","","",""
"html-keyboard-response","133","2116822","0.0-37.1-2.1","null","","","","","","","null","","","","","","","",""
"image-selector-fb","134","2121325","0.0-37.2-0.2","null","pics2/SA6.jpg,pics2/FR5.jpg","","","","","","","false","null","","","sizeS.png","","",""
"image-slider-2AFC","135","2121325","0.0-37.2-1.2","null","","","","null","","","","","","","","sizeS.png","","",""
"html-keyboard-response","136","2122078","0.0-37.2-2.2","null","","","","","","","null","","","","","","","",""
"image-selector-fb","137","2125104","0.0-37.3-0.3","2523","pics2/SA6.jpg,pics2/SA5.jpg","","","","","","","false","0","","","sizeS.png","","",""
"image-slider-2AFC","138","2128232","0.0-37.3-1.3","3127","","","","36","","","","","","","","heartS.png","2531","36",""
"html-keyboard-response","139","2129035","0.0-37.3-2.3","null","","","","","","","null","","","","","","","",""
"image-selector-fb","140","2132756","0.0-37.4-0.4","3217","pics2/VE3.jpg,pics2/VE2.jpg","","","","","","","true","1","","","heartS.png","","",""
"image-slider-2AFC","141","2136406","0.0-37.4-1.4","3649","","","","28","","","","","","","","heartS.png","2859","28",""
"html-keyboard-response","142","2137259","0.0-37.4-2.4","null","","","","","","","null","","","","","","","",""
"image-selector-fb","143","2141763","0.0-37.5-0.5","null","pics2/FR5.jpg,pics2/VE3.jpg","","","","","","","false","null","","","sizeS.png","","",""
"image-slider-2AFC","144","2141764","0.0-37.5-1.5","null","","","","null","","","","","","","","heartS.png","","",""
"html-keyboard-response","145","2142516","0.0-37.5-2.5","null","","","","","","","null","","","","","","","",""
"image-selector-fb","146","2145521","0.0-37.6-0.6","null","pics2/VE4.jpg,pics2/VE2.jpg","","","","","","","false","null","","","noS.png","","",""
"image-slider-2AFC","147","2150523","0.0-37.6-1.6","null","","","","null","","","","","","","","heartS.png","","",""
"html-keyboard-response","148","2151326","0.0-37.6-2.6","null","","","","","","","null","","","","","","","",""
"image-selector-fb","149","2155830","0.0-37.7-0.7","null","pics2/FR3.jpg,pics2/VE4.jpg","","","","","","","false","null","","","heartS.png","","",""
"image-slider-2AFC","150","2155831","0.0-37.7-1.7","null","","","","null","","","","","","","","heartS.png","","",""
"html-keyboard-response","151","2156634","0.0-37.7-2.7","null","","","","","","","null","","","","","","","",""
"image-selector-fb","152","2161138","0.0-37.8-0.8","null","pics2/FR5.jpg,pics2/VE4.jpg","","","","","","","false","null","","","sizeS.png","","",""
"image-slider-2AFC","153","2161139","0.0-37.8-1.8","null","","","","null","","","","","","","","sizeS.png","","",""
"html-keyboard-response","154","2161891","0.0-37.8-2.8","null","","","","","","","null","","","","","","","",""
"image-selector-fb","155","2164895","0.0-37.9-0.9","null","pics2/VE4.jpg,pics2/SW2.jpg","","","","","","","false","null","","","noS.png","","",""
"image-slider-2AFC","156","2169897","0.0-37.9-1.9","null","","","","null","","","","","","","","sizeS.png","","",""
"html-keyboard-response","157","2170750","0.0-37.9-2.9","null","","","","","","","null","","","","","","","",""
"image-selector-fb","158","2173754","0.0-37.10-0.10","null","pics2/VE1.jpg,pics2/SW6.jpg","","","","","","","false","null","","","noS.png","","",""
"image-slider-2AFC","159","2178756","0.0-37.10-1.10","null","","","","null","","","","","","","","heartS.png","","",""
"html-keyboard-response","160","2179459","0.0-37.10-2.10","null","","","","","","","null","","","","","","","",""
"image-selector-fb","161","2182462","0.0-37.11-0.11","null","pics2/VE4.jpg,pics2/VE5.jpg","","","","","","","false","null","","","noS.png","","",""
"image-slider-2AFC","162","2187464","0.0-37.11-1.11","null","","","","null","","","","","","","","heartS.png","","",""
"html-keyboard-response","163","2188267","0.0-37.11-2.11","null","","","","","","","null","","","","","","","",""
"html-button-response","164","2191299","0.0-38.0","3031","<i><font size=10>Good job!</font></i> <br><br>Before we begin, you have a chance to review the rules, in case something was not clear.<br><br>","0","","","","","","","","","","","","",""
"instructions","165","3187626","0.0-39.0","996327","","","","","","","","","","","","","","","[{""page_index"":0,""viewing_time"":989325},{""page_index"":1,""viewing_time"":2400},{""page_index"":2,""viewing_time"":4601}]"
"html-button-response","166","3196081","0.0-40.0","8455","<div style='width: 900px;'> <font size='40'>Great! Now you're ready to begin</font><br><br>The main part of the experiment will consist of <u>3 blocks</u>. Each block consists of 66 decisions and judgements. You will have time for a short break between blocks.<br><br><br><i><u>Do your best to respond within the time limit.</u></i><br><br><i> Press the button to start the experiment<br><br></i>","0","","","","","","","","","","","","",""
"image-selector-fb","167","3199086","0.0-41.0-0.0","null","pics2/FR6.jpg,pics2/SW1.jpg","","","","","","","false","null","","","noS.png","","",""
"image-slider-2AFC","168","3201777","0.0-41.0-1.0","2690","","","","29","","","","","","","","sizeS.png","1996","29",""
"html-keyboard-response","169","3202530","0.0-41.0-2.0","null","","","","","","","null","","","","","","","",""
"image-selector-fb","170","3205535","0.0-41.1-0.1","null","pics2/SA3.jpg,pics2/SA1.jpg","","","","","","","false","null","","","noS.png","","",""
"image-slider-2AFC","171","3208661","0.0-41.1-1.1","3125","","","","30","","","","","","","","sizeS.png","1903","30",""
"html-keyboard-response","172","3209514","0.0-41.1-2.1","null","","","","","","","null","","","","","","","",""
"image-selector-fb","173","3212092","0.0-41.2-0.2","2076","pics2/SW5.jpg,pics2/FR6.jpg","","","","","","","false","0","","","heartS.png","","",""
"image-slider-2AFC","174","3217093","0.0-41.2-1.2","null","","","","null","","","","","","","","sizeS.png","","",""
"html-keyboard-response","175","3217795","0.0-41.2-2.2","null","","","","","","","null","","","","","","","",""
"image-selector-fb","176","3220130","0.0-41.3-0.3","1833","pics2/FR6.jpg,pics2/SA1.jpg","","","","","","","true","1","","","heartS.png","","",""
"image-slider-2AFC","177","3222213","0.0-41.3-1.3","2083","","","","35","","","","","","","","sizeS.png","1591","35",""
"html-keyboard-response","178","3223066","0.0-41.3-2.3","null","","","","","","","null","","","","","","","",""
"image-selector-fb","179","3226137","0.0-41.4-0.4","2567","pics2/FR2.jpg,pics2/FR6.jpg","","","","","","","false","0","","","sizeS.png","","",""
"image-slider-2AFC","180","3228183","0.0-41.4-1.4","2044","","","","-32","","","","","","","","sizeS.png","1451","-32",""
"html-keyboard-response","181","3228885","0.0-41.4-2.4","null","","","","","","","null","","","","","","","",""
"image-selector-fb","182","3230683","0.0-41.5-0.5","1294","pics2/FR1.jpg,pics2/SW3.jpg","","","","","","","true","1","","","heartS.png","","",""
"image-slider-2AFC","183","3235685","0.0-41.5-1.5","null","","","","null","","","","","","","","heartS.png","","",""
"html-keyboard-response","184","3236438","0.0-41.5-2.5","null","","","","","","","null","","","","","","","",""
"image-selector-fb","185","3238445","0.0-41.6-0.6","1503","pics2/SW3.jpg,pics2/FR1.jpg","","","","","","","true","1","","","sizeS.png","","",""
"image-slider-2AFC","186","3240782","0.0-41.6-1.6","2337","","","","-32","","","","","","","","heartS.png","1685","-32",""
"html-keyboard-response","187","3241585","0.0-41.6-2.6","null","","","","","","","null","","","","","","","",""
"image-selector-fb","188","3244590","0.0-41.7-0.7","null","pics2/SW3.jpg,pics2/FR6.jpg","","","","","","","false","null","","","noS.png","","",""
"image-slider-2AFC","189","3249591","0.0-41.7-1.7","null","","","","null","","","","","","","","heartS.png","","",""
"html-keyboard-response","190","3250342","0.0-41.7-2.7","null","","","","","","","null","","","","","","","",""
"image-selector-fb","191","3253344","0.0-41.8-0.8","null","pics2/SA1.jpg,pics2/FR6.jpg","","","","","","","false","null","","","noS.png","","",""
"image-slider-2AFC","192","3255818","0.0-41.8-1.8","2473","","","","-41","","","","","","","","sizeS.png","1735","-41",""
"html-keyboard-response","193","3256671","0.0-41.8-2.8","null","","","","","","","null","","","","","","","",""
"image-selector-fb","194","3259234","0.0-41.9-0.9","2060","pics2/FR4.jpg,pics2/FR2.jpg","","","","","","","true","1","","","sizeS.png","","",""
"image-slider-2AFC","195","3261732","0.0-41.9-1.9","2497","","","","-29","","","","","","","","heartS.png","1903","-29",""
"html-keyboard-response","196","3262435","0.0-41.9-2.9","null","","","","","","","null","","","","","","","",""
"image-selector-fb","197","3265439","0.0-41.10-0.10","null","pics2/FR4.jpg,pics2/SW4.jpg","","","","","","","false","null","","","noS.png","","",""
"image-slider-2AFC","198","3270441","0.0-41.10-1.10","null","","","","null","","","","","","","","sizeS.png","","",""
"html-keyboard-response","199","3271243","0.0-41.10-2.10","null","","","","","","","null","","","","","","","",""
"image-selector-fb","200","3273544","0.0-41.11-0.11","1797","pics2/FR1.jpg,pics2/SW4.jpg","","","","","","","false","0","","","sizeS.png","","",""
"image-slider-2AFC","201","3276829","0.0-41.11-1.11","3284","","","","-26","","","","","","","","sizeS.png","1536","1",""
"html-keyboard-response","202","3277581","0.0-41.11-2.11","null","","","","","","","null","","","","","","","",""
"image-selector-fb","203","3280586","0.0-41.12-0.12","null","pics2/SW5.jpg,pics2/FR2.jpg","","","","","","","false","null","","","noS.png","","",""
"image-slider-2AFC","204","3285588","0.0-41.12-1.12","null","","","","null","","","","","","","","heartS.png","","",""
"html-keyboard-response","205","3286441","0.0-41.12-2.12","null","","","","","","","null","","","","","","","",""
"image-selector-fb","206","3288425","0.0-41.13-0.13","1481","pics2/SW4.jpg,pics2/SA4.jpg","","","","","","","false","0","","","heartS.png","","",""
"image-slider-2AFC","207","3293426","0.0-41.13-1.13","null","","","","null","","","","","","","","sizeS.png","","",""
"html-keyboard-response","208","3294179","0.0-41.13-2.13","null","","","","","","","null","","","","","","","",""
"image-selector-fb","209","3297246","0.0-41.14-0.14","2565","pics2/SW5.jpg,pics2/SA2.jpg","","","","","","","false","0","","","heartS.png","","",""
"image-slider-2AFC","210","3302249","0.0-41.14-1.14","null","","","","null","","","","","","","","heartS.png","","",""
"html-keyboard-response","211","3302951","0.0-41.14-2.14","null","","","","","","","null","","","","","","","",""
"image-selector-fb","212","3305561","0.0-41.15-0.15","2106","pics2/FR2.jpg,pics2/SW5.jpg","","","","","","","true","1","","","sizeS.png","","",""
"image-slider-2AFC","213","3308167","0.0-41.15-1.15","2604","","","","33","","","","","","","","heartS.png","1522,1825","16,33",""
"html-keyboard-response","214","3308869","0.0-41.15-2.15","null","","","","","","","null","","","","","","","",""
"image-selector-fb","215","3311877","0.0-41.16-0.16","null","pics2/SW1.jpg,pics2/FR2.jpg","","","","","","","false","null","","","noS.png","","",""
"image-slider-2AFC","216","3316881","0.0-41.16-1.16","null","","","","null","","","","","","","","sizeS.png","","",""
"html-keyboard-response","217","3317734","0.0-41.16-2.16","null","","","","","","","null","","","","","","","",""
"image-selector-fb","218","3319408","0.0-41.17-0.17","1170","pics2/FR2.jpg,pics2/SA4.jpg","","","","","","","true","1","","","heartS.png","","",""
"image-slider-2AFC","219","3324410","0.0-41.17-1.17","null","","","","null","","","","","","","","heartS.png","","",""
"html-keyboard-response","220","3325164","0.0-41.17-2.17","null","","","","","","","null","","","","","","","",""
"image-selector-fb","221","3328733","0.0-41.18-0.18","3067","pics2/SA1.jpg,pics2/SW4.jpg","","","","","","","false","0","","","sizeS.png","","",""
"image-slider-2AFC","222","3331100","0.0-41.18-1.18","2366","","","","44","","","","","","","","heartS.png","1692","44",""
"html-keyboard-response","223","3331803","0.0-41.18-2.18","null","","","","","","","null","","","","","","","",""
"image-selector-fb","224","3334664","0.0-41.19-0.19","2358","pics2/SA2.jpg,pics2/SA4.jpg","","","","","","","true","1","","","sizeS.png","","",""
"image-slider-2AFC","225","3336562","0.0-41.19-1.19","1897","","","","37","","","","","","","","heartS.png","1325","37",""
"html-keyboard-response","226","3337414","0.0-41.19-2.19","null","","","","","","","null","","","","","","","",""
"image-selector-fb","227","3339528","0.0-41.20-0.20","1610","pics2/SW3.jpg,pics2/SA4.jpg","","","","","","","false","0","","","sizeS.png","","",""
"image-slider-2AFC","228","3344530","0.0-41.20-1.20","null","","","","null","","","","","","","","heartS.png","","",""
"html-keyboard-response","229","3345283","0.0-41.20-2.20","null","","","","","","","null","","","","","","","",""
"image-selector-fb","230","3347800","0.0-41.21-0.21","2013","pics2/SW3.jpg,pics2/FR6.jpg","","","","","","","false","0","","","sizeS.png","","",""
"image-slider-2AFC","231","3352801","0.0-41.21-1.21","null","","","","null","","","","","","","","sizeS.png","","",""
"html-keyboard-response","232","3353604","0.0-41.21-2.21","null","","","","","","","null","","","","","","","",""
"image-selector-fb","233","3355672","0.0-41.22-0.22","1563","pics2/SW4.jpg,pics2/SA2.jpg","","","","","","","false","0","","","heartS.png","","",""
"image-slider-2AFC","234","3360676","0.0-41.22-1.22","null","","","","null","","","","","","","","sizeS.png","","",""
"html-keyboard-response","235","3361379","0.0-41.22-2.22","null","","","","","","","null","","","","","","","",""
"image-selector-fb","236","3364387","0.0-41.23-0.23","null","pics2/SW1.jpg,pics2/SA2.jpg","","","","","","","false","null","","","noS.png","","",""
"image-slider-2AFC","237","3369390","0.0-41.23-1.23","null","","","","null","","","","","","","","sizeS.png","","",""
"html-keyboard-response","238","3370092","0.0-41.23-2.23","null","","","","","","","null","","","","","","","",""
"image-selector-fb","239","3374161","0.0-41.24-0.24","3566","pics2/SA2.jpg,pics2/SA3.jpg","","","","","","","true","1","","","sizeS.png","","",""
"image-slider-2AFC","240","3376031","0.0-41.24-1.24","1869","","","","36","","","","","","","","sizeS.png","1325","36",""
"html-keyboard-response","241","3376784","0.0-41.24-2.24","null","","","","","","","null","","","","","","","",""
"image-selector-fb","242","3379730","0.0-41.25-0.25","2442","pics2/FR6.jpg,pics2/SA2.jpg","","","","","","","false","0","","","heartS.png","","",""
"image-slider-2AFC","243","3382953","0.0-41.25-1.25","3222","","","","51","","","","","","","","sizeS.png","2700","51",""
"html-keyboard-response","244","3383806","0.0-41.25-2.25","null","","","","","","","null","","","","","","","",""
"image-selector-fb","245","3386810","0.0-41.26-0.26","null","pics2/SA3.jpg,pics2/SA4.jpg","","","","","","","false","null","","","noS.png","","",""
"image-slider-2AFC","246","3389367","0.0-41.26-1.26","2555","","","","-48","","","","","","","","heartS.png","1914","-48",""
"html-keyboard-response","247","3390070","0.0-41.26-2.26","null","","","","","","","null","","","","","","","",""
"image-selector-fb","248","3391951","0.0-41.27-0.27","1378","pics2/FR4.jpg,pics2/SW5.jpg","","","","","","","true","1","","","sizeS.png","","",""
"image-slider-2AFC","249","3394087","0.0-41.27-1.27","2134","","","","55","","","","","","","","sizeS.png","1407","55",""
"html-keyboard-response","250","3394788","0.0-41.27-2.27","null","","","","","","","null","","","","","","","",""
"image-selector-fb","251","3397297","0.0-41.28-0.28","2006","pics2/FR4.jpg,pics2/SW4.jpg","","","","","","","false","0","","","sizeS.png","","",""
"image-slider-2AFC","252","3399607","0.0-41.28-1.28","2308","","","","-44","","","","","","","","sizeS.png","1610","-44",""
"html-keyboard-response","253","3400410","0.0-41.28-2.28","null","","","","","","","null","","","","","","","",""
"image-selector-fb","254","3402164","0.0-41.29-0.29","1250","pics2/SW3.jpg,pics2/FR2.jpg","","","","","","","false","0","","","sizeS.png","","",""
"image-slider-2AFC","255","3403870","0.0-41.29-1.29","1705","","","","-63","","","","","","","","sizeS.png","909","-63",""
"html-keyboard-response","256","3404573","0.0-41.29-2.29","null","","","","","","","null","","","","","","","",""
"image-selector-fb","257","3407577","0.0-41.30-0.30","null","pics2/SA3.jpg,pics2/SW3.jpg","","","","","","","false","null","","","noS.png","","",""
"image-slider-2AFC","258","3412579","0.0-41.30-1.30","null","","","","null","","","","","","","","heartS.png","","",""
"html-keyboard-response","259","3413382","0.0-41.30-2.30","null","","","","","","","null","","","","","","","",""
"image-selector-fb","260","3415264","0.0-41.31-0.31","1378","pics2/SW1.jpg,pics2/FR1.jpg","","","","","","","false","0","","","heartS.png","","",""
"image-slider-2AFC","261","3417208","0.0-41.31-1.31","1944","","","","-58","","","","","","","","heartS.png","1302","-58",""
"html-keyboard-response","262","3417911","0.0-41.31-2.31","null","","","","","","","null","","","","","","","",""
"image-selector-fb","263","3419843","0.0-41.32-0.32","1429","pics2/SA4.jpg,pics2/SW1.jpg","","","","","","","true","1","","","sizeS.png","","",""
"image-slider-2AFC","264","3422239","0.0-41.32-1.32","2394","","","","53","","","","","","","","heartS.png","1767","53",""
"html-keyboard-response","265","3422993","0.0-41.32-2.32","null","","","","","","","null","","","","","","","",""
"image-selector-fb","266","3425656","0.0-41.33-0.33","2158","pics2/FR4.jpg,pics2/SW3.jpg","","","","","","","true","1","","","heartS.png","","",""
"image-slider-2AFC","267","3427720","0.0-41.33-1.33","2062","","","","53","","","","","","","","heartS.png","1149","53",""
"html-keyboard-response","268","3428422","0.0-41.33-2.33","null","","","","","","","null","","","","","","","",""
"image-selector-fb","269","3431425","0.0-41.34-0.34","null","pics2/FR4.jpg,pics2/SA2.jpg","","","","","","","false","null","","","noS.png","","",""
"image-slider-2AFC","270","3434462","0.0-41.34-1.34","3035","","","","-66","","","","","","","","sizeS.png","2203","-66",""
"html-keyboard-response","271","3435264","0.0-41.34-2.34","null","","","","","","","null","","","","","","","",""
"image-selector-fb","272","3437552","0.0-41.35-0.35","1784","pics2/FR2.jpg,pics2/FR1.jpg","","","","","","","true","1","","","sizeS.png","","",""
"image-slider-2AFC","273","3440273","0.0-41.35-1.35","2720","","","","-51","","","","","","","","heartS.png","2143","-51",""
"html-keyboard-response","274","3440976","0.0-41.35-2.35","null","","","","","","","null","","","","","","","",""
"image-selector-fb","275","3442701","0.0-41.36-0.36","1223","pics2/SW5.jpg,pics2/SA4.jpg","","","","","","","true","1","","","heartS.png","","",""
"image-slider-2AFC","276","3445199","0.0-41.36-1.36","2497","","","","43","","","","","","","","heartS.png","1711","43",""
"html-keyboard-response","277","3446002","0.0-41.36-2.36","null","","","","","","","null","","","","","","","",""
"image-selector-fb","278","3449007","0.0-41.37-0.37","null","pics2/SW3.jpg,pics2/SW5.jpg","","","","","","","false","null","","","noS.png","","",""
"image-slider-2AFC","279","3452417","0.0-41.37-1.37","3409","","","","-62","","","","","","","","sizeS.png","2533","-62",""
"html-keyboard-response","280","3453220","0.0-41.37-2.37","null","","","","","","","null","","","","","","","",""
"image-selector-fb","281","3454959","0.0-41.38-0.38","1236","pics2/SA3.jpg,pics2/FR1.jpg","","","","","","","false","0","","","heartS.png","","",""
"image-slider-2AFC","282","3457637","0.0-41.38-1.38","2677","","","","56","","","","","","","","sizeS.png","2095","56",""
"html-keyboard-response","283","3458490","0.0-41.38-2.38","null","","","","","","","null","","","","","","","",""
"image-selector-fb","284","3461457","0.0-41.39-0.39","2464","pics2/FR6.jpg,pics2/FR4.jpg","","","","","","","true","1","","","heartS.png","","",""
"image-slider-2AFC","285","3463329","0.0-41.39-1.39","1870","","","","49","","","","","","","","heartS.png","909","49",""
"html-keyboard-response","286","3464132","0.0-41.39-2.39","null","","","","","","","null","","","","","","","",""
"image-selector-fb","287","3466262","0.0-41.40-0.40","1626","pics2/FR1.jpg,pics2/SA1.jpg","","","","","","","true","1","","","heartS.png","","",""
"image-slider-2AFC","288","3469699","0.0-41.40-1.40","3437","","","","60","","","","","","","","sizeS.png","2959","60",""
"html-keyboard-response","289","3470551","0.0-41.40-2.40","null","","","","","","","null","","","","","","","",""
"image-selector-fb","290","3473556","0.0-41.41-0.41","null","pics2/SA3.jpg,pics2/FR6.jpg","","","","","","","false","null","","","noS.png","","",""
"image-slider-2AFC","291","3477610","0.0-41.41-1.41","4053","","","","-69","","","","","","","","sizeS.png","3021","-69",""
"html-keyboard-response","292","3478313","0.0-41.41-2.41","null","","","","","","","null","","","","","","","",""
"image-selector-fb","293","3480147","0.0-41.42-0.42","1332","pics2/FR6.jpg,pics2/SA4.jpg","","","","","","","true","1","","","heartS.png","","",""
"image-slider-2AFC","294","3483060","0.0-41.42-1.42","2912","","","","-58","","","","","","","","sizeS.png","2068","-58",""
"html-keyboard-response","295","3483913","0.0-41.42-2.42","null","","","","","","","null","","","","","","","",""
"image-selector-fb","296","3486146","0.0-41.43-0.43","1729","pics2/SA4.jpg,pics2/FR6.jpg","","","","","","","true","1","","","sizeS.png","","",""
"image-slider-2AFC","297","3491148","0.0-41.43-1.43","null","","","","null","","","","","","","","heartS.png","","",""
"html-keyboard-response","298","3492001","0.0-41.43-2.43","null","","","","","","","null","","","","","","","",""
"image-selector-fb","299","3493710","0.0-41.44-0.44","1204","pics2/SA3.jpg,pics2/SW5.jpg","","","","","","","false","0","","","heartS.png","","",""
"image-slider-2AFC","300","3497786","0.0-41.44-1.44","4075","","","","54","","","","","","","","sizeS.png","3105","54",""
"html-keyboard-response","301","3498639","0.0-41.44-2.44","null","","","","","","","null","","","","","","","",""
"image-selector-fb","302","3501369","0.0-41.45-0.45","2227","pics2/SA1.jpg,pics2/SW3.jpg","","","","","","","true","1","","","heartS.png","","",""
"image-slider-2AFC","303","3506371","0.0-41.45-1.45","null","","","","null","","","","","","","","sizeS.png","4141","-67",""
"html-keyboard-response","304","3507224","0.0-41.45-2.45","null","","","","","","","null","","","","","","","",""
"image-selector-fb","305","3509249","0.0-41.46-0.46","1521","pics2/SA4.jpg,pics2/SW4.jpg","","","","","","","true","1","","","sizeS.png","","",""
"image-slider-2AFC","306","3510668","0.0-41.46-1.46","1417","","","","58","","","","","","","","sizeS.png","795","58",""
"html-keyboard-response","307","3511370","0.0-41.46-2.46","null","","","","","","","null","","","","","","","",""
"image-selector-fb","308","3514374","0.0-41.47-0.47","null","pics2/SA3.jpg,pics2/SW5.jpg","","","","","","","false","null","","","noS.png","","",""
"image-slider-2AFC","309","3517062","0.0-41.47-1.47","2686","","","","-67","","","","","","","","heartS.png","1914","-67",""
"html-keyboard-response","310","3517765","0.0-41.47-2.47","null","","","","","","","null","","","","","","","",""
"image-selector-fb","311","3519564","0.0-41.48-0.48","1294","pics2/SA2.jpg,pics2/SW1.jpg","","","","","","","true","1","","","sizeS.png","","",""
"image-slider-2AFC","312","3521149","0.0-41.48-1.48","1584","","","","59","","","","","","","","sizeS.png","932","59",""
"html-keyboard-response","313","3521900","0.0-41.48-2.48","null","","","","","","","null","","","","","","","",""
"image-selector-fb","314","3523253","0.0-41.49-0.49","850","pics2/FR4.jpg,pics2/SA3.jpg","","","","","","","true","1","","","sizeS.png","","",""
"image-slider-2AFC","315","3525851","0.0-41.49-1.49","2597","","","","47","","","","","","","","heartS.png","1768","47",""
"html-keyboard-response","316","3526554","0.0-41.49-2.49","null","","","","","","","null","","","","","","","",""
"image-selector-fb","317","3528812","0.0-41.50-0.50","1755","pics2/SW4.jpg,pics2/FR4.jpg","","","","","","","false","0","","","heartS.png","","",""
"image-slider-2AFC","318","3531415","0.0-41.50-1.50","2601","","","","-70","","","","","","","","heartS.png","1811","-70",""
"html-keyboard-response","319","3532218","0.0-41.50-2.50","null","","","","","","","null","","","","","","","",""
"image-selector-fb","320","3534135","0.0-41.51-0.51","1413","pics2/SA2.jpg,pics2/FR4.jpg","","","","","","","true","1","","","sizeS.png","","",""
"image-slider-2AFC","321","3536189","0.0-41.51-1.51","2053","","","","55","","","","","","","","sizeS.png","1123","55",""
"html-keyboard-response","322","3536992","0.0-41.51-2.51","null","","","","","","","null","","","","","","","",""
"image-selector-fb","323","3541496","0.0-41.52-0.52","null","pics2/FR1.jpg,pics2/SA2.jpg","","","","","","","false","null","","","heartS.png","","",""
"image-slider-2AFC","324","3541497","0.0-41.52-1.52","null","","","","null","","","","","","","","sizeS.png","","",""
"html-keyboard-response","325","3542300","0.0-41.52-2.52","null","","","","","","","null","","","","","","","",""
"image-selector-fb","326","3545307","0.0-41.53-0.53","null","pics2/SA1.jpg,pics2/SW4.jpg","","","","","","","false","null","","","noS.png","","",""
"image-slider-2AFC","327","3548925","0.0-41.53-1.53","3616","","","","-63","","","","","","","","sizeS.png","2872","-63",""
"html-keyboard-response","328","3549628","0.0-41.53-2.53","null","","","","","","","null","","","","","","","",""
"image-selector-fb","329","3552636","0.0-41.54-0.54","null","pics2/FR1.jpg,pics2/SW1.jpg","","","","","","","false","null","","","noS.png","","",""
"image-slider-2AFC","330","3556795","0.0-41.54-1.54","4157","","","","56","","","","","","","","sizeS.png","3339","56",""
"html-keyboard-response","331","3557598","0.0-41.54-2.54","null","","","","","","","null","","","","","","","",""
"image-selector-fb","332","3559811","0.0-41.55-0.55","1711","pics2/SA3.jpg,pics2/FR4.jpg","","","","","","","false","0","","","heartS.png","","",""
"image-slider-2AFC","333","3561878","0.0-41.55-1.55","2066","","","","-59","","","","","","","","heartS.png","1418","-59",""
"html-keyboard-response","334","3562631","0.0-41.55-2.55","null","","","","","","","null","","","","","","","",""
"image-selector-fb","335","3565638","0.0-41.56-0.56","null","pics2/SA4.jpg,pics2/SW1.jpg","","","","","","","false","null","","","noS.png","","",""
"image-slider-2AFC","336","3568206","0.0-41.56-1.56","2567","","","","60","","","","","","","","sizeS.png","1813","60",""
"html-keyboard-response","337","3568909","0.0-41.56-2.56","null","","","","","","","null","","","","","","","",""
"image-selector-fb","338","3572643","0.0-41.57-0.57","3232","pics2/SA3.jpg,pics2/SA1.jpg","","","","","","","false","0","","","heartS.png","","",""
"image-slider-2AFC","339","3575586","0.0-41.57-1.57","2942","","","","58","","","","","","","","sizeS.png","2176","58",""
"html-keyboard-response","340","3576289","0.0-41.57-2.57","null","","","","","","","null","","","","","","","",""
"image-selector-fb","341","3578880","0.0-41.58-0.58","2087","pics2/FR1.jpg,pics2/FR4.jpg","","","","","","","true","1","","","heartS.png","","",""
"image-slider-2AFC","342","3581896","0.0-41.58-1.58","3014","","","","49","","","","","","","","heartS.png","1951","49",""
"html-keyboard-response","343","3582749","0.0-41.58-2.58","null","","","","","","","null","","","","","","","",""
"image-selector-fb","344","3585754","0.0-41.59-0.59","null","pics2/SA1.jpg,pics2/FR4.jpg","","","","","","","false","null","","","noS.png","","",""
"image-slider-2AFC","345","3588348","0.0-41.59-1.59","2592","","","","53","","","","","","","","heartS.png","1762","53",""
"html-keyboard-response","346","3589151","0.0-41.59-2.59","null","","","","","","","null","","","","","","","",""
"image-selector-fb","347","3592157","0.0-41.60-0.60","null","pics2/SW4.jpg,pics2/FR1.jpg","","","","","","","false","null","","","noS.png","","",""
"image-slider-2AFC","348","3594918","0.0-41.60-1.60","2759","","","","58","","","","","","","","sizeS.png","2117","58",""
"html-keyboard-response","349","3595770","0.0-41.60-2.60","null","","","","","","","null","","","","","","","",""
"image-selector-fb","350","3598778","0.0-41.61-0.61","null","pics2/SW3.jpg,pics2/FR4.jpg","","","","","","","false","null","","","noS.png","","",""
"image-slider-2AFC","351","3602080","0.0-41.61-1.61","3300","","","","-64","","","","","","","","sizeS.png","2548","-64",""
"html-keyboard-response","352","3602881","0.0-41.61-2.61","null","","","","","","","null","","","","","","","",""
"image-selector-fb","353","3606817","0.0-41.62-0.62","3432","pics2/SW4.jpg,pics2/FR6.jpg","","","","","","","false","0","","","heartS.png","","",""
"image-slider-2AFC","354","3609527","0.0-41.62-1.62","2710","","","","-71","","","","","","","","heartS.png","1973","-71",""
"html-keyboard-response","355","3610330","0.0-41.62-2.62","null","","","","","","","null","","","","","","","",""
"image-selector-fb","356","3613727","0.0-41.63-0.63","2894","pics2/FR4.jpg,pics2/SW1.jpg","","","","","","","true","1","","","sizeS.png","","",""
"image-slider-2AFC","357","3615441","0.0-41.63-1.63","1711","","","","55","","","","","","","","heartS.png","1049","55",""
"html-keyboard-response","358","3616244","0.0-41.63-2.63","null","","","","","","","null","","","","","","","",""
"image-selector-fb","359","3618077","0.0-41.64-0.64","1330","pics2/SW1.jpg,pics2/SA2.jpg","","","","","","","false","0","","","heartS.png","","",""
"image-slider-2AFC","360","3619759","0.0-41.64-1.64","1681","","","","-62","","","","","","","","heartS.png","943","-62",""
"html-keyboard-response","361","3620462","0.0-41.64-2.64","null","","","","","","","null","","","","","","","",""
"image-selector-fb","362","3623467","0.0-41.65-0.65","null","pics2/FR6.jpg,pics2/SW4.jpg","","","","","","","false","null","","","noS.png","","",""
"image-slider-2AFC","363","3627077","0.0-41.65-1.65","3609","","","","62","","","","","","","","heartS.png","2879","62",""
"html-keyboard-response","364","3627930","0.0-41.65-2.65","null","","","","","","","null","","","","","","","",""
"pavlovia","365","3627939","0.0-42.0","","","","","","","","","","","","","","","",""
"html-keyboard-response","366","3632940","0.0-43.0","null","<div style='width: 700px;'> <font size=6><b>SHORT BREAK</font></b><br><br><i> Please wait 5 seconds to continue</i></div> ","","","","","","null","","","","","","","",""
"pavlovia","367","3632942","0.0-44.0","","","","","","","","","","","","","","","",""
"html-button-response","368","4155296","0.0-45.0","522354","<div style='width: 700px;'> <font size=6><b>BLOCK 2</font></b><br><br>Press the button whenever you feel ready to start the second block (there are 3 in total)</div>","0","","","","","","","","","","","","",""
"image-selector-fb","369","4158302","0.0-46.0-0.0","null","pics2/SA4.jpg,pics2/FR1.jpg","","","","","","","false","null","","","noS.png","","",""
"image-slider-2AFC","370","4161564","0.0-46.0-1.0","3260","","","","-57","","","","","","","","heartS.png","2482","-57",""
"html-keyboard-response","371","4162267","0.0-46.0-2.0","null","","","","","","","null","","","","","","","",""
"image-selector-fb","372","4165272","0.0-46.1-0.1","null","pics2/SA4.jpg,pics2/FR2.jpg","","","","","","","false","null","","","noS.png","","",""
"image-slider-2AFC","373","4167359","0.0-46.1-1.1","2086","","","","-61","","","","","","","","heartS.png","1348","-61",""
"html-keyboard-response","374","4168212","0.0-46.1-2.1","null","","","","","","","null","","","","","","","",""
"image-selector-fb","375","4171216","0.0-46.2-0.2","null","pics2/SW3.jpg,pics2/FR2.jpg","","","","","","","false","null","","","noS.png","","",""
"image-slider-2AFC","376","4173468","0.0-46.2-1.2","2250","","","","-66","","","","","","","","heartS.png","1527","-66",""
"html-keyboard-response","377","4174171","0.0-46.2-2.2","null","","","","","","","null","","","","","","","",""
"image-selector-fb","378","4177094","0.0-46.3-0.3","2418","pics2/SW3.jpg,pics2/SW4.jpg","","","","","","","false","0","","","sizeS.png","","",""
"image-slider-2AFC","379","4178878","0.0-46.3-1.3","1782","","","","-60","","","","","","","","heartS.png","1018","-60",""
"html-keyboard-response","380","4179631","0.0-46.3-2.3","null","","","","","","","null","","","","","","","",""
"image-selector-fb","381","4182634","0.0-46.4-0.4","null","pics2/FR6.jpg,pics2/SA4.jpg","","","","","","","false","null","","","noS.png","","",""
"image-slider-2AFC","382","4185290","0.0-46.4-1.4","2655","","","","-55","","","","","","","","sizeS.png","1902","-55",""
"html-keyboard-response","383","4186143","0.0-46.4-2.4","null","","","","","","","null","","","","","","","",""
"image-selector-fb","384","4189148","0.0-46.5-0.5","null","pics2/SW3.jpg,pics2/SA2.jpg","","","","","","","false","null","","","noS.png","","",""
"image-slider-2AFC","385","4191601","0.0-46.5-1.5","2452","","","","-62","","","","","","","","heartS.png","1748","-62",""
"html-keyboard-response","386","4192304","0.0-46.5-2.5","null","","","","","","","null","","","","","","","",""
"image-selector-fb","387","4194250","0.0-46.6-0.6","1444","pics2/SA3.jpg,pics2/SA2.jpg","","","","","","","false","0","","","heartS.png","","",""
"image-slider-2AFC","388","4196498","0.0-46.6-1.6","2247","","","","-53","","","","","","","","sizeS.png","1593","-53",""
"html-keyboard-response","389","4197251","0.0-46.6-2.6","null","","","","","","","null","","","","","","","",""
"image-selector-fb","390","4199195","0.0-46.7-0.7","1441","pics2/SW5.jpg,pics2/SW1.jpg","","","","","","","true","1","","","sizeS.png","","",""
"image-slider-2AFC","391","4200709","0.0-46.7-1.7","1513","","","","55","","","","","","","","sizeS.png","897","55",""
"html-keyboard-response","392","4201511","0.0-46.7-2.7","null","","","","","","","null","","","","","","","",""
"image-selector-fb","393","4204517","0.0-46.8-0.8","null","pics2/FR6.jpg,pics2/SA2.jpg","","","","","","","false","null","","","noS.png","","",""
"image-slider-2AFC","394","4207465","0.0-46.8-1.8","2947","","","","-46","","","","","","","","heartS.png","2245","-46",""
"html-keyboard-response","395","4208318","0.0-46.8-2.8","null","","","","","","","null","","","","","","","",""
"image-selector-fb","396","4211323","0.0-46.9-0.9","null","pics2/FR1.jpg,pics2/SW5.jpg","","","","","","","false","null","","","noS.png","","",""
"image-slider-2AFC","397","4214271","0.0-46.9-1.9","2946","","","","-65","","","","","","","","sizeS.png","2180","-65",""
"html-keyboard-response","398","4215124","0.0-46.9-2.9","null","","","","","","","null","","","","","","","",""
"image-selector-fb","399","4217248","0.0-46.10-0.10","1621","pics2/FR2.jpg,pics2/SW4.jpg","","","","","","","false","0","","","sizeS.png","","",""
"image-slider-2AFC","400","4220163","0.0-46.10-1.10","2913","","","","44","","","","","","","","heartS.png","2157","44",""
"html-keyboard-response","401","4221016","0.0-46.10-2.10","null","","","","","","","null","","","","","","","",""
"image-selector-fb","402","4225108","0.0-46.11-0.11","3588","pics2/SA1.jpg,pics2/FR1.jpg","","","","","","","false","0","","","sizeS.png","","",""
"image-slider-2AFC","403","4228974","0.0-46.11-1.11","3865","","","","-65","","","","","","","","heartS.png","3309","-65",""
"html-keyboard-response","404","4229677","0.0-46.11-2.11","null","","","","","","","null","","","","","","","",""
"image-selector-fb","405","4231913","0.0-46.12-0.12","1730","pics2/FR6.jpg,pics2/SW5.jpg","","","","","","","true","1","","","sizeS.png","","",""
"image-slider-2AFC","406","4233728","0.0-46.12-1.12","1814","","","","47","","","","","","","","sizeS.png","1156","47",""
"html-keyboard-response","407","4234581","0.0-46.12-2.12","null","","","","","","","null","","","","","","","",""
"image-selector-fb","408","4237586","0.0-46.13-0.13","null","pics2/SA1.jpg,pics2/SW3.jpg","","","","","","","false","null","","","noS.png","","",""
"image-slider-2AFC","409","4239754","0.0-46.13-1.13","2167","","","","47","","","","","","","","heartS.png","1490","47",""
"html-keyboard-response","410","4240457","0.0-46.13-2.13","null","","","","","","","null","","","","","","","",""
"image-selector-fb","411","4242562","0.0-46.14-0.14","1601","pics2/FR6.jpg,pics2/FR2.jpg","","","","","","","true","1","","","heartS.png","","",""
"image-slider-2AFC","412","4244960","0.0-46.14-1.14","2396","","","","58","","","","","","","","heartS.png","1387","58",""
"html-keyboard-response","413","4245762","0.0-46.14-2.14","null","","","","","","","null","","","","","","","",""
"image-selector-fb","414","4248769","0.0-46.15-0.15","null","pics2/FR4.jpg,pics2/SW5.jpg","","","","","","","false","null","","","noS.png","","",""
"image-slider-2AFC","415","4252052","0.0-46.15-1.15","3282","","","","59","","","","","","","","heartS.png","2648","59",""
"html-keyboard-response","416","4252855","0.0-46.15-2.15","null","","","","","","","null","","","","","","","",""
"image-selector-fb","417","4255860","0.0-46.16-0.16","null","pics2/SW3.jpg,pics2/SW4.jpg","","","","","","","false","null","","","noS.png","","",""
"image-slider-2AFC","418","4258504","0.0-46.16-1.16","2643","","","","-65","","","","","","","","heartS.png","1799","-65",""
"html-keyboard-response","419","4259257","0.0-46.16-2.16","null","","","","","","","null","","","","","","","",""
"image-selector-fb","420","4262262","0.0-46.17-0.17","null","pics2/FR1.jpg,pics2/SA2.jpg","","","","","","","false","null","","","noS.png","","",""
"image-slider-2AFC","421","4265745","0.0-46.17-1.17","3483","","","","-62","","","","","","","","heartS.png","2013,2751","52,-62",""
"html-keyboard-response","422","4266598","0.0-46.17-2.17","null","","","","","","","null","","","","","","","",""
"image-selector-fb","423","4268505","0.0-46.18-0.18","1404","pics2/FR4.jpg,pics2/FR6.jpg","","","","","","","false","0","","","sizeS.png","","",""
"image-slider-2AFC","424","4270615","0.0-46.18-1.18","2109","","","","-63","","","","","","","","heartS.png","1307","-63",""
"html-keyboard-response","425","4271368","0.0-46.18-2.18","null","","","","","","","null","","","","","","","",""
"image-selector-fb","426","4274373","0.0-46.19-0.19","null","pics2/SW3.jpg,pics2/FR1.jpg","","","","","","","false","null","","","noS.png","","",""
"image-slider-2AFC","427","4277093","0.0-46.19-1.19","2719","","","","-67","","","","","","","","heartS.png","2036","-67",""
"html-keyboard-response","428","4277896","0.0-46.19-2.19","null","","","","","","","null","","","","","","","",""
"image-selector-fb","429","4280049","0.0-46.20-0.20","1650","pics2/SA3.jpg,pics2/SW1.jpg","","","","","","","false","0","","","heartS.png","","",""
"image-slider-2AFC","430","4282011","0.0-46.20-1.20","1961","","","","-76","","","","","","","","heartS.png","1174","-76",""
"html-keyboard-response","431","4282813","0.0-46.20-2.20","null","","","","","","","null","","","","","","","",""
"image-selector-fb","432","4285821","0.0-46.21-0.21","null","pics2/SA4.jpg,pics2/SW5.jpg","","","","","","","false","null","","","noS.png","","",""
"image-slider-2AFC","433","4288491","0.0-46.21-1.21","2668","","","","58","","","","","","","","sizeS.png","2080","58",""
"html-keyboard-response","434","4289293","0.0-46.21-2.21","null","","","","","","","null","","","","","","","",""
"image-selector-fb","435","4291124","0.0-46.22-0.22","1327","pics2/SA4.jpg,pics2/SA3.jpg","","","","","","","true","1","","","sizeS.png","","",""
"image-slider-2AFC","436","4292741","0.0-46.22-1.22","1615","","","","51","","","","","","","","heartS.png","909","51",""
"html-keyboard-response","437","4293594","0.0-46.22-2.22","null","","","","","","","null","","","","","","","",""
"image-selector-fb","438","4295321","0.0-46.23-0.23","1221","pics2/FR2.jpg,pics2/FR4.jpg","","","","","","","true","1","","","heartS.png","","",""
"image-slider-2AFC","439","4298235","0.0-46.23-1.23","2912","","","","53","","","","","","","","sizeS.png","972","53",""
"html-keyboard-response","440","4298988","0.0-46.23-2.23","null","","","","","","","null","","","","","","","",""
"image-selector-fb","441","4300484","0.0-46.24-0.24","993","pics2/SA3.jpg,pics2/SW4.jpg","","","","","","","false","0","","","heartS.png","","",""
"image-slider-2AFC","442","4303390","0.0-46.24-1.24","2904","","","","-55","","","","","","","","sizeS.png","2187","-55",""
"html-keyboard-response","443","4304193","0.0-46.24-2.24","null","","","","","","","null","","","","","","","",""
"image-selector-fb","444","4306248","0.0-46.25-0.25","1551","pics2/FR6.jpg,pics2/FR1.jpg","","","","","","","true","1","","","heartS.png","","",""
"image-slider-2AFC","445","4308194","0.0-46.25-1.25","1945","","","","58","","","","","","","","sizeS.png","1319","58",""
"html-keyboard-response","446","4308947","0.0-46.25-2.25","null","","","","","","","null","","","","","","","",""
"image-selector-fb","447","4311042","0.0-46.26-0.26","1591","pics2/FR4.jpg,pics2/SA1.jpg","","","","","","","true","1","","","sizeS.png","","",""
"image-slider-2AFC","448","4313112","0.0-46.26-1.26","2069","","","","51","","","","","","","","sizeS.png","1448","51",""
"html-keyboard-response","449","4313866","0.0-46.26-2.26","null","","","","","","","null","","","","","","","",""
"image-selector-fb","450","4315848","0.0-46.27-0.27","1479","pics2/SA3.jpg,pics2/FR2.jpg","","","","","","","false","0","","","heartS.png","","",""
"image-slider-2AFC","451","4317456","0.0-46.27-1.27","1607","","","","-64","","","","","","","","heartS.png","951","-64",""
"html-keyboard-response","452","4318159","0.0-46.27-2.27","null","","","","","","","null","","","","","","","",""
"image-selector-fb","453","4319951","0.0-46.28-0.28","1289","pics2/FR6.jpg,pics2/SW3.jpg","","","","","","","true","1","","","heartS.png","","",""
"image-slider-2AFC","454","4321394","0.0-46.28-1.28","1442","","","","53","","","","","","","","heartS.png","724","53",""
"html-keyboard-response","455","4322247","0.0-46.28-2.28","null","","","","","","","null","","","","","","","",""
"image-selector-fb","456","4325873","0.0-46.29-0.29","3124","pics2/SW1.jpg,pics2/SA3.jpg","","","","","","","false","0","","","sizeS.png","","",""
"image-slider-2AFC","457","4328198","0.0-46.29-1.29","2323","","","","-65","","","","","","","","sizeS.png","1520","-65",""
"html-keyboard-response","458","4328901","0.0-46.29-2.29","null","","","","","","","null","","","","","","","",""
"image-selector-fb","459","4331333","0.0-46.30-0.30","1928","pics2/SA1.jpg,pics2/FR6.jpg","","","","","","","false","0","","","sizeS.png","","",""
"image-slider-2AFC","460","4336336","0.0-46.30-1.30","null","","","","null","","","","","","","","sizeS.png","","",""
"html-keyboard-response","461","4337139","0.0-46.30-2.30","null","","","","","","","null","","","","","","","",""
"image-selector-fb","462","4340146","0.0-46.31-0.31","null","pics2/FR6.jpg,pics2/FR2.jpg","","","","","","","false","null","","","noS.png","","",""
"image-slider-2AFC","463","4342805","0.0-46.31-1.31","2657","","","","66","","","","","","","","heartS.png","1561","66",""
"html-keyboard-response","464","4343659","0.0-46.31-2.31","null","","","","","","","null","","","","","","","",""
"image-selector-fb","465","4346647","0.0-46.32-0.32","2485","pics2/SW1.jpg,pics2/SA1.jpg","","","","","","","false","0","","","heartS.png","","",""
"image-slider-2AFC","466","4348866","0.0-46.32-1.32","2218","","","","-60","","","","","","","","heartS.png","1350","-60",""
"html-keyboard-response","467","4349669","0.0-46.32-2.32","null","","","","","","","null","","","","","","","",""
"image-selector-fb","468","4352674","0.0-46.33-0.33","null","pics2/FR4.jpg,pics2/FR1.jpg","","","","","","","false","null","","","noS.png","","",""
"image-slider-2AFC","469","4355105","0.0-46.33-1.33","2431","","","","62","","","","","","","","sizeS.png","1705","62",""
"html-keyboard-response","470","4355958","0.0-46.33-2.33","null","","","","","","","null","","","","","","","",""
"image-selector-fb","471","4359614","0.0-46.34-0.34","3153","pics2/SA3.jpg,pics2/FR6.jpg","","","","","","","false","0","","","heartS.png","","",""
"image-slider-2AFC","472","4361591","0.0-46.34-1.34","1974","","","","-70","","","","","","","","heartS.png","1045","-70",""
"html-keyboard-response","473","4362345","0.0-46.34-2.34","null","","","","","","","null","","","","","","","",""
"image-selector-fb","474","4365350","0.0-46.35-0.35","null","pics2/FR4.jpg,pics2/SW1.jpg","","","","","","","false","null","","","noS.png","","",""
"image-slider-2AFC","475","4368629","0.0-46.35-1.35","3277","","","","58","","","","","","","","heartS.png","2690","58",""
"html-keyboard-response","476","4369432","0.0-46.35-2.35","null","","","","","","","null","","","","","","","",""
"image-selector-fb","477","4372437","0.0-46.36-0.36","null","pics2/FR4.jpg,pics2/SA4.jpg","","","","","","","false","null","","","noS.png","","",""
"image-slider-2AFC","478","4377439","0.0-46.36-1.36","null","","","","null","","","","","","","","heartS.png","4542","56",""
"html-keyboard-response","479","4378142","0.0-46.36-2.36","null","","","","","","","null","","","","","","","",""
"image-selector-fb","480","4379884","0.0-46.37-0.37","1238","pics2/SA2.jpg,pics2/SA1.jpg","","","","","","","true","1","","","sizeS.png","","",""
"image-slider-2AFC","481","4382768","0.0-46.37-1.37","2883","","","","53","","","","","","","","heartS.png","2203","53",""
"html-keyboard-response","482","4383571","0.0-46.37-2.37","null","","","","","","","null","","","","","","","",""
"image-selector-fb","483","4385870","0.0-46.38-0.38","1794","pics2/SW5.jpg,pics2/SA1.jpg","","","","","","","true","1","","","heartS.png","","",""
"image-slider-2AFC","484","4387940","0.0-46.38-1.38","2069","","","","51","","","","","","","","heartS.png","1431","51",""
"html-keyboard-response","485","4388742","0.0-46.38-2.38","null","","","","","","","null","","","","","","","",""
"image-selector-fb","486","4390538","0.0-46.39-0.39","1291","pics2/SW1.jpg,pics2/SW4.jpg","","","","","","","false","0","","","sizeS.png","","",""
"image-slider-2AFC","487","4394248","0.0-46.39-1.39","3709","","","","-57","","","","","","","","heartS.png","3083","-57",""
"html-keyboard-response","488","4395050","0.0-46.39-2.39","null","","","","","","","null","","","","","","","",""
"image-selector-fb","489","4396912","0.0-46.40-0.40","1359","pics2/SW5.jpg,pics2/FR2.jpg","","","","","","","false","0","","","heartS.png","","",""
"image-slider-2AFC","490","4399248","0.0-46.40-1.40","2335","","","","50","","","","","","","","sizeS.png","1550","50",""
"html-keyboard-response","491","4400101","0.0-46.40-2.40","null","","","","","","","null","","","","","","","",""
"image-selector-fb","492","4402723","0.0-46.41-0.41","2119","pics2/SA1.jpg,pics2/FR4.jpg","","","","","","","false","0","","","heartS.png","","",""
"image-slider-2AFC","493","4405940","0.0-46.41-1.41","3216","","","","49","","","","","","","","sizeS.png","1492","49",""
"html-keyboard-response","494","4406693","0.0-46.41-2.41","null","","","","","","","null","","","","","","","",""
"image-selector-fb","495","4408907","0.0-46.42-0.42","1709","pics2/SA1.jpg,pics2/SA3.jpg","","","","","","","false","0","","","sizeS.png","","",""
"image-slider-2AFC","496","4410578","0.0-46.42-1.42","1669","","","","-53","","","","","","","","sizeS.png","1012","-53",""
"html-keyboard-response","497","4411381","0.0-46.42-2.42","null","","","","","","","null","","","","","","","",""
"image-selector-fb","498","4414272","0.0-46.43-0.43","2387","pics2/SW4.jpg,pics2/SA1.jpg","","","","","","","false","0","","","heartS.png","","",""
"image-slider-2AFC","499","4416251","0.0-46.43-1.43","1978","","","","-51","","","","","","","","sizeS.png","1236","-51",""
"html-keyboard-response","500","4417105","0.0-46.43-2.43","null","","","","","","","null","","","","","","","",""
"image-selector-fb","501","4420109","0.0-46.44-0.44","null","pics2/SA1.jpg,pics2/FR1.jpg","","","","","","","false","null","","","noS.png","","",""
"image-slider-2AFC","502","4425115","0.0-46.44-1.44","null","","","","null","","","","","","","","sizeS.png","2084,4106","-59,50",""
"html-keyboard-response","503","4425868","0.0-46.44-2.44","null","","","","","","","null","","","","","","","",""
"image-selector-fb","504","4428380","0.0-46.45-0.45","2009","pics2/FR4.jpg,pics2/FR1.jpg","","","","","","","true","1","","","sizeS.png","","",""
"image-slider-2AFC","505","4431755","0.0-46.45-1.45","3373","","","","55","","","","","","","","sizeS.png","1805","55",""
"html-keyboard-response","506","4432507","0.0-46.45-2.45","null","","","","","","","null","","","","","","","",""
"image-selector-fb","507","4434340","0.0-46.46-0.46","1331","pics2/SA4.jpg,pics2/SA2.jpg","","","","","","","false","0","","","heartS.png","","",""
"image-slider-2AFC","508","4436995","0.0-46.46-1.46","2654","","","","-51","","","","","","","","sizeS.png","729","-51",""
"html-keyboard-response","509","4437698","0.0-46.46-2.46","null","","","","","","","null","","","","","","","",""
"image-selector-fb","510","4439365","0.0-46.47-0.47","1164","pics2/SW4.jpg,pics2/SW3.jpg","","","","","","","true","1","","","heartS.png","","",""
"image-slider-2AFC","511","4442145","0.0-46.47-1.47","2780","","","","60","","","","","","","","heartS.png","1985","60",""
"html-keyboard-response","512","4442948","0.0-46.47-2.47","null","","","","","","","null","","","","","","","",""
"image-selector-fb","513","4444559","0.0-46.48-0.48","1107","pics2/SW1.jpg,pics2/FR2.jpg","","","","","","","false","0","","","heartS.png","","",""
"image-slider-2AFC","514","4446589","0.0-46.48-1.48","2029","","","","-42","","","","","","","","sizeS.png","1213","-42",""
"html-keyboard-response","515","4447442","0.0-46.48-2.48","null","","","","","","","null","","","","","","","",""
"image-selector-fb","516","4449820","0.0-46.49-0.49","1876","pics2/FR1.jpg,pics2/FR6.jpg","","","","","","","false","0","","","sizeS.png","","",""
"image-slider-2AFC","517","4451999","0.0-46.49-1.49","2177","","","","-50","","","","","","","","heartS.png","1331","-50",""
"html-keyboard-response","518","4452752","0.0-46.49-2.49","null","","","","","","","null","","","","","","","",""
"image-selector-fb","519","4455357","0.0-46.50-0.50","2099","pics2/FR2.jpg,pics2/SA2.jpg","","","","","","","false","0","","","heartS.png","","",""
"image-slider-2AFC","520","4457062","0.0-46.50-1.50","1703","","","","-42","","","","","","","","heartS.png","1024","-42",""
"html-keyboard-response","521","4457915","0.0-46.50-2.50","null","","","","","","","null","","","","","","","",""
"image-selector-fb","522","4460677","0.0-46.51-0.51","2259","pics2/SW4.jpg,pics2/FR2.jpg","","","","","","","false","0","","","heartS.png","","",""
"image-slider-2AFC","523","4462446","0.0-46.51-1.51","1769","","","","-46","","","","","","","","heartS.png","1019","-46",""
"html-keyboard-response","524","4463199","0.0-46.51-2.51","null","","","","","","","null","","","","","","","",""
"image-selector-fb","525","4466206","0.0-46.52-0.52","null","pics2/SW1.jpg,pics2/SW5.jpg","","","","","","","false","null","","","noS.png","","",""
"image-slider-2AFC","526","4469546","0.0-46.52-1.52","3339","","","","-50","","","","","","","","heartS.png","2477","-50",""
"html-keyboard-response","527","4470399","0.0-46.52-2.52","null","","","","","","","null","","","","","","","",""
"image-selector-fb","528","4473404","0.0-46.53-0.53","null","pics2/SA3.jpg,pics2/SW1.jpg","","","","","","","false","null","","","noS.png","","",""
"image-slider-2AFC","529","4475634","0.0-46.53-1.53","2229","","","","-48","","","","","","","","heartS.png","1645","-48",""
"html-keyboard-response","530","4476487","0.0-46.53-2.53","null","","","","","","","null","","","","","","","",""
"image-selector-fb","531","4479492","0.0-46.54-0.54","null","pics2/SA2.jpg,pics2/SW5.jpg","","","","","","","false","null","","","noS.png","","",""
"image-slider-2AFC","532","4482504","0.0-46.54-1.54","3010","","","","59","","","","","","","","heartS.png","2049","59",""
"html-keyboard-response","533","4483307","0.0-46.54-2.54","null","","","","","","","null","","","","","","","",""
"image-selector-fb","534","4485256","0.0-46.55-0.55","1445","pics2/SW4.jpg,pics2/SW5.jpg","","","","","","","false","0","","","heartS.png","","",""
"image-slider-2AFC","535","4488758","0.0-46.55-1.55","3500","","","","49","","","","","","","","sizeS.png","2608","49",""
"html-keyboard-response","536","4489560","0.0-46.55-2.55","null","","","","","","","null","","","","","","","",""
"image-selector-fb","537","4491698","0.0-46.56-0.56","1634","pics2/SW3.jpg,pics2/SA2.jpg","","","","","","","false","0","","","heartS.png","","",""
"image-slider-2AFC","538","4494173","0.0-46.56-1.56","2474","","","","-51","","","","","","","","heartS.png","1481","-51",""
"html-keyboard-response","539","4494976","0.0-46.56-2.56","null","","","","","","","null","","","","","","","",""
"image-selector-fb","540","4496773","0.0-46.57-0.57","1292","pics2/SA4.jpg,pics2/FR2.jpg","","","","","","","true","1","","","sizeS.png","","",""
"image-slider-2AFC","541","4498998","0.0-46.57-1.57","2222","","","","-48","","","","","","","","heartS.png","1600","-48",""
"html-keyboard-response","542","4499850","0.0-46.57-2.57","null","","","","","","","null","","","","","","","",""
"image-selector-fb","543","4502856","0.0-46.58-0.58","null","pics2/SA4.jpg,pics2/SA2.jpg","","","","","","","false","null","","","noS.png","","",""
"image-slider-2AFC","544","4505518","0.0-46.58-1.58","2661","","","","-51","","","","","","","","heartS.png","1948","-51",""
"html-keyboard-response","545","4506321","0.0-46.58-2.58","null","","","","","","","null","","","","","","","",""
"image-selector-fb","546","4508571","0.0-46.59-0.59","1745","pics2/FR4.jpg,pics2/SA2.jpg","","","","","","","false","0","","","heartS.png","","",""
"image-slider-2AFC","547","4510987","0.0-46.59-1.59","2415","","","","-48","","","","","","","","sizeS.png","1808","-48",""
"html-keyboard-response","548","4511740","0.0-46.59-2.59","null","","","","","","","null","","","","","","","",""
"image-selector-fb","549","4514344","0.0-46.60-0.60","2102","pics2/SW5.jpg,pics2/SW4.jpg","","","","","","","false","0","","","sizeS.png","","",""
"image-slider-2AFC","550","4516787","0.0-46.60-1.60","2441","","","","-46","","","","","","","","heartS.png","892","-46",""
"html-keyboard-response","551","4517540","0.0-46.60-2.60","null","","","","","","","null","","","","","","","",""
"image-selector-fb","552","4520544","0.0-46.61-0.61","null","pics2/SA3.jpg,pics2/SW4.jpg","","","","","","","false","null","","","noS.png","","",""
"image-slider-2AFC","553","4523211","0.0-46.61-1.61","2666","","","","-43","","","","","","","","sizeS.png","2022","-43",""
"html-keyboard-response","554","4523913","0.0-46.61-2.61","null","","","","","","","null","","","","","","","",""
"image-selector-fb","555","4526918","0.0-46.62-0.62","null","pics2/SW4.jpg,pics2/SW1.jpg","","","","","","","false","null","","","noS.png","","",""
"image-slider-2AFC","556","4529953","0.0-46.62-1.62","3033","","","","55","","","","","","","","heartS.png","2081","55",""
"html-keyboard-response","557","4530656","0.0-46.62-2.62","null","","","","","","","null","","","","","","","",""
"image-selector-fb","558","4533664","0.0-46.63-0.63","null","pics2/SA3.jpg,pics2/FR4.jpg","","","","","","","false","null","","","noS.png","","",""
"image-slider-2AFC","559","4536939","0.0-46.63-1.63","3273","","","","-77","","","","","","","","heartS.png","2339","-77",""
"html-keyboard-response","560","4537642","0.0-46.63-2.63","null","","","","","","","null","","","","","","","",""
"image-selector-fb","561","4539933","0.0-46.64-0.64","1787","pics2/SA2.jpg,pics2/FR6.jpg","","","","","","","true","1","","","sizeS.png","","",""
"image-slider-2AFC","562","4541784","0.0-46.64-1.64","1850","","","","52","","","","","","","","sizeS.png","812","52",""
"html-keyboard-response","563","4542486","0.0-46.64-2.64","null","","","","","","","null","","","","","","","",""
"image-selector-fb","564","4545582","0.0-46.65-0.65","2592","pics2/FR1.jpg,pics2/SA3.jpg","","","","","","","false","0","","","sizeS.png","","",""
"image-slider-2AFC","565","4547448","0.0-46.65-1.65","1865","","","","57","","","","","","","","heartS.png","1301","57",""
"html-keyboard-response","566","4548301","0.0-46.65-2.65","null","","","","","","","null","","","","","","","",""
"pavlovia","567","4548314","0.0-47.0","","","","","","","","","","","","","","","",""
"html-keyboard-response","568","4553315","0.0-48.0","null","<div style='width: 700px;'> <font size=6><b>SHORT BREAK</font></b><br><br><i> Please wait 5 seconds to continue</i></div> ","","","","","","null","","","","","","","",""
"pavlovia","569","4553317","0.0-49.0","","","","","","","","","","","","","","","",""
"html-button-response","570","5922857","0.0-50.0","1369539","<div style='width: 700px;'> <font size=6><b>BLOCK 3</font></b><br><br>Press the button whenever you feel ready to start the third and final block</div>","0","","","","","","","","","","","","",""
"image-selector-fb","571","5925435","0.0-51.0-0.0","2075","pics2/SW4.jpg,pics2/SA3.jpg","","","","","","","true","1","","","sizeS.png","","",""
"image-slider-2AFC","572","5926941","0.0-51.0-1.0","1505","","","","41","","","","","","","","heartS.png","847","41",""
"html-keyboard-response","573","5927794","0.0-51.0-2.0","null","","","","","","","null","","","","","","","",""
"image-selector-fb","574","5929343","0.0-51.1-0.1","1045","pics2/SA4.jpg,pics2/SW3.jpg","","","","","","","true","1","","","heartS.png","","",""
"image-slider-2AFC","575","5930704","0.0-51.1-1.1","1360","","","","53","","","","","","","","heartS.png","743","53",""
"html-keyboard-response","576","5931407","0.0-51.1-2.1","null","","","","","","","null","","","","","","","",""
"image-selector-fb","577","5933274","0.0-51.2-0.2","1364","pics2/SW1.jpg,pics2/SW3.jpg","","","","","","","false","0","","","heartS.png","","",""
"image-slider-2AFC","578","5935183","0.0-51.2-1.2","1908","","","","-37","","","","","","","","sizeS.png","1158","-37",""
"html-keyboard-response","579","5935936","0.0-51.2-2.2","null","","","","","","","null","","","","","","","",""
"image-selector-fb","580","5937520","0.0-51.3-0.3","1082","pics2/SW1.jpg,pics2/SW5.jpg","","","","","","","false","0","","","heartS.png","","",""
"image-slider-2AFC","581","5938855","0.0-51.3-1.3","1334","","","","-59","","","","","","","","heartS.png","708","-59",""
"html-keyboard-response","582","5939607","0.0-51.3-2.3","null","","","","","","","null","","","","","","","",""
"image-selector-fb","583","5941349","0.0-51.4-0.4","1237","pics2/FR4.jpg,pics2/SA4.jpg","","","","","","","true","1","","","heartS.png","","",""
"image-slider-2AFC","584","5943117","0.0-51.4-1.4","1766","","","","-49","","","","","","","","sizeS.png","1190","-49",""
"html-keyboard-response","585","5943969","0.0-51.4-2.4","null","","","","","","","null","","","","","","","",""
"image-selector-fb","586","5945465","0.0-51.5-0.5","993","pics2/SA2.jpg,pics2/FR1.jpg","","","","","","","true","1","","","sizeS.png","","",""
"image-slider-2AFC","587","5948289","0.0-51.5-1.5","2821","","","","50","","","","","","","","heartS.png","1901","50",""
"html-keyboard-response","588","5949042","0.0-51.5-2.5","null","","","","","","","null","","","","","","","",""
"image-selector-fb","589","5950537","0.0-51.6-0.6","991","pics2/SA2.jpg,pics2/SW3.jpg","","","","","","","true","1","","","sizeS.png","","",""
"image-slider-2AFC","590","5951774","0.0-51.6-1.6","1236","","","","40","","","","","","","","sizeS.png","598","40",""
"html-keyboard-response","591","5952628","0.0-51.6-2.6","null","","","","","","","null","","","","","","","",""
"image-selector-fb","592","5954373","0.0-51.7-0.7","1243","pics2/FR6.jpg,pics2/SA3.jpg","","","","","","","true","1","","","sizeS.png","","",""
"image-slider-2AFC","593","5956204","0.0-51.7-1.7","1830","","","","51","","","","","","","","heartS.png","1094","51",""
"html-keyboard-response","594","5957057","0.0-51.7-2.7","null","","","","","","","null","","","","","","","",""
"image-selector-fb","595","5958580","0.0-51.8-0.8","1020","pics2/SA4.jpg,pics2/FR1.jpg","","","","","","","true","1","","","sizeS.png","","",""
"image-slider-2AFC","596","5960354","0.0-51.8-1.8","1773","","","","53","","","","","","","","sizeS.png","820","53",""
"html-keyboard-response","597","5961157","0.0-51.8-2.8","null","","","","","","","null","","","","","","","",""
"image-selector-fb","598","5963018","0.0-51.9-0.9","1359","pics2/SA1.jpg,pics2/SW5.jpg","","","","","","","false","0","","","sizeS.png","","",""
"image-slider-2AFC","599","5964640","0.0-51.9-1.9","1621","","","","51","","","","","","","","heartS.png","1059","51",""
"html-keyboard-response","600","5965443","0.0-51.9-2.9","null","","","","","","","null","","","","","","","",""
"image-selector-fb","601","5968448","0.0-51.10-0.10","null","pics2/SW4.jpg,pics2/SW5.jpg","","","","","","","false","null","","","noS.png","","",""
"image-slider-2AFC","602","5971118","0.0-51.10-1.10","2669","","","","-62","","","","","","","","heartS.png","1883","-62",""
"html-keyboard-response","603","5971871","0.0-51.10-2.10","null","","","","","","","null","","","","","","","",""
"image-selector-fb","604","5973949","0.0-51.11-0.11","1576","pics2/FR2.jpg,pics2/SA3.jpg","","","","","","","false","0","","","sizeS.png","","",""
"image-slider-2AFC","605","5977152","0.0-51.11-1.11","3202","","","","-74","","","","","","","","sizeS.png","2496","-74",""
"html-keyboard-response","606","5977955","0.0-51.11-2.11","null","","","","","","","null","","","","","","","",""
"image-selector-fb","607","5979445","0.0-51.12-0.12","987","pics2/FR1.jpg,pics2/SW1.jpg","","","","","","","true","1","","","sizeS.png","","",""
"image-slider-2AFC","608","5980780","0.0-51.12-1.12","1333","","","","47","","","","","","","","heartS.png","700","47",""
"html-keyboard-response","609","5981533","0.0-51.12-2.12","null","","","","","","","null","","","","","","","",""
"image-selector-fb","610","5984538","0.0-51.13-0.13","null","pics2/SA1.jpg,pics2/SA2.jpg","","","","","","","false","null","","","noS.png","","",""
"image-slider-2AFC","611","5988142","0.0-51.13-1.13","3602","","","","-40","","","","","","","","sizeS.png","3106","-40",""
"html-keyboard-response","612","5988895","0.0-51.13-2.13","null","","","","","","","null","","","","","","","",""
"image-selector-fb","613","5990753","0.0-51.14-0.14","1355","pics2/SW3.jpg,pics2/FR4.jpg","","","","","","","false","0","","","sizeS.png","","",""
"image-slider-2AFC","614","5992052","0.0-51.14-1.14","1297","","","","-50","","","","","","","","sizeS.png","599","-50",""
"html-keyboard-response","615","5992905","0.0-51.14-2.14","null","","","","","","","null","","","","","","","",""
"image-selector-fb","616","5994884","0.0-51.15-0.15","1477","pics2/FR1.jpg,pics2/SA4.jpg","","","","","","","true","1","","","heartS.png","","",""
"image-slider-2AFC","617","5997435","0.0-51.15-1.15","2550","","","","-65","","","","","","","","sizeS.png","1844","-65",""
"html-keyboard-response","618","5998289","0.0-51.15-2.15","null","","","","","","","null","","","","","","","",""
"image-selector-fb","619","6001292","0.0-51.16-0.16","null","pics2/FR4.jpg,pics2/FR2.jpg","","","","","","","false","null","","","noS.png","","",""
"image-slider-2AFC","620","6004427","0.0-51.16-1.16","3134","","","","-45","","","","","","","","sizeS.png","2430","-45",""
"html-keyboard-response","621","6005130","0.0-51.16-2.16","null","","","","","","","null","","","","","","","",""
"image-selector-fb","622","6008293","0.0-51.17-0.17","2660","pics2/SA3.jpg,pics2/SA4.jpg","","","","","","","false","0","","","heartS.png","","",""
"image-slider-2AFC","623","6010925","0.0-51.17-1.17","2631","","","","-64","","","","","","","","sizeS.png","1919","-64",""
"html-keyboard-response","624","6011778","0.0-51.17-2.17","null","","","","","","","null","","","","","","","",""
"image-selector-fb","625","6013596","0.0-51.18-0.18","1316","pics2/SW5.jpg,pics2/FR4.jpg","","","","","","","false","0","","","heartS.png","","",""
"image-slider-2AFC","626","6015573","0.0-51.18-1.18","1976","","","","43","","","","","","","","sizeS.png","1358","43",""
"html-keyboard-response","627","6016425","0.0-51.18-2.18","null","","","","","","","null","","","","","","","",""
"image-selector-fb","628","6018115","0.0-51.19-0.19","1186","pics2/SW5.jpg,pics2/SW3.jpg","","","","","","","true","1","","","heartS.png","","",""
"image-slider-2AFC","629","6019761","0.0-51.19-1.19","1644","","","","50","","","","","","","","sizeS.png","941","50",""
"html-keyboard-response","630","6020564","0.0-51.19-2.19","null","","","","","","","null","","","","","","","",""
"image-selector-fb","631","6021983","0.0-51.20-0.20","915","pics2/SA1.jpg,pics2/SW1.jpg","","","","","","","true","1","","","sizeS.png","","",""
"image-slider-2AFC","632","6023373","0.0-51.20-1.20","1388","","","","50","","","","","","","","sizeS.png","773","50",""
"html-keyboard-response","633","6024176","0.0-51.20-2.20","null","","","","","","","null","","","","","","","",""
"image-selector-fb","634","6026181","0.0-51.21-0.21","1502","pics2/SW5.jpg,pics2/SA3.jpg","","","","","","","false","0","","","sizeS.png","","",""
"image-slider-2AFC","635","6028116","0.0-51.21-1.21","1934","","","","-73","","","","","","","","sizeS.png","1076","-73",""
"html-keyboard-response","636","6028918","0.0-51.21-2.21","null","","","","","","","null","","","","","","","",""
"image-selector-fb","637","6031923","0.0-51.22-0.22","null","pics2/SA3.jpg,pics2/FR2.jpg","","","","","","","false","null","","","noS.png","","",""
"image-slider-2AFC","638","6035786","0.0-51.22-1.22","3862","","","","54","","","","","","","","sizeS.png","3292","54",""
"html-keyboard-response","639","6036538","0.0-51.22-2.22","null","","","","","","","null","","","","","","","",""
"image-selector-fb","640","6039543","0.0-51.23-0.23","null","pics2/FR6.jpg,pics2/SW5.jpg","","","","","","","false","null","","","noS.png","","",""
"image-slider-2AFC","641","6043282","0.0-51.23-1.23","3738","","","","52","","","","","","","","sizeS.png","3104","52",""
"html-keyboard-response","642","6044085","0.0-51.23-2.23","null","","","","","","","null","","","","","","","",""
"image-selector-fb","643","6047090","0.0-51.24-0.24","null","pics2/SA3.jpg,pics2/SA2.jpg","","","","","","","false","null","","","noS.png","","",""
"image-slider-2AFC","644","6050546","0.0-51.24-1.24","3455","","","","-55","","","","","","","","sizeS.png","2701","-55",""
"html-keyboard-response","645","6051249","0.0-51.24-2.24","null","","","","","","","null","","","","","","","",""
"image-selector-fb","646","6054254","0.0-51.25-0.25","null","pics2/SA1.jpg,pics2/SA4.jpg","","","","","","","false","null","","","noS.png","","",""
"image-slider-2AFC","647","6056848","0.0-51.25-1.25","2593","","","","63","","","","","","","","heartS.png","1935","63",""
"html-keyboard-response","648","6057550","0.0-51.25-2.25","null","","","","","","","null","","","","","","","",""
"image-selector-fb","649","6059398","0.0-51.26-0.26","1344","pics2/SA2.jpg,pics2/SW5.jpg","","","","","","","true","1","","","sizeS.png","","",""
"image-slider-2AFC","650","6061582","0.0-51.26-1.26","2183","","","","41","","","","","","","","heartS.png","1261","41",""
"html-keyboard-response","651","6062383","0.0-51.26-2.26","null","","","","","","","null","","","","","","","",""
"image-selector-fb","652","6064498","0.0-51.27-0.27","1611","pics2/FR2.jpg,pics2/SA1.jpg","","","","","","","true","1","","","heartS.png","","",""
"image-slider-2AFC","653","6066002","0.0-51.27-1.27","1502","","","","43","","","","","","","","heartS.png","876","43",""
"html-keyboard-response","654","6066805","0.0-51.27-2.27","null","","","","","","","null","","","","","","","",""
"image-selector-fb","655","6069810","0.0-51.28-0.28","null","pics2/FR1.jpg,pics2/FR2.jpg","","","","","","","false","null","","","noS.png","","",""
"image-slider-2AFC","656","6072429","0.0-51.28-1.28","2618","","","","-58","","","","","","","","heartS.png","2028","-58",""
"html-keyboard-response","657","6073233","0.0-51.28-2.28","null","","","","","","","null","","","","","","","",""
"image-selector-fb","658","6075085","0.0-51.29-0.29","1349","pics2/FR6.jpg,pics2/SW4.jpg","","","","","","","true","1","","","sizeS.png","","",""
"image-slider-2AFC","659","6076803","0.0-51.29-1.29","1717","","","","59","","","","","","","","sizeS.png","1149","59",""
"html-keyboard-response","660","6077556","0.0-51.29-2.29","null","","","","","","","null","","","","","","","",""
"image-selector-fb","661","6080560","0.0-51.30-0.30","null","pics2/SW4.jpg,pics2/SA2.jpg","","","","","","","false","null","","","noS.png","","",""
"image-slider-2AFC","662","6083757","0.0-51.30-1.30","3196","","","","-55","","","","","","","","sizeS.png","2490","-55",""
"html-keyboard-response","663","6084510","0.0-51.30-2.30","null","","","","","","","null","","","","","","","",""
"image-selector-fb","664","6087514","0.0-51.31-0.31","null","pics2/SW3.jpg,pics2/SW1.jpg","","","","","","","false","null","","","noS.png","","",""
"image-slider-2AFC","665","6090007","0.0-51.31-1.31","2492","","","","51","","","","","","","","sizeS.png","1938","51",""
"html-keyboard-response","666","6090760","0.0-51.31-2.31","null","","","","","","","null","","","","","","","",""
"image-selector-fb","667","6092329","0.0-51.32-0.32","1066","pics2/SA4.jpg,pics2/SA1.jpg","","","","","","","true","1","","","sizeS.png","","",""
"image-slider-2AFC","668","6094229","0.0-51.32-1.32","1899","","","","44","","","","","","","","sizeS.png","1101","44",""
"html-keyboard-response","669","6095032","0.0-51.32-2.32","null","","","","","","","null","","","","","","","",""
"image-selector-fb","670","6096742","0.0-51.33-0.33","1207","pics2/SA3.jpg,pics2/SW3.jpg","","","","","","","false","0","","","heartS.png","","",""
"image-slider-2AFC","671","6097933","0.0-51.33-1.33","1190","","","","-47","","","","","","","","heartS.png","653","-47",""
"html-keyboard-response","672","6098786","0.0-51.33-2.33","null","","","","","","","null","","","","","","","",""
"image-selector-fb","673","6101742","0.0-51.34-0.34","2453","pics2/SW3.jpg,pics2/SA1.jpg","","","","","","","true","1","","","sizeS.png","","",""
"image-slider-2AFC","674","6104515","0.0-51.34-1.34","2771","","","","-67","","","","","","","","heartS.png","1213,2045","53,-67",""
"html-keyboard-response","675","6105218","0.0-51.34-2.34","null","","","","","","","null","","","","","","","",""
"image-selector-fb","676","6108222","0.0-51.35-0.35","null","pics2/SA3.jpg,pics2/FR1.jpg","","","","","","","false","null","","","noS.png","","",""
"image-slider-2AFC","677","6110205","0.0-51.35-1.35","1981","","","","56","","","","","","","","sizeS.png","1419","56",""
"html-keyboard-response","678","6111008","0.0-51.35-2.35","null","","","","","","","null","","","","","","","",""
"image-selector-fb","679","6112543","0.0-51.36-0.36","1031","pics2/SW1.jpg,pics2/SA4.jpg","","","","","","","false","0","","","heartS.png","","",""
"image-slider-2AFC","680","6114546","0.0-51.36-1.36","2002","","","","-46","","","","","","","","heartS.png","1364","-46",""
"html-keyboard-response","681","6115349","0.0-51.36-2.36","null","","","","","","","null","","","","","","","",""
"image-selector-fb","682","6118354","0.0-51.37-0.37","null","pics2/FR6.jpg,pics2/FR1.jpg","","","","","","","false","null","","","noS.png","","",""
"image-slider-2AFC","683","6121110","0.0-51.37-1.37","2755","","","","58","","","","","","","","heartS.png","2169","58",""
"html-keyboard-response","684","6121863","0.0-51.37-2.37","null","","","","","","","null","","","","","","","",""
"image-selector-fb","685","6123644","0.0-51.38-0.38","1277","pics2/FR1.jpg,pics2/SW5.jpg","","","","","","","false","0","","","sizeS.png","","",""
"image-slider-2AFC","686","6124786","0.0-51.38-1.38","1141","","","","-50","","","","","","","","sizeS.png","629","-50",""
"html-keyboard-response","687","6125589","0.0-51.38-2.38","null","","","","","","","null","","","","","","","",""
"image-selector-fb","688","6127608","0.0-51.39-0.39","1515","pics2/SA4.jpg,pics2/SW5.jpg","","","","","","","true","1","","","sizeS.png","","",""
"image-slider-2AFC","689","6128918","0.0-51.39-1.39","1309","","","","41","","","","","","","","sizeS.png","789","41",""
"html-keyboard-response","690","6129771","0.0-51.39-2.39","null","","","","","","","null","","","","","","","",""
"image-selector-fb","691","6132775","0.0-51.40-0.40","null","pics2/SA1.jpg,pics2/SW5.jpg","","","","","","","false","null","","","noS.png","","",""
"image-slider-2AFC","692","6136670","0.0-51.40-1.40","3895","","","","44","","","","","","","","heartS.png","1409,3295","-51,44",""
"html-keyboard-response","693","6137523","0.0-51.40-2.40","null","","","","","","","null","","","","","","","",""
"image-selector-fb","694","6139445","0.0-51.41-0.41","1419","pics2/SW3.jpg,pics2/SA3.jpg","","","","","","","false","0","","","sizeS.png","","",""
"image-slider-2AFC","695","6140676","0.0-51.41-1.41","1229","","","","-47","","","","","","","","sizeS.png","652","-47",""
"html-keyboard-response","696","6141379","0.0-51.41-2.41","null","","","","","","","null","","","","","","","",""
"image-selector-fb","697","6144383","0.0-51.42-0.42","null","pics2/SA1.jpg,pics2/FR2.jpg","","","","","","","false","null","","","noS.png","","",""
"image-slider-2AFC","698","6146188","0.0-51.42-1.42","1803","","","","-48","","","","","","","","sizeS.png","1212","-48",""
"html-keyboard-response","699","6146890","0.0-51.42-2.42","null","","","","","","","null","","","","","","","",""
"image-selector-fb","700","6148362","0.0-51.43-0.43","968","pics2/SW4.jpg,pics2/SW1.jpg","","","","","","","true","1","","","heartS.png","","",""
"image-slider-2AFC","701","6149503","0.0-51.43-1.43","1140","","","","55","","","","","","","","heartS.png","578","55",""
"html-keyboard-response","702","6150206","0.0-51.43-2.43","null","","","","","","","null","","","","","","","",""
"image-selector-fb","703","6151797","0.0-51.44-0.44","1088","pics2/SW1.jpg,pics2/FR6.jpg","","","","","","","false","0","","","heartS.png","","",""
"image-slider-2AFC","704","6153355","0.0-51.44-1.44","1557","","","","-54","","","","","","","","sizeS.png","877","-54",""
"html-keyboard-response","705","6154059","0.0-51.44-2.44","null","","","","","","","null","","","","","","","",""
"image-selector-fb","706","6157067","0.0-51.45-0.45","null","pics2/SA1.jpg,pics2/SW1.jpg","","","","","","","false","null","","","noS.png","","",""
"image-slider-2AFC","707","6159475","0.0-51.45-1.45","2406","","","","54","","","","","","","","heartS.png","1472","54",""
"html-keyboard-response","708","6160278","0.0-51.45-2.45","null","","","","","","","null","","","","","","","",""
