"trial_type","trial_index","time_elapsed","internal_node_id","rt","stimulus","button_pressed","success","response","cat","value","key_press","correct","image_click","first_click_rt","first_click_val","symbol","all_click_rt","all_click_val","view_history"
"pavlovia","0","17","0.0-0.0","","","","","","","","","","","","","","","",""
"html-button-response","1","2368","0.0-1.0","2349","<div style='width: 700px; font-size: 150%'><font size='40'>  Welcome to our study!</font><br><br><br> <small> Our experiment is about <i>decision making</i>. You will choose and rate different food items, such as these: <br><br> <div><img src='food_combo2.png', height = '400px'></img></div>","0","","","","","","","","","","","","",""
"html-button-response","2","6611","0.0-2.0","4241","<div style='width: 700px; font-size: 150%'><br><br><br><small> <u><i>This is a multi-part study.</i></u><br><br> In the first part you will rate 24 food items twice.<br><br><div><img src=""rat1.png"" style=""width: 25%""></img></div><br>In the second part (longest) you will make repeated choices and judgements concerning the food items.<br><br><div><img src=""mainx.png"" style=""width: 50%""></img></div><br>In the third and final part, you will rate the items again and answer few short questionnaires.<br><br><div><img src=""rat2.png"" style=""width: 50%""></img></div><br><br>","0","","","","","","","","","","","","",""
"fullscreen","3","8772","0.0-3.0","","","","true","","","","","","","","","","","",""
"html-button-response","4","42147","0.0-4.0","33372","<div style='width: 900px; font-size: 150%;' <font size='20%'> In the first part of the task you will use the mouse to rate food items on <i>2 scales</i> </font></div><br><br><div style='width: 900px'><div style='float: left; width: 50%; margin-right:2.5em'><img src='heartS.png'></img><p class='small' style='text-align: justify'>When you see the heart cue you will rate food items in terms of how much like them/would like to eat them <i>right now</i>. You will rate them on a continuous scale from left (strong dislike) to right (strong liking). Before submitting your rating, try imagining how the item tastes and how much you desire it.<br><br></p></div><div ><img src='sizeS.png'></img><p class='small' style='text-align: justify'>When you see the size cue, you will rate the same food items in terms of their size. The scale goes from left (tiny) to right (very large). You should assess picture size <i><u>relative</i></u> to the white background. <b>Remember:</b> rate the size of the picture, <u>not</u> the size of the item in real life. </p></div><div style='width: 900px'><br><br><b><i>Notice:</b> by starting the rating you agree that your sumbission might be rejected at an early stage and the experiment might end, if your size ratings are not at least modestly related to objective sizes, or if you repeat the same value ratings too many times. If you don't agree, please exit by closing the browser window. </i><br><br><br>","0","","","","","","","","","","","","",""
"html-button-response","5","57729","0.0-5.0","15581","<div><img src='heartS.png'></img></div><br><div style='text-align: justify; width: 700px'>Using the mouse, rate the <b><i>likeness</b></i> of the food items (how much you like them/would like to eat them <i>right now</i>). Far right-end of the scale indicates an item you <i>like a lot</i>. Far left-end indicates an item you <i>dislike a lot</i>. Think about each answer.   <ul><li>Try <b><i>not</b></i> to give identical rating to different items.</li><li>Use the whole scale, and <b><i>not</b></i> just the extremes</ul></div><br>","0","","","","","","","","","","","","",""
"image-slider-response","6","64605","0.0-6.0-0.0-0.0","6874","pics2/FR6.jpg","","","17","FR","","","","","","","","","",""
"image-slider-response","7","70505","0.0-6.0-0.0-0.1","5683","pics2/FR4.jpg","","","89","FR","","","","","","","","","",""
"image-slider-response","8","74837","0.0-6.0-0.0-0.2","4120","pics2/SW6.jpg","","","34","SW","","","","","","","","","",""
"image-slider-response","9","77570","0.0-6.0-0.0-0.3","2520","pics2/FR3.jpg","","","64","FR","","","","","","","","","",""
"image-slider-response","10","82741","0.0-6.0-0.0-0.4","4963","pics2/SA6.jpg","","","18","SA","","","","","","","","","",""
"image-slider-response","11","88078","0.0-6.0-0.0-0.5","5118","pics2/FR5.jpg","","","30","FR","","","","","","","","","",""
"image-slider-response","12","92764","0.0-6.0-0.0-0.6","4475","pics2/SW1.jpg","","","66","SW","","","","","","","","","",""
"image-slider-response","13","95773","0.0-6.0-0.0-0.7","2798","pics2/VE1.jpg","","","46","VE","","","","","","","","","",""
"image-slider-response","14","100331","0.0-6.0-0.0-0.8","4349","pics2/SA5.jpg","","","88","SA","","","","","","","","","",""
"image-slider-response","15","104722","0.0-6.0-0.0-0.9","4169","pics2/SW5.jpg","","","59","SW","","","","","","","","","",""
"image-slider-response","16","108433","0.0-6.0-0.0-0.10","3490","pics2/SA1.jpg","","","30","SA","","","","","","","","","",""
"image-slider-response","17","113436","0.0-6.0-0.0-0.11","4797","pics2/SA4.jpg","","","73","SA","","","","","","","","","",""
"image-slider-response","18","117392","0.0-6.0-0.0-0.12","3749","pics2/FR2.jpg","","","64","FR","","","","","","","","","",""
"image-slider-response","19","123372","0.0-6.0-0.0-0.13","5760","pics2/SW3.jpg","","","77","SW","","","","","","","","","",""
"image-slider-response","20","127754","0.0-6.0-0.0-0.14","4175","pics2/SA3.jpg","","","55","SA","","","","","","","","","",""
"image-slider-response","21","131049","0.0-6.0-0.0-0.15","3090","pics2/SW2.jpg","","","38","SW","","","","","","","","","",""
"image-slider-response","22","135234","0.0-6.0-0.0-0.16","3973","pics2/VE3.jpg","","","16","VE","","","","","","","","","",""
"image-slider-response","23","138885","0.0-6.0-0.0-0.17","3437","pics2/SA2.jpg","","","39","SA","","","","","","","","","",""
"image-slider-response","24","144216","0.0-6.0-0.0-0.18","5111","pics2/VE5.jpg","","","58","VE","","","","","","","","","",""
"image-slider-response","25","147839","0.0-6.0-0.0-0.19","3401","pics2/VE6.jpg","","","49","VE","","","","","","","","","",""
"image-slider-response","26","151432","0.0-6.0-0.0-0.20","3389","pics2/VE2.jpg","","","37","VE","","","","","","","","","",""
"image-slider-response","27","156357","0.0-6.0-0.0-0.21","4721","pics2/FR1.jpg","","","72","FR","","","","","","","","","",""
"image-slider-response","28","160029","0.0-6.0-0.0-0.22","3464","pics2/VE4.jpg","","","23","VE","","","","","","","","","",""
"image-slider-response","29","163287","0.0-6.0-0.0-0.23","3042","pics2/SW4.jpg","","","45","SW","","","","","","","","","",""
"html-button-response","30","165261","0.0-7.0","1770","<div style='width: 900px;'> <font size = 6><b> End of the first rating</b><br><br>","0","","","","","","","","","","","","",""
"html-button-response","31","184204","0.0-9.0","18942","<div ><img src='sizeS.png'></img></div><br><div style='text-align: justify; width: 700px'> Using the mouse, rate the <b><i>size</b></i> of the food items <b><i> relative to the white background.</b></i> Right-end of the scale indicates a <i>very large item</i>, which covers a large portion of the white rectangle. Left-end indicates a <i>very tiny</i> item which covers a tiny portion of the white rectangle.<br><br><i><u>Remember</i></u>: everything that is not the white background also contributes to item size (e.g. packing, plates, ect.)<br><br> Please keep in mind that if the accuracy of ratings do not allign well with actual sizes, the experiment will end.  As a result it will be consider incomplete and therefore no payment would be made. Good luck!<br><br></div><br>","0","","","","","","","","","","","","",""
"html-button-response","32","189549","0.0-10.0","5343","<div ><img src='sizeS.png'></img></div><br><b><font size=6>Examples of items that you might encounter</b><br><div style='width: 750px;'><div style='width: 33.33%; float:left'><br><br><br><i>Large Item</i><br><br><img src='large.jpg', width=200px></img></div><div style='float:right'><br><br><br><i>Small Item</i><br><br><img src='small.jpg', width=200px></img></div><div ><br><br><br><i>Medium Item</i><br><br><img src='med.jpg', width=200px></img></div></div><br><br>","0","","","","","","","","","","","","",""
"image-slider-response","33","195748","0.0-11.0-0.0-0.0","6198","pics2/VE3.jpg","","","97","null","","","","","","","","","",""
"image-slider-response","34","198699","0.0-11.0-0.0-0.1","2737","pics2/SW6.jpg","","","48","null","","","","","","","","","",""
"image-slider-response","35","202430","0.0-11.0-0.0-0.2","3526","pics2/SW4.jpg","","","59","null","","","","","","","","","",""
"image-slider-response","36","207100","0.0-11.0-0.0-0.3","4458","pics2/SW2.jpg","","","75","null","","","","","","","","","",""
"image-slider-response","37","210001","0.0-11.0-0.0-0.4","2695","pics2/SW3.jpg","","","50","null","","","","","","","","","",""
"image-slider-response","38","213149","0.0-11.0-0.0-0.5","2935","pics2/FR4.jpg","","","36","null","","","","","","","","","",""
"image-slider-response","39","218095","0.0-11.0-0.0-0.6","4734","pics2/VE4.jpg","","","59","null","","","","","","","","","",""
"image-slider-response","40","221688","0.0-11.0-0.0-0.7","3376","pics2/SA1.jpg","","","91","null","","","","","","","","","",""
"image-slider-response","41","224896","0.0-11.0-0.0-0.8","2991","pics2/FR2.jpg","","","49","null","","","","","","","","","",""
"image-slider-response","42","229308","0.0-11.0-0.0-0.9","4193","pics2/FR3.jpg","","","54","null","","","","","","","","","",""
"image-slider-response","43","232565","0.0-11.0-0.0-0.10","3048","pics2/SA4.jpg","","","39","null","","","","","","","","","",""
"image-slider-response","44","235813","0.0-11.0-0.0-0.11","3040","pics2/SA3.jpg","","","59","null","","","","","","","","","",""
"image-slider-response","45","238952","0.0-11.0-0.0-0.12","2928","pics2/SA2.jpg","","","42","null","","","","","","","","","",""
"image-slider-response","46","243817","0.0-11.0-0.0-0.13","4650","pics2/VE2.jpg","","","89","null","","","","","","","","","",""
"image-slider-response","47","249443","0.0-11.0-0.0-0.14","5408","pics2/FR5.jpg","","","91","null","","","","","","","","","",""
"image-slider-response","48","253224","0.0-11.0-0.0-0.15","3567","pics2/FR1.jpg","","","72","null","","","","","","","","","",""
"image-slider-response","49","256027","0.0-11.0-0.0-0.16","2598","pics2/FR6.jpg","","","43","null","","","","","","","","","",""
"image-slider-response","50","260548","0.0-11.0-0.0-0.17","4315","pics2/SA6.jpg","","","60","null","","","","","","","","","",""
"image-slider-response","51","264734","0.0-11.0-0.0-0.18","3978","pics2/VE1.jpg","","","64","null","","","","","","","","","",""
"image-slider-response","52","268406","0.0-11.0-0.0-0.19","3466","pics2/SA5.jpg","","","25","null","","","","","","","","","",""
"image-slider-response","53","272068","0.0-11.0-0.0-0.20","3442","pics2/VE5.jpg","","","36","null","","","","","","","","","",""
"image-slider-response","54","275188","0.0-11.0-0.0-0.21","2901","pics2/SW5.jpg","","","57","null","","","","","","","","","",""
"image-slider-response","55","279562","0.0-11.0-0.0-0.22","4161","pics2/VE6.jpg","","","29","null","","","","","","","","","",""
"image-slider-response","56","284163","0.0-11.0-0.0-0.23","4385","pics2/SW1.jpg","","","90","null","","","","","","","","","",""
"html-button-response","57","286187","0.0-12.0","1806","<div style='width: 900px;'> <font size = 6><b> End of the second rating</b><br><br>","0","","","","","","","","","","","","",""
"html-button-response","58","291488","0.0-13.0","5300","<div style='width: 900px;'>Now please rate the items for the second time. <br><br>This is not a memory test - you don't need to be consistent with your previous ratings. Just as before, try to make accurate judgements.<br><br>","0","","","","","","","","","","","","",""
"html-button-response","59","293433","0.0-14.0","1944","<div><img src='heartS.png'></img></div><br><div style='text-align: justify; width: 700px'>Using the mouse, rate the <b><i>likeness</b></i> of the food items (how much you like them/would like to eat them <i>right now</i>). Far right-end of the scale indicates an item you <i>like a lot</i>. Far left-end indicates an item you <i>dislike a lot</i>. Think about each answer.   <ul><li>Try <b><i>not</b></i> to give identical rating to different items.</li><li>Use the whole scale, and <b><i>not</b></i> just the extremes</ul></div><br>","0","","","","","","","","","","","","",""
"image-slider-response","60","296424","0.0-15.0-0.0-0.0","2989","pics2/FR1.jpg","","","72","FR","","","","","","","","","",""
"image-slider-response","61","299900","0.0-15.0-0.0-0.1","3272","pics2/FR6.jpg","","","38","FR","","","","","","","","","",""
"image-slider-response","62","303217","0.0-15.0-0.0-0.2","3096","pics2/FR2.jpg","","","74","FR","","","","","","","","","",""
"image-slider-response","63","306189","0.0-15.0-0.0-0.3","2756","pics2/SW2.jpg","","","38","SW","","","","","","","","","",""
"image-slider-response","64","309121","0.0-15.0-0.0-0.4","2714","pics2/VE3.jpg","","","4","VE","","","","","","","","","",""
"image-slider-response","65","311678","0.0-15.0-0.0-0.5","2348","pics2/SA1.jpg","","","32","SA","","","","","","","","","",""
"image-slider-response","66","314787","0.0-15.0-0.0-0.6","2893","pics2/SW6.jpg","","","41","SW","","","","","","","","","",""
"image-slider-response","67","318005","0.0-15.0-0.0-0.7","3012","pics2/SW1.jpg","","","74","SW","","","","","","","","","",""
"image-slider-response","68","320799","0.0-15.0-0.0-0.8","2574","pics2/SW5.jpg","","","59","SW","","","","","","","","","",""
"image-slider-response","69","323266","0.0-15.0-0.0-0.9","2261","pics2/SW3.jpg","","","56","SW","","","","","","","","","",""
"image-slider-response","70","326325","0.0-15.0-0.0-0.10","2843","pics2/VE1.jpg","","","47","VE","","","","","","","","","",""
"image-slider-response","71","330194","0.0-15.0-0.0-0.11","3655","pics2/SA4.jpg","","","85","SA","","","","","","","","","",""
"image-slider-response","72","333085","0.0-15.0-0.0-0.12","2678","pics2/VE4.jpg","","","25","VE","","","","","","","","","",""
"image-slider-response","73","335917","0.0-15.0-0.0-0.13","2627","pics2/VE5.jpg","","","69","VE","","","","","","","","","",""
"image-slider-response","74","339341","0.0-15.0-0.0-0.14","3212","pics2/SA3.jpg","","","61","SA","","","","","","","","","",""
"image-slider-response","75","342667","0.0-15.0-0.0-0.15","3115","pics2/VE2.jpg","","","28","VE","","","","","","","","","",""
"image-slider-response","76","346062","0.0-15.0-0.0-0.16","3178","pics2/VE6.jpg","","","46","VE","","","","","","","","","",""
"image-slider-response","77","350148","0.0-15.0-0.0-0.17","3865","pics2/SA5.jpg","","","99","SA","","","","","","","","","",""
"image-slider-response","78","352516","0.0-15.0-0.0-0.18","2150","pics2/SW4.jpg","","","68","SW","","","","","","","","","",""
"image-slider-response","79","357687","0.0-15.0-0.0-0.19","4958","pics2/FR5.jpg","","","48","FR","","","","","","","","","",""
"image-slider-response","80","360785","0.0-15.0-0.0-0.20","2881","pics2/FR3.jpg","","","60","FR","","","","","","","","","",""
"image-slider-response","81","364269","0.0-15.0-0.0-0.21","3276","pics2/FR4.jpg","","","100","FR","","","","","","","","","",""
"image-slider-response","82","368682","0.0-15.0-0.0-0.22","4199","pics2/SA6.jpg","","","21","SA","","","","","","","","","",""
"image-slider-response","83","371149","0.0-15.0-0.0-0.23","2262","pics2/SA2.jpg","","","34","SA","","","","","","","","","",""
"call-function","84","371386","0.0-16.0","","","","","","","","","","","","","","","",""
"call-function","85","371396","0.0-17.0","","","","","","","","","","","","","","","",""
"html-button-response","86","372945","0.0-18.0","1548","<div style='width: 900px;'> <font size = 6><b> End of the first rating</b><br><br>","0","","","","","","","","","","","","",""
"html-button-response","87","375206","0.0-19.0","2259","<div ><img src='sizeS.png'></img></div><br><div style='text-align: justify; width: 700px'> Using the mouse, rate the <b><i>size</b></i> of the food items <b><i> relative to the white background.</b></i> Right-end of the scale indicates a <i>very large item</i>, which covers a large portion of the white rectangle. Left-end indicates a <i>very tiny</i> item which covers a tiny portion of the white rectangle.<br><br><i><u>Remember</i></u>: everything that is not the white background also contributes to item size (e.g. packing, plates, ect.)<br><br> Please keep in mind that if the accuracy of ratings do not allign well with actual sizes, the experiment will end.  As a result it will be consider incomplete and therefore no payment would be made. Good luck!<br><br></div><br>","0","","","","","","","","","","","","",""
"image-slider-response","88","377870","0.0-20.0-0.0-0.0","2663","pics2/SA3.jpg","","","66","null","","","","","","","","","",""
"image-slider-response","89","380624","0.0-20.0-0.0-0.1","2534","pics2/FR3.jpg","","","67","null","","","","","","","","","",""
"image-slider-response","90","384088","0.0-20.0-0.0-0.2","3257","pics2/VE5.jpg","","","54","null","","","","","","","","","",""
"image-slider-response","91","387208","0.0-20.0-0.0-0.3","2913","pics2/SA2.jpg","","","36","null","","","","","","","","","",""
"image-slider-response","92","391047","0.0-20.0-0.0-0.4","3633","pics2/VE6.jpg","","","24","null","","","","","","","","","",""
"image-slider-response","93","394047","0.0-20.0-0.0-0.5","2783","pics2/FR1.jpg","","","68","null","","","","","","","","","",""
"image-slider-response","94","399269","0.0-20.0-0.0-0.6","5002","pics2/VE1.jpg","","","72","null","","","","","","","","","",""
"image-slider-response","95","401332","0.0-20.0-0.0-0.7","1846","pics2/SW5.jpg","","","55","null","","","","","","","","","",""
"image-slider-response","96","403978","0.0-20.0-0.0-0.8","2435","pics2/SA5.jpg","","","13","null","","","","","","","","","",""
"image-slider-response","97","406949","0.0-20.0-0.0-0.9","2756","pics2/FR5.jpg","","","39","null","","","","","","","","","",""
"image-slider-response","98","410404","0.0-20.0-0.0-0.10","3241","pics2/SA1.jpg","","","89","null","","","","","","","","","",""
"image-slider-response","99","414915","0.0-20.0-0.0-0.11","4298","pics2/SW6.jpg","","","34","null","","","","","","","","","",""
"image-slider-response","100","417748","0.0-20.0-0.0-0.12","2622","pics2/FR4.jpg","","","26","null","","","","","","","","","",""
"image-slider-response","101","420828","0.0-20.0-0.0-0.13","2860","pics2/SW2.jpg","","","84","null","","","","","","","","","",""
"image-slider-response","102","424410","0.0-20.0-0.0-0.14","3377","pics2/VE2.jpg","","","48","null","","","","","","","","","",""
"image-slider-response","103","426601","0.0-20.0-0.0-0.15","1984","pics2/VE4.jpg","","","61","null","","","","","","","","","",""
"image-slider-response","104","429405","0.0-20.0-0.0-0.16","2592","pics2/SW4.jpg","","","79","null","","","","","","","","","",""
"image-slider-response","105","432514","0.0-20.0-0.0-0.17","2896","pics2/FR6.jpg","","","9","null","","","","","","","","","",""
"image-slider-response","106","436768","0.0-20.0-0.0-0.18","4034","pics2/SA6.jpg","","","79","null","","","","","","","","","",""
"image-slider-response","107","440027","0.0-20.0-0.0-0.19","3043","pics2/SA4.jpg","","","52","null","","","","","","","","","",""
"image-slider-response","108","443353","0.0-20.0-0.0-0.20","3119","pics2/SW1.jpg","","","99","null","","","","","","","","","",""
"image-slider-response","109","446818","0.0-20.0-0.0-0.21","3253","pics2/VE3.jpg","","","91","null","","","","","","","","","",""
"image-slider-response","110","451664","0.0-20.0-0.0-0.22","4637","pics2/SW3.jpg","","","97","null","","","","","","","","","",""
"image-slider-response","111","456856","0.0-20.0-0.0-0.23","4979","pics2/FR2.jpg","","","79","null","","","","","","","","","",""
"call-function","112","457071","0.0-21.0","","","","","","","","","","","","","","","",""
"html-button-response","113","458416","0.0-22.0","1344","<div style='width: 900px;'> <font size = 6><b> End of the second rating</b><br><br>","0","","","","","","","","","","","","",""
"pavlovia","114","458424","0.0-23.0","","","","","","","","","","","","","","","",""
"html-keyboard-response","115","463430","0.0-24.0","null","<div style='width: 700px;'> <font size=6><b>SHORT BREAK</font></b><br><br><i> Please wait 5 seconds to continue</i></div> ","","","","","","null","","","","","","","",""
"pavlovia","116","463435","0.0-25.0","","","","","","","","","","","","","","","",""
"html-button-response","117","476935","0.0-26.0","13497","<div style='width: 700px;'>In the main part of the study, you will be choosing between 2 items. When it's time to choose,  this symbol will appear: <br><br><img src='chooseS.png'></img><br><br>Below, a cue will signify the type of choice: </div><br><div style='width: 700px;'><div style='float: left; width: 50%'><img src='heartS.png'></img><p class='small'>Heart cue means you should choose the item you <b><i>prefer</b></i> more.</p></div><div class='float: right; width:50%'><img src='sizeS.png'></img><p class='small'>Size cue means you should choose the <b><i>larger</b></i> item. </p></div></div><br><div style='width: 700px;'>When you click, a green square will appear around the item you chose.<br></div><div><br>","0","","","","","","","","","","","","",""
"image-selector-fb-tut","118","481149","0.0-27.0","3210","0232.jpg,0123.jpg","","","","","","","false","0","","","","","",""
"image-selector-fb-tut","119","487015","0.0-28.0","4860","0232.jpg,0123.jpg","","","","","","","false","0","","","","","",""
"html-button-response","120","490266","0.0-29.0","3249","<div style='width: 900px;'>Your choices should be both <b><i>fast and accurate</b></i>. <br><br>You will have <i>4 seconds</i> to make each choice, which should be enough consider the options and click on one of the items.<br><br>","0","","","","","","","","","","","","",""
"html-button-response","121","497821","0.0-30.0","7554","<div style='width: 900px;'>Additionally, on some choice trials you will see the <b><i>no-choice cue</b></i>: <br><br><img src='noS.png'></img> <br><br>This cue means you can't make any choice. You can examine the items, but  can't click on any of them. Just wait patiently for the cue to dissapear.<br><br>","0","","","","","","","","","","","","",""
"image-selector-fb-tut","122","499831","0.0-31.0","null","0232.jpg,0123.jpg","","","","","","","false","null","","","","","",""
"html-button-response","123","516522","0.0-32.0","16687","<div style='width: 900px;'>After each choice the items will remain on the screen and you will see this symbol: <br><br><img src='judgeS.png'></img> <br><br>This means you should rate<b> the magnitude of the difference</b> between the items using a scale: </div><br><div style='width: 900px; '><div style='float: left; width: 50%; margin-right: 2.5em; align-self:left'><img src='heartS.png'></img><p class='small' style = 'text-align: justify;'>Heart cue means you should rate <b>how much you prefer</b> one of the items over the other. Moving the scale indicator to the left means you prefer the left one; moving it to the right - right one. The more you prefer one of them, the more towards that side you should move the scale indicator. </p></div><div class='float: right; width: 50%; margin-left: 2.5em;'><img src='sizeS.png'></img><p class='small' style='text-align: justify'>Size cue means you should rate <b>how much larger</b> is one of the items over the other. Moving the scale indicator to the left means you think the left is larger; moving it to the right - right one. The greater the difference in size, the more towards that side you should move the scale indicator.</div><br>","0","","","","","","","","","","","","",""
"image-slider-2AFC-tut","124","524772","0.0-33.0","8249","","","","26","","","","","","6551","26","","","",""
"image-slider-2AFC-tut","125","529954","0.0-34.0","5179","","","","15","","","","","","4045","15","","","",""
"html-button-response","126","542046","0.0-35.0","12090","<br><br><font size = 36><b> Examples </b></font><br><br><i> 1) I would like to eat some croissants a <b>lot more</b> than doritos right now:</i><br><img src='ex1.PNG', width='62%'></img><br><br><br><i> 2) I would like to eat some doritos a <b>bit more</b> than croissants right now, but just slightly:</i><br><img src='ex2.PNG' width='62%'></img>","0","","","","","","","","","","","","",""
"html-button-response","127","546606","0.0-36.0","4558","<div style='width: 900px;'><i>Now you know everything you need to do the task!</i> <br><br>Let's start by doing a <b>short training</b>, so you'll get used to how it works. </div><br>","0","","","","","","","","","","","","",""
"image-selector-fb","128","550033","0.0-37.0-0.0","2909","pics2/VE6.jpg,pics2/SW6.jpg","","","","","","","true","1","","","sizeS.png","","",""
"image-slider-2AFC","129","555043","0.0-37.0-1.0","null","","","","null","","","","","","","","heartS.png","","",""
"html-keyboard-response","130","555901","0.0-37.0-2.0","null","","","","","","","null","","","","","","","",""
"image-selector-fb","131","558568","0.0-37.1-0.1","2147","pics2/SA2.jpg,pics2/FR5.jpg","","","","","","","true","1","","","sizeS.png","","",""
"image-slider-2AFC","132","561203","0.0-37.1-1.1","2624","","","","81","","","","","","","","sizeS.png","1963","81",""
"html-keyboard-response","133","562012","0.0-37.1-2.1","null","","","","","","","null","","","","","","","",""
"image-selector-fb","134","565042","0.0-37.2-0.2","null","pics2/SW2.jpg,pics2/FR6.jpg","","","","","","","false","null","","","noS.png","","",""
"image-slider-2AFC","135","570049","0.0-37.2-1.2","null","","","","null","","","","","","","","heartS.png","4740","-71",""
"html-keyboard-response","136","570811","0.0-37.2-2.2","null","","","","","","","null","","","","","","","",""
"image-selector-fb","137","573833","0.0-37.3-0.3","null","pics2/VE4.jpg,pics2/SA6.jpg","","","","","","","false","null","","","noS.png","","",""
"image-slider-2AFC","138","577476","0.0-37.3-1.3","3640","","","","-70","","","","","","","","sizeS.png","2416","-70",""
"html-keyboard-response","139","578297","0.0-37.3-2.3","null","","","","","","","null","","","","","","","",""
"image-selector-fb","140","582156","0.0-37.4-0.4","3351","pics2/FR5.jpg,pics2/VE1.jpg","","","","","","","false","0","","","heartS.png","","",""
"image-slider-2AFC","141","586814","0.0-37.4-1.4","4653","","","","-73","","","","","","","","heartS.png","3795","-73",""
"html-keyboard-response","142","587639","0.0-37.4-2.4","null","","","","","","","null","","","","","","","",""
"image-selector-fb","143","590439","0.0-37.5-0.5","2293","pics2/SW6.jpg,pics2/SA1.jpg","","","","","","","false","0","","","heartS.png","","",""
"image-slider-2AFC","144","595445","0.0-37.5-1.5","null","","","","null","","","","","","","","sizeS.png","","",""
"html-keyboard-response","145","596212","0.0-37.5-2.5","null","","","","","","","null","","","","","","","",""
"image-selector-fb","146","598997","0.0-37.6-0.6","2279","pics2/SW6.jpg,pics2/FR6.jpg","","","","","","","false","0","","","heartS.png","","",""
"image-slider-2AFC","147","601150","0.0-37.6-1.6","2149","","","","-43","","","","","","","","heartS.png","1616","-43",""
"html-keyboard-response","148","601916","0.0-37.6-2.6","null","","","","","","","null","","","","","","","",""
"image-selector-fb","149","605067","0.0-37.7-0.7","2644","pics2/VE6.jpg,pics2/SA1.jpg","","","","","","","true","1","","","sizeS.png","","",""
"image-slider-2AFC","150","608216","0.0-37.7-1.7","3144","","","","-58","","","","","","","","heartS.png","2443","-58",""
"html-keyboard-response","151","608982","0.0-37.7-2.7","null","","","","","","","null","","","","","","","",""
"image-selector-fb","152","612018","0.0-37.8-0.8","null","pics2/VE1.jpg,pics2/SA6.jpg","","","","","","","false","null","","","noS.png","","",""
"image-slider-2AFC","153","615810","0.0-37.8-1.8","3787","","","","-66","","","","","","","","sizeS.png","2811","-66",""
"html-keyboard-response","154","616514","0.0-37.8-2.8","null","","","","","","","null","","","","","","","",""
"image-selector-fb","155","619388","0.0-37.9-0.9","2351","pics2/VE6.jpg,pics2/VE1.jpg","","","","","","","true","1","","","sizeS.png","","",""
"image-slider-2AFC","156","622383","0.0-37.9-1.9","2991","","","","100","","","","","","","","sizeS.png","1857","100",""
"html-keyboard-response","157","623148","0.0-37.9-2.9","null","","","","","","","null","","","","","","","",""
"image-selector-fb","158","625328","0.0-37.10-0.10","1664","pics2/SA1.jpg,pics2/VE1.jpg","","","","","","","true","1","","","heartS.png","","",""
"image-slider-2AFC","159","628986","0.0-37.10-1.10","3653","","","","81","","","","","","","","sizeS.png","2360","81",""
"html-keyboard-response","160","629856","0.0-37.10-2.10","null","","","","","","","null","","","","","","","",""
"image-selector-fb","161","633278","0.0-37.11-0.11","2915","pics2/SW6.jpg,pics2/FR5.jpg","","","","","","","true","1","","","sizeS.png","","",""
"image-slider-2AFC","162","636240","0.0-37.11-1.11","2958","","","","22","","","","","","","","heartS.png","2316","22",""
"html-keyboard-response","163","636951","0.0-37.11-2.11","null","","","","","","","null","","","","","","","",""
"html-button-response","164","639873","0.0-38.0","2918","<i><font size=10>Good job!</font></i> <br><br>Before we begin, you have a chance to review the rules, in case something was not clear.<br><br>","0","","","","","","","","","","","","",""
"instructions","165","645450","0.0-39.0","5577","","","","","","","","","","","","","","","[{""page_index"":0,""viewing_time"":2714},{""page_index"":1,""viewing_time"":1766},{""page_index"":2,""viewing_time"":1096}]"
"html-button-response","166","651381","0.0-40.0","5930","<div style='width: 900px;'> <font size='40'>Great! Now you're ready to begin</font><br><br>The main part of the experiment will consist of <u>3 blocks</u>. Each block consists of 66 decisions and judgements. You will have time for a short break between blocks.<br><br><br><i><u>Do your best to respond within the time limit.</u></i><br><br><i> Press the button to start the experiment<br><br></i>","0","","","","","","","","","","","","",""
"image-selector-fb","167","653813","0.0-41.0-0.0","1921","pics2/VE5.jpg,pics2/SA3.jpg","","","","","","","true","1","","","sizeS.png","","",""
"image-slider-2AFC","168","656780","0.0-41.0-1.0","2966","","","","-30","","","","","","","","heartS.png","2334","-30",""
"html-keyboard-response","169","657490","0.0-41.0-2.0","null","","","","","","","null","","","","","","","",""
"image-selector-fb","170","660032","0.0-41.1-0.1","2031","pics2/SW5.jpg,pics2/SA5.jpg","","","","","","","false","0","","","sizeS.png","","",""
"image-slider-2AFC","171","663413","0.0-41.1-1.1","3377","","","","77","","","","","","","","heartS.png","2548","77",""
"html-keyboard-response","172","664225","0.0-41.1-2.1","null","","","","","","","null","","","","","","","",""
"image-selector-fb","173","666264","0.0-41.2-0.2","1533","pics2/SW1.jpg,pics2/SW4.jpg","","","","","","","false","0","","","sizeS.png","","",""
"image-slider-2AFC","174","669394","0.0-41.2-1.2","3127","","","","-78","","","","","","","","heartS.png","2436","-78",""
"html-keyboard-response","175","670265","0.0-41.2-2.2","null","","","","","","","null","","","","","","","",""
"image-selector-fb","176","672413","0.0-41.3-0.3","1643","pics2/FR3.jpg,pics2/SA4.jpg","","","","","","","false","0","","","sizeS.png","","",""
"image-slider-2AFC","177","674823","0.0-41.3-1.3","2405","","","","31","","","","","","","","sizeS.png","1723","31",""
"html-keyboard-response","178","675635","0.0-41.3-2.3","null","","","","","","","null","","","","","","","",""
"image-selector-fb","179","679669","0.0-41.4-0.4","3527","pics2/SA3.jpg,pics2/FR4.jpg","","","","","","","false","0","","","sizeS.png","","",""
"image-slider-2AFC","180","682443","0.0-41.4-1.4","2769","","","","74","","","","","","","","heartS.png","1862","74",""
"html-keyboard-response","181","683201","0.0-41.4-2.4","null","","","","","","","null","","","","","","","",""
"image-selector-fb","182","686075","0.0-41.5-0.5","2368","pics2/SW4.jpg,pics2/SW3.jpg","","","","","","","true","1","","","heartS.png","","",""
"image-slider-2AFC","183","689956","0.0-41.5-1.5","3876","","","","-41","","","","","","","","sizeS.png","3233","-41",""
"html-keyboard-response","184","690731","0.0-41.5-2.5","null","","","","","","","null","","","","","","","",""
"image-selector-fb","185","692798","0.0-41.6-0.6","1560","pics2/FR4.jpg,pics2/FR1.jpg","","","","","","","true","1","","","sizeS.png","","",""
"image-slider-2AFC","186","695869","0.0-41.6-1.6","3067","","","","-44","","","","","","","","heartS.png","2138","-44",""
"html-keyboard-response","187","696677","0.0-41.6-2.6","null","","","","","","","null","","","","","","","",""
"image-selector-fb","188","699727","0.0-41.7-0.7","2537","pics2/SA3.jpg,pics2/SW4.jpg","","","","","","","false","0","","","heartS.png","","",""
"image-slider-2AFC","189","702778","0.0-41.7-1.7","3046","","","","-66","","","","","","","","sizeS.png","2198","-66",""
"html-keyboard-response","190","703595","0.0-41.7-2.7","null","","","","","","","null","","","","","","","",""
"image-selector-fb","191","706616","0.0-41.8-0.8","null","pics2/FR3.jpg,pics2/SW1.jpg","","","","","","","false","null","","","noS.png","","",""
"image-slider-2AFC","192","710498","0.0-41.8-1.8","3878","","","","55","","","","","","","","heartS.png","3147","55",""
"html-keyboard-response","193","711327","0.0-41.8-2.8","null","","","","","","","null","","","","","","","",""
"image-selector-fb","194","714357","0.0-41.9-0.9","null","pics2/SA5.jpg,pics2/FR3.jpg","","","","","","","false","null","","","noS.png","","",""
"image-slider-2AFC","195","718060","0.0-41.9-1.9","3699","","","","63","","","","","","","","sizeS.png","2831","63",""
"html-keyboard-response","196","718927","0.0-41.9-2.9","null","","","","","","","null","","","","","","","",""
"image-selector-fb","197","721911","0.0-41.10-0.10","2475","pics2/FR2.jpg,pics2/FR1.jpg","","","","","","","false","0","","","sizeS.png","","",""
"image-slider-2AFC","198","725859","0.0-41.10-1.10","3944","","","","-37","","","","","","","","heartS.png","2937","-37",""
"html-keyboard-response","199","726731","0.0-41.10-2.10","null","","","","","","","null","","","","","","","",""
"image-selector-fb","200","729724","0.0-41.11-0.11","2485","pics2/VE5.jpg,pics2/SW5.jpg","","","","","","","true","1","","","sizeS.png","","",""
"image-slider-2AFC","201","732073","0.0-41.11-1.11","2345","","","","18","","","","","","","","sizeS.png","1792","18",""
"html-keyboard-response","202","732942","0.0-41.11-2.11","null","","","","","","","null","","","","","","","",""
"image-selector-fb","203","735187","0.0-41.12-0.12","1732","pics2/FR3.jpg,pics2/SW1.jpg","","","","","","","true","1","","","sizeS.png","","",""
"image-slider-2AFC","204","738311","0.0-41.12-1.12","3120","","","","65","","","","","","","","sizeS.png","2124","65",""
"html-keyboard-response","205","739075","0.0-41.12-2.12","null","","","","","","","null","","","","","","","",""
"image-selector-fb","206","741400","0.0-41.13-0.13","1812","pics2/SA4.jpg,pics2/FR1.jpg","","","","","","","true","1","","","heartS.png","","",""
"image-slider-2AFC","207","744855","0.0-41.13-1.13","3451","","","","71","","","","","","","","sizeS.png","2444","71",""
"html-keyboard-response","208","745573","0.0-41.13-2.13","null","","","","","","","null","","","","","","","",""
"image-selector-fb","209","747542","0.0-41.14-0.14","1447","pics2/FR2.jpg,pics2/SW5.jpg","","","","","","","false","0","","","sizeS.png","","",""
"image-slider-2AFC","210","750757","0.0-41.14-1.14","3210","","","","-26","","","","","","","","heartS.png","2303","-26",""
"html-keyboard-response","211","751576","0.0-41.14-2.14","null","","","","","","","null","","","","","","","",""
"image-selector-fb","212","754695","0.0-41.15-0.15","2607","pics2/SW5.jpg,pics2/SW3.jpg","","","","","","","false","0","","","heartS.png","","",""
"image-slider-2AFC","213","757326","0.0-41.15-1.15","2627","","","","26","","","","","","","","heartS.png","1896","26",""
"html-keyboard-response","214","758143","0.0-41.15-2.15","null","","","","","","","null","","","","","","","",""
"image-selector-fb","215","760809","0.0-41.16-0.16","2160","pics2/SW4.jpg,pics2/SA3.jpg","","","","","","","true","1","","","sizeS.png","","",""
"image-slider-2AFC","216","765194","0.0-41.16-1.16","4382","","","","27","","","","","","","","heartS.png","3513","27",""
"html-keyboard-response","217","765969","0.0-41.16-2.16","null","","","","","","","null","","","","","","","",""
"image-selector-fb","218","770476","0.0-41.17-0.17","null","pics2/FR4.jpg,pics2/SW1.jpg","","","","","","","false","null","","","heartS.png","","",""
"image-slider-2AFC","219","770478","0.0-41.17-1.17","null","","","","null","","","","","","","","sizeS.png","","",""
"html-keyboard-response","220","771247","0.0-41.17-2.17","null","","","","","","","null","","","","","","","",""
"image-selector-fb","221","774238","0.0-41.18-0.18","2472","pics2/VE5.jpg,pics2/SW4.jpg","","","","","","","true","1","","","sizeS.png","","",""
"image-slider-2AFC","222","777493","0.0-41.18-1.18","3252","","","","21","","","","","","","","sizeS.png","2720","21",""
"html-keyboard-response","223","778222","0.0-41.18-2.18","null","","","","","","","null","","","","","","","",""
"image-selector-fb","224","780394","0.0-41.19-0.19","1667","pics2/VE5.jpg,pics2/FR3.jpg","","","","","","","false","0","","","heartS.png","","",""
"image-slider-2AFC","225","782499","0.0-41.19-1.19","2102","","","","-29","","","","","","","","heartS.png","1480","-29",""
"html-keyboard-response","226","783206","0.0-41.19-2.19","null","","","","","","","null","","","","","","","",""
"image-selector-fb","227","786235","0.0-41.20-0.20","null","pics2/FR4.jpg,pics2/SA4.jpg","","","","","","","false","null","","","noS.png","","",""
"image-slider-2AFC","228","790262","0.0-41.20-1.20","4023","","","","-24","","","","","","","","heartS.png","2947","-24",""
"html-keyboard-response","229","790983","0.0-41.20-2.20","null","","","","","","","null","","","","","","","",""
"image-selector-fb","230","794008","0.0-41.21-0.21","null","pics2/SW5.jpg,pics2/SA4.jpg","","","","","","","false","null","","","noS.png","","",""
"image-slider-2AFC","231","797435","0.0-41.21-1.21","3422","","","","-53","","","","","","","","sizeS.png","2642","-53",""
"html-keyboard-response","232","798298","0.0-41.21-2.21","null","","","","","","","null","","","","","","","",""
"image-selector-fb","233","800276","0.0-41.22-0.22","1463","pics2/SW3.jpg,pics2/FR1.jpg","","","","","","","true","1","","","sizeS.png","","",""
"image-slider-2AFC","234","802332","0.0-41.22-1.22","2051","","","","10","","","","","","","","sizeS.png","1379","10",""
"html-keyboard-response","235","803106","0.0-41.22-2.22","null","","","","","","","null","","","","","","","",""
"image-selector-fb","236","806132","0.0-41.23-0.23","null","pics2/SA5.jpg,pics2/VE5.jpg","","","","","","","false","null","","","noS.png","","",""
"image-slider-2AFC","237","809493","0.0-41.23-1.23","3356","","","","32","","","","","","","","sizeS.png","2478","32",""
"html-keyboard-response","238","810265","0.0-41.23-2.23","null","","","","","","","null","","","","","","","",""
"image-selector-fb","239","813298","0.0-41.24-0.24","null","pics2/SW5.jpg,pics2/SW1.jpg","","","","","","","false","null","","","noS.png","","",""
"image-slider-2AFC","240","816838","0.0-41.24-1.24","3534","","","","41","","","","","","","","heartS.png","2695","41",""
"html-keyboard-response","241","817552","0.0-41.24-2.24","null","","","","","","","null","","","","","","","",""
"image-selector-fb","242","820044","0.0-41.25-0.25","1985","pics2/SW3.jpg,pics2/SA5.jpg","","","","","","","false","0","","","sizeS.png","","",""
"image-slider-2AFC","243","822535","0.0-41.25-1.25","2489","","","","-86","","","","","","","","sizeS.png","1700","-86",""
"html-keyboard-response","244","823357","0.0-41.25-2.25","null","","","","","","","null","","","","","","","",""
"image-selector-fb","245","826513","0.0-41.26-0.26","2648","pics2/SA4.jpg,pics2/SW3.jpg","","","","","","","false","0","","","heartS.png","","",""
"image-slider-2AFC","246","829445","0.0-41.26-1.26","2928","","","","68","","","","","","","","sizeS.png","2000","68",""
"html-keyboard-response","247","830307","0.0-41.26-2.26","null","","","","","","","null","","","","","","","",""
"image-selector-fb","248","832231","0.0-41.27-0.27","1413","pics2/FR4.jpg,pics2/FR3.jpg","","","","","","","false","0","","","heartS.png","","",""
"image-slider-2AFC","249","835122","0.0-41.27-1.27","2888","","","","79","","","","","","","","sizeS.png","1940","79",""
"html-keyboard-response","250","835837","0.0-41.27-2.27","null","","","","","","","null","","","","","","","",""
"image-selector-fb","251","837767","0.0-41.28-0.28","1422","pics2/SW4.jpg,pics2/SA5.jpg","","","","","","","false","0","","","sizeS.png","","",""
"image-slider-2AFC","252","840285","0.0-41.28-1.28","2512","","","","-34","","","","","","","","sizeS.png","1792","-34",""
"html-keyboard-response","253","841012","0.0-41.28-2.28","null","","","","","","","null","","","","","","","",""
"image-selector-fb","254","844035","0.0-41.29-0.29","null","pics2/SW5.jpg,pics2/SW3.jpg","","","","","","","false","null","","","noS.png","","",""
"image-slider-2AFC","255","849043","0.0-41.29-1.29","null","","","","null","","","","","","","","heartS.png","4465","46",""
"html-keyboard-response","256","849913","0.0-41.29-2.29","null","","","","","","","null","","","","","","","",""
"image-selector-fb","257","852066","0.0-41.30-0.30","1645","pics2/SA3.jpg,pics2/SA5.jpg","","","","","","","false","0","","","sizeS.png","","",""
"image-slider-2AFC","258","854297","0.0-41.30-1.30","2226","","","","-77","","","","","","","","sizeS.png","1377","-77",""
"html-keyboard-response","259","855164","0.0-41.30-2.30","null","","","","","","","null","","","","","","","",""
"image-selector-fb","260","857877","0.0-41.31-0.31","2198","pics2/SW4.jpg,pics2/FR1.jpg","","","","","","","true","1","","","sizeS.png","","",""
"image-slider-2AFC","261","861207","0.0-41.31-1.31","3326","","","","44","","","","","","","","sizeS.png","2398","44",""
"html-keyboard-response","262","862022","0.0-41.31-2.31","null","","","","","","","null","","","","","","","",""
"image-selector-fb","263","865785","0.0-41.32-0.32","3257","pics2/FR3.jpg,pics2/SW5.jpg","","","","","","","true","1","","","sizeS.png","","",""
"image-slider-2AFC","264","869942","0.0-41.32-1.32","4154","","","","-63","","","","","","","","heartS.png","3394","-63",""
"html-keyboard-response","265","870712","0.0-41.32-2.32","null","","","","","","","null","","","","","","","",""
"image-selector-fb","266","873159","0.0-41.33-0.33","1941","pics2/SA4.jpg,pics2/FR2.jpg","","","","","","","true","1","","","heartS.png","","",""
"image-slider-2AFC","267","875776","0.0-41.33-1.33","2612","","","","80","","","","","","","","sizeS.png","1723","80",""
"html-keyboard-response","268","876532","0.0-41.33-2.33","null","","","","","","","null","","","","","","","",""
"image-selector-fb","269","879551","0.0-41.34-0.34","null","pics2/SW3.jpg,pics2/VE5.jpg","","","","","","","false","null","","","noS.png","","",""
"image-slider-2AFC","270","883461","0.0-41.34-1.34","3905","","","","-89","","","","","","","","sizeS.png","2494","-89",""
"html-keyboard-response","271","884285","0.0-41.34-2.34","null","","","","","","","null","","","","","","","",""
"image-selector-fb","272","887310","0.0-41.35-0.35","null","pics2/SW4.jpg,pics2/SA3.jpg","","","","","","","false","null","","","noS.png","","",""
"image-slider-2AFC","273","890273","0.0-41.35-1.35","2960","","","","68","","","","","","","","heartS.png","2112","68",""
"html-keyboard-response","274","891088","0.0-41.35-2.35","null","","","","","","","null","","","","","","","",""
"image-selector-fb","275","893895","0.0-41.36-0.36","2303","pics2/SA5.jpg,pics2/SW4.jpg","","","","","","","false","0","","","heartS.png","","",""
"image-slider-2AFC","276","896236","0.0-41.36-1.36","2338","","","","-43","","","","","","","","heartS.png","1518","-43",""
"html-keyboard-response","277","896956","0.0-41.36-2.36","null","","","","","","","null","","","","","","","",""
"image-selector-fb","278","898821","0.0-41.37-0.37","1358","pics2/FR2.jpg,pics2/FR3.jpg","","","","","","","false","0","","","sizeS.png","","",""
"image-slider-2AFC","279","901210","0.0-41.37-1.37","2384","","","","-76","","","","","","","","sizeS.png","1398","-76",""
"html-keyboard-response","280","902078","0.0-41.37-2.37","null","","","","","","","null","","","","","","","",""
"image-selector-fb","281","904603","0.0-41.38-0.38","2010","pics2/FR2.jpg,pics2/SW3.jpg","","","","","","","false","0","","","sizeS.png","","",""
"image-slider-2AFC","282","908573","0.0-41.38-1.38","3966","","","","-24","","","","","","","","heartS.png","3364","-24",""
"html-keyboard-response","283","909439","0.0-41.38-2.38","null","","","","","","","null","","","","","","","",""
"image-selector-fb","284","911577","0.0-41.39-0.39","1618","pics2/VE5.jpg,pics2/SA5.jpg","","","","","","","false","0","","","sizeS.png","","",""
"image-slider-2AFC","285","914664","0.0-41.39-1.39","3084","","","","-83","","","","","","","","sizeS.png","2038","-83",""
"html-keyboard-response","286","915419","0.0-41.39-2.39","null","","","","","","","null","","","","","","","",""
"image-selector-fb","287","917199","0.0-41.40-0.40","1272","pics2/SW1.jpg,pics2/SW5.jpg","","","","","","","false","0","","","heartS.png","","",""
"image-slider-2AFC","288","919626","0.0-41.40-1.40","2423","","","","-79","","","","","","","","heartS.png","1613","-79",""
"html-keyboard-response","289","920403","0.0-41.40-2.40","null","","","","","","","null","","","","","","","",""
"image-selector-fb","290","923188","0.0-41.41-0.41","2278","pics2/SW5.jpg,pics2/FR4.jpg","","","","","","","false","0","","","sizeS.png","","",""
"image-slider-2AFC","291","925843","0.0-41.41-1.41","2648","","","","-88","","","","","","","","sizeS.png","1838","-88",""
"html-keyboard-response","292","926552","0.0-41.41-2.41","null","","","","","","","null","","","","","","","",""
"image-selector-fb","293","929662","0.0-41.42-0.42","2602","pics2/FR1.jpg,pics2/SW4.jpg","","","","","","","false","0","","","heartS.png","","",""
"image-slider-2AFC","294","933767","0.0-41.42-1.42","4100","","","","-95","","","","","","","","sizeS.png","2907","-95",""
"html-keyboard-response","295","934546","0.0-41.42-2.42","null","","","","","","","null","","","","","","","",""
"image-selector-fb","296","936856","0.0-41.43-0.43","1801","pics2/SW5.jpg,pics2/VE5.jpg","","","","","","","true","1","","","heartS.png","","",""
"image-slider-2AFC","297","939371","0.0-41.43-1.43","2510","","","","-78","","","","","","","","sizeS.png","1682","-78",""
"html-keyboard-response","298","940187","0.0-41.43-2.43","null","","","","","","","null","","","","","","","",""
"image-selector-fb","299","943208","0.0-41.44-0.44","null","pics2/SW1.jpg,pics2/VE5.jpg","","","","","","","false","null","","","noS.png","","",""
"image-slider-2AFC","300","946367","0.0-41.44-1.44","3155","","","","3","","","","","","","","heartS.png","2366","3",""
"html-keyboard-response","301","947229","0.0-41.44-2.44","null","","","","","","","null","","","","","","","",""
"image-selector-fb","302","950381","0.0-41.45-0.45","2636","pics2/SW5.jpg,pics2/FR3.jpg","","","","","","","true","1","","","heartS.png","","",""
"image-slider-2AFC","303","952989","0.0-41.45-1.45","2602","","","","-76","","","","","","","","sizeS.png","1980","-76",""
"html-keyboard-response","304","953758","0.0-41.45-2.45","null","","","","","","","null","","","","","","","",""
"image-selector-fb","305","956785","0.0-41.46-0.46","null","pics2/FR3.jpg,pics2/SW3.jpg","","","","","","","false","null","","","noS.png","","",""
"image-slider-2AFC","306","961790","0.0-41.46-1.46","null","","","","null","","","","","","","","heartS.png","","",""
"html-keyboard-response","307","962594","0.0-41.46-2.46","null","","","","","","","null","","","","","","","",""
"image-selector-fb","308","965619","0.0-41.47-0.47","null","pics2/FR4.jpg,pics2/SA3.jpg","","","","","","","false","null","","","noS.png","","",""
"image-slider-2AFC","309","968515","0.0-41.47-1.47","2891","","","","60","","","","","","","","sizeS.png","1964","60",""
"html-keyboard-response","310","969390","0.0-41.47-2.47","null","","","","","","","null","","","","","","","",""
"image-selector-fb","311","971884","0.0-41.48-0.48","1982","pics2/SA3.jpg,pics2/FR1.jpg","","","","","","","true","1","","","sizeS.png","","",""
"image-slider-2AFC","312","974080","0.0-41.48-1.48","2192","","","","38","","","","","","","","sizeS.png","1364","38",""
"html-keyboard-response","313","974950","0.0-41.48-2.48","null","","","","","","","null","","","","","","","",""
"image-selector-fb","314","977975","0.0-41.49-0.49","null","pics2/SA5.jpg,pics2/SA4.jpg","","","","","","","false","null","","","noS.png","","",""
"image-slider-2AFC","315","981726","0.0-41.49-1.49","3748","","","","-31","","","","","","","","sizeS.png","3008","-31",""
"html-keyboard-response","316","982494","0.0-41.49-2.49","null","","","","","","","null","","","","","","","",""
"image-selector-fb","317","985521","0.0-41.50-0.50","null","pics2/SA5.jpg,pics2/SW3.jpg","","","","","","","false","null","","","noS.png","","",""
"image-slider-2AFC","318","990246","0.0-41.50-1.50","4721","","","","-50","","","","","","","","heartS.png","4110","-50",""
"html-keyboard-response","319","990958","0.0-41.50-2.50","null","","","","","","","null","","","","","","","",""
"image-selector-fb","320","993988","0.0-41.51-0.51","null","pics2/SA4.jpg,pics2/SA3.jpg","","","","","","","false","null","","","noS.png","","",""
"image-slider-2AFC","321","998005","0.0-41.51-1.51","4012","","","","55","","","","","","","","sizeS.png","3232","55",""
"html-keyboard-response","322","998868","0.0-41.51-2.51","null","","","","","","","null","","","","","","","",""
"image-selector-fb","323","1001883","0.0-41.52-0.52","null","pics2/FR1.jpg,pics2/SA4.jpg","","","","","","","false","null","","","noS.png","","",""
"image-slider-2AFC","324","1005529","0.0-41.52-1.52","3639","","","","-23","","","","","","","","heartS.png","2297,3037","-5,-23",""
"html-keyboard-response","325","1006260","0.0-41.52-2.52","null","","","","","","","null","","","","","","","",""
"image-selector-fb","326","1009031","0.0-41.53-0.53","2265","pics2/FR1.jpg,pics2/SA3.jpg","","","","","","","false","0","","","heartS.png","","",""
"image-slider-2AFC","327","1011816","0.0-41.53-1.53","2779","","","","-25","","","","","","","","heartS.png","2257","-25",""
"html-keyboard-response","328","1012684","0.0-41.53-2.53","null","","","","","","","null","","","","","","","",""
"image-selector-fb","329","1014589","0.0-41.54-0.54","1396","pics2/FR4.jpg,pics2/SW3.jpg","","","","","","","false","0","","","heartS.png","","",""
"image-slider-2AFC","330","1017194","0.0-41.54-1.54","2601","","","","-77","","","","","","","","heartS.png","1753","-77",""
"html-keyboard-response","331","1018061","0.0-41.54-2.54","null","","","","","","","null","","","","","","","",""
"image-selector-fb","332","1021084","0.0-41.55-0.55","null","pics2/FR3.jpg,pics2/SA3.jpg","","","","","","","false","null","","","noS.png","","",""
"image-slider-2AFC","333","1024769","0.0-41.55-1.55","3681","","","","-12","","","","","","","","heartS.png","2724","-12",""
"html-keyboard-response","334","1025641","0.0-41.55-2.55","null","","","","","","","null","","","","","","","",""
"image-selector-fb","335","1028678","0.0-41.56-0.56","null","pics2/FR4.jpg,pics2/SW1.jpg","","","","","","","false","null","","","noS.png","","",""
"image-slider-2AFC","336","1032197","0.0-41.56-1.56","3514","","","","85","","","","","","","","sizeS.png","2518","85",""
"html-keyboard-response","337","1032962","0.0-41.56-2.56","null","","","","","","","null","","","","","","","",""
"image-selector-fb","338","1035976","0.0-41.57-0.57","null","pics2/FR2.jpg,pics2/SA3.jpg","","","","","","","false","null","","","noS.png","","",""
"image-slider-2AFC","339","1039057","0.0-41.57-1.57","3077","","","","-20","","","","","","","","heartS.png","2504","-20",""
"html-keyboard-response","340","1039767","0.0-41.57-2.57","null","","","","","","","null","","","","","","","",""
"image-selector-fb","341","1042232","0.0-41.58-0.58","1950","pics2/VE5.jpg,pics2/SA4.jpg","","","","","","","false","0","","","sizeS.png","","",""
"image-slider-2AFC","342","1045137","0.0-41.58-1.58","2899","","","","-5","","","","","","","","heartS.png","2376","-5",""
"html-keyboard-response","343","1045956","0.0-41.58-2.58","null","","","","","","","null","","","","","","","",""
"image-selector-fb","344","1048983","0.0-41.59-0.59","null","pics2/SA4.jpg,pics2/VE5.jpg","","","","","","","false","null","","","noS.png","","",""
"image-slider-2AFC","345","1052891","0.0-41.59-1.59","3902","","","","6","","","","","","","","heartS.png","2974","6",""
"html-keyboard-response","346","1053662","0.0-41.59-2.59","null","","","","","","","null","","","","","","","",""
"image-selector-fb","347","1055723","0.0-41.60-0.60","1554","pics2/FR2.jpg,pics2/FR4.jpg","","","","","","","false","0","","","sizeS.png","","",""
"image-slider-2AFC","348","1058576","0.0-41.60-1.60","2850","","","","-80","","","","","","","","sizeS.png","2040","-80",""
"html-keyboard-response","349","1059349","0.0-41.60-2.60","null","","","","","","","null","","","","","","","",""
"image-selector-fb","350","1061183","0.0-41.61-0.61","1328","pics2/FR1.jpg,pics2/SA4.jpg","","","","","","","false","0","","","sizeS.png","","",""
"image-slider-2AFC","351","1063877","0.0-41.61-1.61","2689","","","","5","","","","","","","","heartS.png","1999","5",""
"html-keyboard-response","352","1064588","0.0-41.61-2.61","null","","","","","","","null","","","","","","","",""
"image-selector-fb","353","1067608","0.0-41.62-0.62","null","pics2/SW3.jpg,pics2/SW4.jpg","","","","","","","false","null","","","noS.png","","",""
"image-slider-2AFC","354","1071769","0.0-41.62-1.62","4156","","","","-39","","","","","","","","sizeS.png","3249","-39",""
"html-keyboard-response","355","1072544","0.0-41.62-2.62","null","","","","","","","null","","","","","","","",""
"image-selector-fb","356","1075572","0.0-41.63-0.63","null","pics2/SW5.jpg,pics2/SW4.jpg","","","","","","","false","null","","","noS.png","","",""
"image-slider-2AFC","357","1078916","0.0-41.63-1.63","3341","","","","-67","","","","","","","","sizeS.png","2215","-67",""
"html-keyboard-response","358","1079697","0.0-41.63-2.63","null","","","","","","","null","","","","","","","",""
"image-selector-fb","359","1081530","0.0-41.64-0.64","1328","pics2/SW5.jpg,pics2/SW1.jpg","","","","","","","true","1","","","sizeS.png","","",""
"image-slider-2AFC","360","1084128","0.0-41.64-1.64","2596","","","","82","","","","","","","","sizeS.png","1708","82",""
"html-keyboard-response","361","1084943","0.0-41.64-2.64","null","","","","","","","null","","","","","","","",""
"image-selector-fb","362","1087326","0.0-41.65-0.65","1877","pics2/SA4.jpg,pics2/SW4.jpg","","","","","","","false","0","","","heartS.png","","",""
"image-slider-2AFC","363","1089952","0.0-41.65-1.65","2621","","","","37","","","","","","","","sizeS.png","1871","37",""
"html-keyboard-response","364","1090776","0.0-41.65-2.65","null","","","","","","","null","","","","","","","",""
"pavlovia","365","1090828","0.0-42.0","","","","","","","","","","","","","","","",""
"html-keyboard-response","366","1095841","0.0-43.0","null","<div style='width: 700px;'> <font size=6><b>SHORT BREAK</font></b><br><br><i> Please wait 5 seconds to continue</i></div> ","","","","","","null","","","","","","","",""
"pavlovia","367","1095846","0.0-44.0","","","","","","","","","","","","","","","",""
"html-button-response","368","1100787","0.0-45.0","4938","<div style='width: 700px;'> <font size=6><b>BLOCK 2</font></b><br><br>Press the button whenever you feel ready to start the second block (there are 3 in total)</div>","0","","","","","","","","","","","","",""
"image-selector-fb","369","1103795","0.0-46.0-0.0","null","pics2/FR2.jpg,pics2/VE5.jpg","","","","","","","false","null","","","noS.png","","",""
"image-slider-2AFC","370","1106235","0.0-46.0-1.0","2436","","","","-66","","","","","","","","sizeS.png","1647","-66",""
"html-keyboard-response","371","1107099","0.0-46.0-2.0","null","","","","","","","null","","","","","","","",""
"image-selector-fb","372","1110121","0.0-46.1-0.1","null","pics2/FR1.jpg,pics2/FR3.jpg","","","","","","","false","null","","","noS.png","","",""
"image-slider-2AFC","373","1113012","0.0-46.1-1.1","2887","","","","-42","","","","","","","","heartS.png","2147","-42",""
"html-keyboard-response","374","1113792","0.0-46.1-2.1","null","","","","","","","null","","","","","","","",""
"image-selector-fb","375","1116825","0.0-46.2-0.2","null","pics2/FR3.jpg,pics2/SA4.jpg","","","","","","","false","null","","","noS.png","","",""
"image-slider-2AFC","376","1119625","0.0-46.2-1.2","2795","","","","-75","","","","","","","","sizeS.png","1867","-75",""
"html-keyboard-response","377","1120497","0.0-46.2-2.2","null","","","","","","","null","","","","","","","",""
"image-selector-fb","378","1122979","0.0-46.3-0.3","1976","pics2/SW3.jpg,pics2/VE5.jpg","","","","","","","false","0","","","sizeS.png","","",""
"image-slider-2AFC","379","1126100","0.0-46.3-1.3","3116","","","","2","","","","","","","","heartS.png","2542","2",""
"html-keyboard-response","380","1126962","0.0-46.3-2.3","null","","","","","","","null","","","","","","","",""
"image-selector-fb","381","1128832","0.0-46.4-0.4","1363","pics2/SW3.jpg,pics2/SA4.jpg","","","","","","","false","0","","","sizeS.png","","",""
"image-slider-2AFC","382","1131844","0.0-46.4-1.4","3007","","","","-43","","","","","","","","heartS.png","2100","-43",""
"html-keyboard-response","383","1132557","0.0-46.4-2.4","null","","","","","","","null","","","","","","","",""
"image-selector-fb","384","1135580","0.0-46.5-0.5","null","pics2/FR4.jpg,pics2/SW4.jpg","","","","","","","false","null","","","noS.png","","",""
"image-slider-2AFC","385","1139197","0.0-46.5-1.5","3612","","","","-81","","","","","","","","heartS.png","2665","-81",""
"html-keyboard-response","386","1139906","0.0-46.5-2.5","null","","","","","","","null","","","","","","","",""
"image-selector-fb","387","1141711","0.0-46.6-0.6","1291","pics2/SW1.jpg,pics2/FR4.jpg","","","","","","","false","0","","","sizeS.png","","",""
"image-slider-2AFC","388","1144715","0.0-46.6-1.6","3000","","","","-64","","","","","","","","sizeS.png","2062","-64",""
"html-keyboard-response","389","1145424","0.0-46.6-2.6","null","","","","","","","null","","","","","","","",""
"image-selector-fb","390","1148449","0.0-46.7-0.7","null","pics2/SA5.jpg,pics2/FR1.jpg","","","","","","","false","null","","","noS.png","","",""
"image-slider-2AFC","391","1151496","0.0-46.7-1.7","3041","","","","66","","","","","","","","sizeS.png","2182","66",""
"html-keyboard-response","392","1152324","0.0-46.7-2.7","null","","","","","","","null","","","","","","","",""
"image-selector-fb","393","1155345","0.0-46.8-0.8","null","pics2/SW5.jpg,pics2/FR2.jpg","","","","","","","false","null","","","noS.png","","",""
"image-slider-2AFC","394","1157844","0.0-46.8-1.8","2495","","","","32","","","","","","","","heartS.png","1854","32",""
"html-keyboard-response","395","1158656","0.0-46.8-2.8","null","","","","","","","null","","","","","","","",""
"image-selector-fb","396","1161682","0.0-46.9-0.9","null","pics2/SA3.jpg,pics2/VE5.jpg","","","","","","","false","null","","","noS.png","","",""
"image-slider-2AFC","397","1164492","0.0-46.9-1.9","2806","","","","-12","","","","","","","","heartS.png","2106","-12",""
"html-keyboard-response","398","1165207","0.0-46.9-2.9","null","","","","","","","null","","","","","","","",""
"image-selector-fb","399","1167625","0.0-46.10-0.10","1909","pics2/SW4.jpg,pics2/SW1.jpg","","","","","","","true","1","","","heartS.png","","",""
"image-slider-2AFC","400","1170084","0.0-46.10-1.10","2454","","","","53","","","","","","","","heartS.png","1546","53",""
"html-keyboard-response","401","1170856","0.0-46.10-2.10","null","","","","","","","null","","","","","","","",""
"image-selector-fb","402","1173412","0.0-46.11-0.11","2037","pics2/FR1.jpg,pics2/SW1.jpg","","","","","","","true","1","","","heartS.png","","",""
"image-slider-2AFC","403","1175926","0.0-46.11-1.11","2507","","","","33","","","","","","","","heartS.png","1640","33",""
"html-keyboard-response","404","1176700","0.0-46.11-2.11","null","","","","","","","null","","","","","","","",""
"image-selector-fb","405","1179276","0.0-46.12-0.12","2064","pics2/FR1.jpg,pics2/FR3.jpg","","","","","","","false","0","","","heartS.png","","",""
"image-slider-2AFC","406","1182263","0.0-46.12-1.12","2978","","","","-61","","","","","","","","heartS.png","1814","-61",""
"html-keyboard-response","407","1182990","0.0-46.12-2.12","null","","","","","","","null","","","","","","","",""
"image-selector-fb","408","1184955","0.0-46.13-0.13","1459","pics2/SW1.jpg,pics2/FR3.jpg","","","","","","","false","0","","","heartS.png","","",""
"image-slider-2AFC","409","1188106","0.0-46.13-1.13","3146","","","","-77","","","","","","","","sizeS.png","2149","-77",""
"html-keyboard-response","410","1188878","0.0-46.13-2.13","null","","","","","","","null","","","","","","","",""
"image-selector-fb","411","1192452","0.0-46.14-0.14","3053","pics2/FR3.jpg,pics2/VE5.jpg","","","","","","","false","0","","","sizeS.png","","",""
"image-slider-2AFC","412","1193969","0.0-46.14-1.14","1513","","","","-17","","","","","","","","sizeS.png","960","-17",""
"html-keyboard-response","413","1194698","0.0-46.14-2.14","null","","","","","","","null","","","","","","","",""
"image-selector-fb","414","1196958","0.0-46.15-0.15","1754","pics2/SW5.jpg,pics2/SA4.jpg","","","","","","","false","0","","","sizeS.png","","",""
"image-slider-2AFC","415","1198638","0.0-46.15-1.15","1675","","","","-31","","","","","","","","sizeS.png","806","-31",""
"html-keyboard-response","416","1199353","0.0-46.15-2.15","null","","","","","","","null","","","","","","","",""
"image-selector-fb","417","1201625","0.0-46.16-0.16","1768","pics2/FR1.jpg,pics2/SW5.jpg","","","","","","","false","0","","","heartS.png","","",""
"image-slider-2AFC","418","1205072","0.0-46.16-1.16","3441","","","","-4","","","","","","","","sizeS.png","2839","-4",""
"html-keyboard-response","419","1205805","0.0-46.16-2.16","null","","","","","","","null","","","","","","","",""
"image-selector-fb","420","1208828","0.0-46.17-0.17","null","pics2/SW5.jpg,pics2/SA3.jpg","","","","","","","false","null","","","noS.png","","",""
"image-slider-2AFC","421","1211690","0.0-46.17-1.17","2858","","","","19","","","","","","","","heartS.png","2217","19",""
"html-keyboard-response","422","1212402","0.0-46.17-2.17","null","","","","","","","null","","","","","","","",""
"image-selector-fb","423","1215438","0.0-46.18-0.18","null","pics2/SW5.jpg,pics2/FR3.jpg","","","","","","","false","null","","","noS.png","","",""
"image-slider-2AFC","424","1219620","0.0-46.18-1.18","4178","","","","-24","","","","","","","","sizeS.png","1927,3092","-61,-24",""
"html-keyboard-response","425","1220437","0.0-46.18-2.18","null","","","","","","","null","","","","","","","",""
"image-selector-fb","426","1222651","0.0-46.19-0.19","1696","pics2/FR4.jpg,pics2/FR2.jpg","","","","","","","true","1","","","heartS.png","","",""
"image-slider-2AFC","427","1225059","0.0-46.19-1.19","2404","","","","14","","","","","","","","heartS.png","1674","14",""
"html-keyboard-response","428","1225924","0.0-46.19-2.19","null","","","","","","","null","","","","","","","",""
"image-selector-fb","429","1229539","0.0-46.20-0.20","3099","pics2/FR3.jpg,pics2/SW3.jpg","","","","","","","true","1","","","sizeS.png","","",""
"image-slider-2AFC","430","1233440","0.0-46.20-1.20","3897","","","","-2","","","","","","","","heartS.png","3117","-2",""
"html-keyboard-response","431","1234301","0.0-46.20-2.20","null","","","","","","","null","","","","","","","",""
"image-selector-fb","432","1236769","0.0-46.21-0.21","1958","pics2/SA4.jpg,pics2/FR4.jpg","","","","","","","true","1","","","heartS.png","","",""
"image-slider-2AFC","433","1239067","0.0-46.21-1.21","2293","","","","50","","","","","","","","heartS.png","1473","50",""
"html-keyboard-response","434","1239882","0.0-46.21-2.21","null","","","","","","","null","","","","","","","",""
"image-selector-fb","435","1242908","0.0-46.22-0.22","null","pics2/SW5.jpg,pics2/FR1.jpg","","","","","","","false","null","","","noS.png","","",""
"image-slider-2AFC","436","1246705","0.0-46.22-1.22","3794","","","","19","","","","","","","","sizeS.png","3192","19",""
"html-keyboard-response","437","1247528","0.0-46.22-2.22","null","","","","","","","null","","","","","","","",""
"image-selector-fb","438","1250553","0.0-46.23-0.23","null","pics2/FR1.jpg,pics2/SW4.jpg","","","","","","","false","null","","","noS.png","","",""
"image-slider-2AFC","439","1253395","0.0-46.23-1.23","2837","","","","-44","","","","","","","","heartS.png","1870","-44",""
"html-keyboard-response","440","1254166","0.0-46.23-2.23","null","","","","","","","null","","","","","","","",""
"image-selector-fb","441","1256887","0.0-46.24-0.24","2213","pics2/SA5.jpg,pics2/SW3.jpg","","","","","","","false","0","","","heartS.png","","",""
"image-slider-2AFC","442","1259404","0.0-46.24-1.24","2510","","","","-93","","","","","","","","heartS.png","1583","-93",""
"html-keyboard-response","443","1260265","0.0-46.24-2.24","null","","","","","","","null","","","","","","","",""
"image-selector-fb","444","1262729","0.0-46.25-0.25","1956","pics2/VE5.jpg,pics2/FR2.jpg","","","","","","","false","0","","","heartS.png","","",""
"image-slider-2AFC","445","1265886","0.0-46.25-1.25","3152","","","","83","","","","","","","","sizeS.png","2304","83",""
"html-keyboard-response","446","1266607","0.0-46.25-2.25","null","","","","","","","null","","","","","","","",""
"image-selector-fb","447","1269770","0.0-46.26-0.26","2648","pics2/SW5.jpg,pics2/SA3.jpg","","","","","","","false","0","","","sizeS.png","","",""
"image-slider-2AFC","448","1272279","0.0-46.26-1.26","2505","","","","-22","","","","","","","","sizeS.png","1844","-22",""
"html-keyboard-response","449","1273102","0.0-46.26-2.26","null","","","","","","","null","","","","","","","",""
"image-selector-fb","450","1276639","0.0-46.27-0.27","3030","pics2/SA5.jpg,pics2/SA4.jpg","","","","","","","true","1","","","sizeS.png","","",""
"image-slider-2AFC","451","1278338","0.0-46.27-1.27","1694","","","","15","","","","","","","","sizeS.png","1053","15",""
"html-keyboard-response","452","1279162","0.0-46.27-2.27","null","","","","","","","null","","","","","","","",""
"image-selector-fb","453","1281948","0.0-46.28-0.28","2279","pics2/FR1.jpg,pics2/SA5.jpg","","","","","","","true","1","","","heartS.png","","",""
"image-slider-2AFC","454","1285490","0.0-46.28-1.28","3537","","","","-74","","","","","","","","sizeS.png","1860","-74",""
"html-keyboard-response","455","1286312","0.0-46.28-2.28","null","","","","","","","null","","","","","","","",""
"image-selector-fb","456","1288383","0.0-46.29-0.29","1563","pics2/SA5.jpg,pics2/FR1.jpg","","","","","","","true","1","","","sizeS.png","","",""
"image-slider-2AFC","457","1292100","0.0-46.29-1.29","3714","","","","-79","","","","","","","","heartS.png","2283,2945","-59,-79",""
"html-keyboard-response","458","1292875","0.0-46.29-2.29","null","","","","","","","null","","","","","","","",""
"image-selector-fb","459","1294996","0.0-46.30-0.30","1609","pics2/SW4.jpg,pics2/FR2.jpg","","","","","","","true","1","","","heartS.png","","",""
"image-slider-2AFC","460","1297941","0.0-46.30-1.30","2941","","","","63","","","","","","","","sizeS.png","2231","63",""
"html-keyboard-response","461","1298766","0.0-46.30-2.30","null","","","","","","","null","","","","","","","",""
"image-selector-fb","462","1301015","0.0-46.31-0.31","1736","pics2/SW1.jpg,pics2/SA4.jpg","","","","","","","false","0","","","sizeS.png","","",""
"image-slider-2AFC","463","1303398","0.0-46.31-1.31","2379","","","","-96","","","","","","","","sizeS.png","1284","-96",""
"html-keyboard-response","464","1304217","0.0-46.31-2.31","null","","","","","","","null","","","","","","","",""
"image-selector-fb","465","1307244","0.0-46.32-0.32","null","pics2/FR2.jpg,pics2/FR3.jpg","","","","","","","false","null","","","noS.png","","",""
"image-slider-2AFC","466","1310594","0.0-46.32-1.32","3347","","","","-70","","","","","","","","sizeS.png","2400","-70",""
"html-keyboard-response","467","1311417","0.0-46.32-2.32","null","","","","","","","null","","","","","","","",""
"image-selector-fb","468","1313337","0.0-46.33-0.33","1403","pics2/SA3.jpg,pics2/VE5.jpg","","","","","","","true","1","","","heartS.png","","",""
"image-slider-2AFC","469","1315873","0.0-46.33-1.33","2532","","","","35","","","","","","","","heartS.png","1634","35",""
"html-keyboard-response","470","1316593","0.0-46.33-2.33","null","","","","","","","null","","","","","","","",""
"image-selector-fb","471","1318799","0.0-46.34-0.34","1691","pics2/SA3.jpg,pics2/SW5.jpg","","","","","","","false","0","","","heartS.png","","",""
"image-slider-2AFC","472","1323488","0.0-46.34-1.34","4686","","","","-50","","","","","","","","sizeS.png","3946","-50",""
"html-keyboard-response","473","1324264","0.0-46.34-2.34","null","","","","","","","null","","","","","","","",""
"image-selector-fb","474","1327286","0.0-46.35-0.35","null","pics2/SW1.jpg,pics2/SA3.jpg","","","","","","","false","null","","","noS.png","","",""
"image-slider-2AFC","475","1329964","0.0-46.35-1.35","2675","","","","-70","","","","","","","","sizeS.png","1738","-70",""
"html-keyboard-response","476","1330782","0.0-46.35-2.35","null","","","","","","","null","","","","","","","",""
"image-selector-fb","477","1332639","0.0-46.36-0.36","1348","pics2/SA5.jpg,pics2/SA3.jpg","","","","","","","false","0","","","heartS.png","","",""
"image-slider-2AFC","478","1335479","0.0-46.36-1.36","2837","","","","48","","","","","","","","sizeS.png","2077","48",""
"html-keyboard-response","479","1336251","0.0-46.36-2.36","null","","","","","","","null","","","","","","","",""
"image-selector-fb","480","1339272","0.0-46.37-0.37","null","pics2/SA5.jpg,pics2/FR4.jpg","","","","","","","false","null","","","noS.png","","",""
"image-slider-2AFC","481","1341916","0.0-46.37-1.37","2640","","","","0","","","","","","","","heartS.png","2087","0",""
"html-keyboard-response","482","1342781","0.0-46.37-2.37","null","","","","","","","null","","","","","","","",""
"image-selector-fb","483","1346346","0.0-46.38-0.38","3058","pics2/SA5.jpg,pics2/VE5.jpg","","","","","","","false","0","","","heartS.png","","",""
"image-slider-2AFC","484","1348714","0.0-46.38-1.38","2362","","","","53","","","","","","","","sizeS.png","1721","53",""
"html-keyboard-response","485","1349583","0.0-46.38-2.38","null","","","","","","","null","","","","","","","",""
"image-selector-fb","486","1351753","0.0-46.39-0.39","1663","pics2/SW4.jpg,pics2/SA4.jpg","","","","","","","false","0","","","sizeS.png","","",""
"image-slider-2AFC","487","1353647","0.0-46.39-1.39","1890","","","","25","","","","","","","","heartS.png","1219","25",""
"html-keyboard-response","488","1354472","0.0-46.39-2.39","null","","","","","","","null","","","","","","","",""
"image-selector-fb","489","1357111","0.0-46.40-0.40","2131","pics2/FR3.jpg,pics2/SA3.jpg","","","","","","","true","1","","","sizeS.png","","",""
"image-slider-2AFC","490","1359468","0.0-46.40-1.40","2353","","","","56","","","","","","","","sizeS.png","1496","56",""
"html-keyboard-response","491","1360289","0.0-46.40-2.40","null","","","","","","","null","","","","","","","",""
"image-selector-fb","492","1362378","0.0-46.41-0.41","1572","pics2/SW4.jpg,pics2/FR4.jpg","","","","","","","false","0","","","sizeS.png","","",""
"image-slider-2AFC","493","1366198","0.0-46.41-1.41","3815","","","","69","","","","","","","","heartS.png","1289,3085","57,69",""
"html-keyboard-response","494","1367017","0.0-46.41-2.41","null","","","","","","","null","","","","","","","",""
"image-selector-fb","495","1370039","0.0-46.42-0.42","null","pics2/FR1.jpg,pics2/SW3.jpg","","","","","","","false","null","","","noS.png","","",""
"image-slider-2AFC","496","1373367","0.0-46.42-1.42","3322","","","","-38","","","","","","","","sizeS.png","2572","-38",""
"html-keyboard-response","497","1374133","0.0-46.42-2.42","null","","","","","","","null","","","","","","","",""
"image-selector-fb","498","1377158","0.0-46.43-0.43","null","pics2/FR4.jpg,pics2/FR3.jpg","","","","","","","false","null","","","noS.png","","",""
"image-slider-2AFC","499","1379597","0.0-46.43-1.43","2434","","","","-84","","","","","","","","heartS.png","1664","-84",""
"html-keyboard-response","500","1380462","0.0-46.43-2.43","null","","","","","","","null","","","","","","","",""
"image-selector-fb","501","1383358","0.0-46.44-0.44","2387","pics2/VE5.jpg,pics2/FR4.jpg","","","","","","","false","0","","","sizeS.png","","",""
"image-slider-2AFC","502","1385784","0.0-46.44-1.44","2422","","","","77","","","","","","","","heartS.png","1543","77",""
"html-keyboard-response","503","1386595","0.0-46.44-2.44","null","","","","","","","null","","","","","","","",""
"image-selector-fb","504","1389247","0.0-46.45-0.45","2145","pics2/SA3.jpg,pics2/SW3.jpg","","","","","","","true","1","","","heartS.png","","",""
"image-slider-2AFC","505","1391487","0.0-46.45-1.45","2233","","","","-53","","","","","","","","sizeS.png","1581","-53",""
"html-keyboard-response","506","1392358","0.0-46.45-2.45","null","","","","","","","null","","","","","","","",""
"image-selector-fb","507","1396103","0.0-46.46-0.46","3230","pics2/SW3.jpg,pics2/FR4.jpg","","","","","","","false","0","","","sizeS.png","","",""
"image-slider-2AFC","508","1399509","0.0-46.46-1.46","3401","","","","100","","","","","","","","heartS.png","2404","100",""
"html-keyboard-response","509","1400263","0.0-46.46-2.46","null","","","","","","","null","","","","","","","",""
"image-selector-fb","510","1403282","0.0-46.47-0.47","null","pics2/SA4.jpg,pics2/SW4.jpg","","","","","","","false","null","","","noS.png","","",""
"image-slider-2AFC","511","1406440","0.0-46.47-1.47","3154","","","","-26","","","","","","","","heartS.png","2404","-26",""
"html-keyboard-response","512","1407172","0.0-46.47-2.47","null","","","","","","","null","","","","","","","",""
"image-selector-fb","513","1410196","0.0-46.48-0.48","null","pics2/FR4.jpg,pics2/SW3.jpg","","","","","","","false","null","","","noS.png","","",""
"image-slider-2AFC","514","1413781","0.0-46.48-1.48","3581","","","","53","","","","","","","","sizeS.png","2831","53",""
"html-keyboard-response","515","1414543","0.0-46.48-2.48","null","","","","","","","null","","","","","","","",""
"image-selector-fb","516","1417573","0.0-46.49-0.49","null","pics2/SW1.jpg,pics2/SW3.jpg","","","","","","","false","null","","","noS.png","","",""
"image-slider-2AFC","517","1420679","0.0-46.49-1.49","3102","","","","-99","","","","","","","","sizeS.png","2224","-99",""
"html-keyboard-response","518","1421494","0.0-46.49-2.49","null","","","","","","","null","","","","","","","",""
"image-selector-fb","519","1423676","0.0-46.50-0.50","1667","pics2/SW5.jpg,pics2/FR2.jpg","","","","","","","true","1","","","heartS.png","","",""
"image-slider-2AFC","520","1426539","0.0-46.50-1.50","2859","","","","38","","","","","","","","heartS.png","1793","38",""
"html-keyboard-response","521","1427361","0.0-46.50-2.50","null","","","","","","","null","","","","","","","",""
"image-selector-fb","522","1430867","0.0-46.51-0.51","2992","pics2/FR3.jpg,pics2/SW4.jpg","","","","","","","false","0","","","sizeS.png","","",""
"image-slider-2AFC","523","1433633","0.0-46.51-1.51","2763","","","","-42","","","","","","","","heartS.png","1896","-42",""
"html-keyboard-response","524","1434444","0.0-46.51-2.51","null","","","","","","","null","","","","","","","",""
"image-selector-fb","525","1437475","0.0-46.52-0.52","null","pics2/SA5.jpg,pics2/SA3.jpg","","","","","","","false","null","","","noS.png","","",""
"image-slider-2AFC","526","1440608","0.0-46.52-1.52","3131","","","","-70","","","","","","","","heartS.png","2214","-70",""
"html-keyboard-response","527","1441480","0.0-46.52-2.52","null","","","","","","","null","","","","","","","",""
"image-selector-fb","528","1444507","0.0-46.53-0.53","null","pics2/SA5.jpg,pics2/FR2.jpg","","","","","","","false","null","","","noS.png","","",""
"image-slider-2AFC","529","1447885","0.0-46.53-1.53","3367","","","","-82","","","","","","","","heartS.png","2291","-82",""
"html-keyboard-response","530","1448702","0.0-46.53-2.53","null","","","","","","","null","","","","","","","",""
"image-selector-fb","531","1450499","0.0-46.54-0.54","1290","pics2/FR4.jpg,pics2/SW5.jpg","","","","","","","false","0","","","heartS.png","","",""
"image-slider-2AFC","532","1453578","0.0-46.54-1.54","3074","","","","-100","","","","","","","","heartS.png","2128","-100",""
"html-keyboard-response","533","1454450","0.0-46.54-2.54","null","","","","","","","null","","","","","","","",""
"image-selector-fb","534","1457120","0.0-46.55-0.55","2162","pics2/FR3.jpg,pics2/FR2.jpg","","","","","","","true","1","","","heartS.png","","",""
"image-slider-2AFC","535","1459666","0.0-46.55-1.55","2541","","","","18","","","","","","","","heartS.png","884,1870","45,18",""
"html-keyboard-response","536","1460489","0.0-46.55-2.55","null","","","","","","","null","","","","","","","",""
"image-selector-fb","537","1463861","0.0-46.56-0.56","2853","pics2/FR1.jpg,pics2/FR2.jpg","","","","","","","true","1","","","heartS.png","","",""
"image-slider-2AFC","538","1467501","0.0-46.56-1.56","3636","","","","-86","","","","","","","","sizeS.png","2421","-86",""
"html-keyboard-response","539","1468329","0.0-46.56-2.56","null","","","","","","","null","","","","","","","",""
"image-selector-fb","540","1470669","0.0-46.57-0.57","1832","pics2/SA4.jpg,pics2/SA5.jpg","","","","","","","true","1","","","heartS.png","","",""
"image-slider-2AFC","541","1474270","0.0-46.57-1.57","3596","","","","-12","","","","","","","","sizeS.png","2955","-12",""
"html-keyboard-response","542","1474977","0.0-46.57-2.57","null","","","","","","","null","","","","","","","",""
"image-selector-fb","543","1477910","0.0-46.58-0.58","2414","pics2/FR3.jpg,pics2/SA5.jpg","","","","","","","false","0","","","sizeS.png","","",""
"image-slider-2AFC","544","1481976","0.0-46.58-1.58","4062","","","","72","","","","","","","","heartS.png","3253","72",""
"html-keyboard-response","545","1482843","0.0-46.58-2.58","null","","","","","","","null","","","","","","","",""
"image-selector-fb","546","1484976","0.0-46.59-0.59","1624","pics2/SW5.jpg,pics2/FR1.jpg","","","","","","","true","1","","","sizeS.png","","",""
"image-slider-2AFC","547","1487995","0.0-46.59-1.59","3014","","","","49","","","","","","","","heartS.png","2275","49",""
"html-keyboard-response","548","1488852","0.0-46.59-2.59","null","","","","","","","null","","","","","","","",""
"image-selector-fb","549","1491872","0.0-46.60-0.60","null","pics2/FR1.jpg,pics2/VE5.jpg","","","","","","","false","null","","","noS.png","","",""
"image-slider-2AFC","550","1495819","0.0-46.60-1.60","3943","","","","-60","","","","","","","","heartS.png","3213","-60",""
"html-keyboard-response","551","1496600","0.0-46.60-2.60","null","","","","","","","null","","","","","","","",""
"image-selector-fb","552","1499625","0.0-46.61-0.61","null","pics2/FR4.jpg,pics2/FR2.jpg","","","","","","","false","null","","","noS.png","","",""
"image-slider-2AFC","553","1502947","0.0-46.61-1.61","3319","","","","93","","","","","","","","sizeS.png","2075","93",""
"html-keyboard-response","554","1503774","0.0-46.61-2.61","null","","","","","","","null","","","","","","","",""
"image-selector-fb","555","1505671","0.0-46.62-0.62","1390","pics2/SA5.jpg,pics2/SW5.jpg","","","","","","","false","0","","","heartS.png","","",""
"image-slider-2AFC","556","1509509","0.0-46.62-1.62","3834","","","","-72","","","","","","","","heartS.png","2767","-72",""
"html-keyboard-response","557","1510233","0.0-46.62-2.62","null","","","","","","","null","","","","","","","",""
"image-selector-fb","558","1512648","0.0-46.63-0.63","1896","pics2/FR1.jpg,pics2/VE5.jpg","","","","","","","true","1","","","heartS.png","","",""
"image-slider-2AFC","559","1515527","0.0-46.63-1.63","2875","","","","21","","","","","","","","heartS.png","2047","21",""
"html-keyboard-response","560","1516352","0.0-46.63-2.63","null","","","","","","","null","","","","","","","",""
"image-selector-fb","561","1518923","0.0-46.64-0.64","2060","pics2/SA5.jpg,pics2/FR4.jpg","","","","","","","true","1","","","sizeS.png","","",""
"image-slider-2AFC","562","1521121","0.0-46.64-1.64","2195","","","","29","","","","","","","","sizeS.png","1455","29",""
"html-keyboard-response","563","1521945","0.0-46.64-2.64","null","","","","","","","null","","","","","","","",""
"image-selector-fb","564","1524972","0.0-46.65-0.65","null","pics2/FR1.jpg,pics2/SA3.jpg","","","","","","","false","null","","","noS.png","","",""
"image-slider-2AFC","565","1528062","0.0-46.65-1.65","3086","","","","-80","","","","","","","","sizeS.png","2209","-80",""
"html-keyboard-response","566","1528877","0.0-46.65-2.65","null","","","","","","","null","","","","","","","",""
"pavlovia","567","1528949","0.0-47.0","","","","","","","","","","","","","","","",""
"html-keyboard-response","568","1533965","0.0-48.0","null","<div style='width: 700px;'> <font size=6><b>SHORT BREAK</font></b><br><br><i> Please wait 5 seconds to continue</i></div> ","","","","","","null","","","","","","","",""
"pavlovia","569","1533970","0.0-49.0","","","","","","","","","","","","","","","",""
"html-button-response","570","1559341","0.0-50.0","25369","<div style='width: 700px;'> <font size=6><b>BLOCK 3</font></b><br><br>Press the button whenever you feel ready to start the third and final block</div>","0","","","","","","","","","","","","",""
"image-selector-fb","571","1562366","0.0-51.0-0.0","null","pics2/SW1.jpg,pics2/SA4.jpg","","","","","","","false","null","","","noS.png","","",""
"image-slider-2AFC","572","1565438","0.0-51.0-1.0","3067","","","","-84","","","","","","","","heartS.png","2328","-84",""
"html-keyboard-response","573","1566257","0.0-51.0-2.0","null","","","","","","","null","","","","","","","",""
"image-selector-fb","574","1568656","0.0-51.1-0.1","1879","pics2/FR2.jpg,pics2/SW4.jpg","","","","","","","false","0","","","sizeS.png","","",""
"image-slider-2AFC","575","1571911","0.0-51.1-1.1","3250","","","","-59","","","","","","","","heartS.png","2411","-59",""
"html-keyboard-response","576","1572676","0.0-51.1-2.1","null","","","","","","","null","","","","","","","",""
"image-selector-fb","577","1574868","0.0-51.2-0.2","1685","pics2/SA4.jpg,pics2/FR3.jpg","","","","","","","true","1","","","heartS.png","","",""
"image-slider-2AFC","578","1576833","0.0-51.2-1.2","1962","","","","9","","","","","","","","heartS.png","1222","9",""
"html-keyboard-response","579","1577563","0.0-51.2-2.2","null","","","","","","","null","","","","","","","",""
"image-selector-fb","580","1580583","0.0-51.3-0.3","null","pics2/FR1.jpg,pics2/SW1.jpg","","","","","","","false","null","","","noS.png","","",""
"image-slider-2AFC","581","1584148","0.0-51.3-1.3","3561","","","","74","","","","","","","","sizeS.png","2604","74",""
"html-keyboard-response","582","1584853","0.0-51.3-2.3","null","","","","","","","null","","","","","","","",""
"image-selector-fb","583","1586783","0.0-51.4-0.4","1422","pics2/FR1.jpg,pics2/FR4.jpg","","","","","","","true","1","","","heartS.png","","",""
"image-slider-2AFC","584","1589170","0.0-51.4-1.4","2383","","","","93","","","","","","","","heartS.png","1307","93",""
"html-keyboard-response","585","1590041","0.0-51.4-2.4","null","","","","","","","null","","","","","","","",""
"image-selector-fb","586","1593067","0.0-51.5-0.5","null","pics2/SW3.jpg,pics2/SA3.jpg","","","","","","","false","null","","","noS.png","","",""
"image-slider-2AFC","587","1595465","0.0-51.5-1.5","2394","","","","-26","","","","","","","","heartS.png","1674","-26",""
"html-keyboard-response","588","1596181","0.0-51.5-2.5","null","","","","","","","null","","","","","","","",""
"image-selector-fb","589","1598553","0.0-51.6-0.6","1864","pics2/SW4.jpg,pics2/FR3.jpg","","","","","","","true","1","","","heartS.png","","",""
"image-slider-2AFC","590","1600053","0.0-51.6-1.6","1495","","","","23","","","","","","","","heartS.png","726","23",""
"html-keyboard-response","591","1600765","0.0-51.6-2.6","null","","","","","","","null","","","","","","","",""
"image-selector-fb","592","1603790","0.0-51.7-0.7","null","pics2/SA5.jpg,pics2/SW1.jpg","","","","","","","false","null","","","noS.png","","",""
"image-slider-2AFC","593","1606819","0.0-51.7-1.7","3024","","","","0","","","","","","","","heartS.png","2441","0",""
"html-keyboard-response","594","1607682","0.0-51.7-2.7","null","","","","","","","null","","","","","","","",""
"image-selector-fb","595","1609936","0.0-51.8-0.8","1747","pics2/FR2.jpg,pics2/SA4.jpg","","","","","","","false","0","","","sizeS.png","","",""
"image-slider-2AFC","596","1612394","0.0-51.8-1.8","2453","","","","-98","","","","","","","","sizeS.png","922","-98",""
"html-keyboard-response","597","1613213","0.0-51.8-2.8","null","","","","","","","null","","","","","","","",""
"image-selector-fb","598","1615162","0.0-51.9-0.9","1425","pics2/FR4.jpg,pics2/SW4.jpg","","","","","","","false","0","","","heartS.png","","",""
"image-slider-2AFC","599","1618314","0.0-51.9-1.9","3149","","","","-85","","","","","","","","heartS.png","2114","-85",""
"html-keyboard-response","600","1619140","0.0-51.9-2.9","null","","","","","","","null","","","","","","","",""
"image-selector-fb","601","1621132","0.0-51.10-0.10","1479","pics2/SW1.jpg,pics2/FR2.jpg","","","","","","","false","0","","","heartS.png","","",""
"image-slider-2AFC","602","1622992","0.0-51.10-1.10","1856","","","","-24","","","","","","","","heartS.png","1087","-24",""
"html-keyboard-response","603","1623807","0.0-51.10-2.10","null","","","","","","","null","","","","","","","",""
"image-selector-fb","604","1625583","0.0-51.11-0.11","1253","pics2/FR2.jpg,pics2/SW1.jpg","","","","","","","true","1","","","sizeS.png","","",""
"image-slider-2AFC","605","1627789","0.0-51.11-1.11","2203","","","","71","","","","","","","","sizeS.png","1256","71",""
"html-keyboard-response","606","1628607","0.0-51.11-2.11","null","","","","","","","null","","","","","","","",""
"image-selector-fb","607","1630926","0.0-51.12-0.12","1813","pics2/SA3.jpg,pics2/SA4.jpg","","","","","","","false","0","","","sizeS.png","","",""
"image-slider-2AFC","608","1633799","0.0-51.12-1.12","2870","","","","14","","","","","","","","heartS.png","1923","14",""
"html-keyboard-response","609","1634672","0.0-51.12-2.12","null","","","","","","","null","","","","","","","",""
"image-selector-fb","610","1637704","0.0-51.13-0.13","null","pics2/FR2.jpg,pics2/SA4.jpg","","","","","","","false","null","","","noS.png","","",""
"image-slider-2AFC","611","1640278","0.0-51.13-1.13","2570","","","","-63","","","","","","","","sizeS.png","1789","-63",""
"html-keyboard-response","612","1641097","0.0-51.13-2.13","null","","","","","","","null","","","","","","","",""
"image-selector-fb","613","1643606","0.0-51.14-0.14","1993","pics2/SW1.jpg,pics2/SA3.jpg","","","","","","","false","0","","","sizeS.png","","",""
"image-slider-2AFC","614","1645838","0.0-51.14-1.14","2229","","","","-70","","","","","","","","sizeS.png","1311","-70",""
"html-keyboard-response","615","1646658","0.0-51.14-2.14","null","","","","","","","null","","","","","","","",""
"image-selector-fb","616","1649684","0.0-51.15-0.15","null","pics2/FR3.jpg,pics2/SW4.jpg","","","","","","","false","null","","","noS.png","","",""
"image-slider-2AFC","617","1652869","0.0-51.15-1.15","3181","","","","-19","","","","","","","","sizeS.png","2253","-19",""
"html-keyboard-response","618","1653675","0.0-51.15-2.15","null","","","","","","","null","","","","","","","",""
"image-selector-fb","619","1656689","0.0-51.16-0.16","2507","pics2/SA4.jpg,pics2/SA3.jpg","","","","","","","false","0","","","heartS.png","","",""
"image-slider-2AFC","620","1658555","0.0-51.16-1.16","1860","","","","-16","","","","","","","","heartS.png","972","-16",""
"html-keyboard-response","621","1659378","0.0-51.16-2.16","null","","","","","","","null","","","","","","","",""
"image-selector-fb","622","1661939","0.0-51.17-0.17","2047","pics2/VE5.jpg,pics2/FR1.jpg","","","","","","","true","1","","","sizeS.png","","",""
"image-slider-2AFC","623","1664221","0.0-51.17-1.17","2278","","","","47","","","","","","","","sizeS.png","1636","47",""
"html-keyboard-response","624","1665034","0.0-51.17-2.17","null","","","","","","","null","","","","","","","",""
"image-selector-fb","625","1667495","0.0-51.18-0.18","1956","pics2/VE5.jpg,pics2/SW1.jpg","","","","","","","true","1","","","sizeS.png","","",""
"image-slider-2AFC","626","1670744","0.0-51.18-1.18","3243","","","","11","","","","","","","","heartS.png","2049,2660","19,11",""
"html-keyboard-response","627","1671512","0.0-51.18-2.18","null","","","","","","","null","","","","","","","",""
"image-selector-fb","628","1673724","0.0-51.19-0.19","1705","pics2/SW3.jpg,pics2/FR2.jpg","","","","","","","true","1","","","heartS.png","","",""
"image-slider-2AFC","629","1677002","0.0-51.19-1.19","3273","","","","94","","","","","","","","sizeS.png","2256","94",""
"html-keyboard-response","630","1677732","0.0-51.19-2.19","null","","","","","","","null","","","","","","","",""
"image-selector-fb","631","1680756","0.0-51.20-0.20","null","pics2/SW5.jpg,pics2/FR4.jpg","","","","","","","false","null","","","noS.png","","",""
"image-slider-2AFC","632","1684358","0.0-51.20-1.20","3597","","","","89","","","","","","","","heartS.png","1929","89",""
"html-keyboard-response","633","1685128","0.0-51.20-2.20","null","","","","","","","null","","","","","","","",""
"image-selector-fb","634","1687437","0.0-51.21-0.21","1801","pics2/FR4.jpg,pics2/SA4.jpg","","","","","","","false","0","","","sizeS.png","","",""
"image-slider-2AFC","635","1689500","0.0-51.21-1.21","2058","","","","-41","","","","","","","","sizeS.png","1506","-41",""
"html-keyboard-response","636","1690220","0.0-51.21-2.21","null","","","","","","","null","","","","","","","",""
"image-selector-fb","637","1692559","0.0-51.22-0.22","1832","pics2/SA4.jpg,pics2/SW5.jpg","","","","","","","false","0","","","heartS.png","","",""
"image-slider-2AFC","638","1695560","0.0-51.22-1.22","2997","","","","65","","","","","","","","sizeS.png","2118","65",""
"html-keyboard-response","639","1696387","0.0-51.22-2.22","null","","","","","","","null","","","","","","","",""
"image-selector-fb","640","1698776","0.0-51.23-0.23","1881","pics2/SW4.jpg,pics2/SW5.jpg","","","","","","","false","0","","","heartS.png","","",""
"image-slider-2AFC","641","1701530","0.0-51.23-1.23","2749","","","","-81","","","","","","","","sizeS.png","1841","-81",""
"html-keyboard-response","642","1702303","0.0-51.23-2.23","null","","","","","","","null","","","","","","","",""
"image-selector-fb","643","1705329","0.0-51.24-0.24","null","pics2/SW5.jpg,pics2/VE5.jpg","","","","","","","false","null","","","noS.png","","",""
"image-slider-2AFC","644","1709856","0.0-51.24-1.24","4521","","","","-8","","","","","","","","sizeS.png","3446","-8",""
"html-keyboard-response","645","1710585","0.0-51.24-2.24","null","","","","","","","null","","","","","","","",""
"image-selector-fb","646","1713612","0.0-51.25-0.25","null","pics2/FR1.jpg,pics2/FR2.jpg","","","","","","","false","null","","","noS.png","","",""
"image-slider-2AFC","647","1716167","0.0-51.25-1.25","2551","","","","-64","","","","","","","","sizeS.png","1791","-64",""
"html-keyboard-response","648","1716898","0.0-51.25-2.25","null","","","","","","","null","","","","","","","",""
"image-selector-fb","649","1719934","0.0-51.26-0.26","2522","pics2/FR2.jpg,pics2/VE5.jpg","","","","","","","false","0","","","sizeS.png","","",""
"image-slider-2AFC","650","1722011","0.0-51.26-1.26","2072","","","","-47","","","","","","","","sizeS.png","1204","-47",""
"html-keyboard-response","651","1722785","0.0-51.26-2.26","null","","","","","","","null","","","","","","","",""
"image-selector-fb","652","1724734","0.0-51.27-0.27","1442","pics2/FR3.jpg,pics2/FR1.jpg","","","","","","","true","1","","","sizeS.png","","",""
"image-slider-2AFC","653","1727764","0.0-51.27-1.27","3025","","","","29","","","","","","","","heartS.png","2365","29",""
"html-keyboard-response","654","1728469","0.0-51.27-2.27","null","","","","","","","null","","","","","","","",""
"image-selector-fb","655","1731951","0.0-51.28-0.28","2972","pics2/SW1.jpg,pics2/FR1.jpg","","","","","","","false","0","","","sizeS.png","","",""
"image-slider-2AFC","656","1734830","0.0-51.28-1.28","2876","","","","-16","","","","","","","","heartS.png","2165","-16",""
"html-keyboard-response","657","1735608","0.0-51.28-2.28","null","","","","","","","null","","","","","","","",""
"image-selector-fb","658","1739518","0.0-51.29-0.29","3403","pics2/SW3.jpg,pics2/SW1.jpg","","","","","","","true","1","","","sizeS.png","","",""
"image-slider-2AFC","659","1742589","0.0-51.29-1.29","3067","","","","37","","","","","","","","heartS.png","2268","37",""
"html-keyboard-response","660","1743348","0.0-51.29-2.29","null","","","","","","","null","","","","","","","",""
"image-selector-fb","661","1746367","0.0-51.30-0.30","null","pics2/FR4.jpg,pics2/VE5.jpg","","","","","","","false","null","","","noS.png","","",""
"image-slider-2AFC","662","1749349","0.0-51.30-1.30","2979","","","","-97","","","","","","","","heartS.png","2190","-97",""
"html-keyboard-response","663","1750115","0.0-51.30-2.30","null","","","","","","","null","","","","","","","",""
"image-selector-fb","664","1752812","0.0-51.31-0.31","2181","pics2/SW3.jpg,pics2/FR3.jpg","","","","","","","true","1","","","heartS.png","","",""
"image-slider-2AFC","665","1754826","0.0-51.31-1.31","2010","","","","5","","","","","","","","heartS.png","1399","5",""
"html-keyboard-response","666","1755596","0.0-51.31-2.31","null","","","","","","","null","","","","","","","",""
"image-selector-fb","667","1758631","0.0-51.32-0.32","null","pics2/FR4.jpg,pics2/FR1.jpg","","","","","","","false","null","","","noS.png","","",""
"image-slider-2AFC","668","1761967","0.0-51.32-1.32","3332","","","","-94","","","","","","","","heartS.png","2128","-94",""
"html-keyboard-response","669","1762839","0.0-51.32-2.32","null","","","","","","","null","","","","","","","",""
"image-selector-fb","670","1765213","0.0-51.33-0.33","1867","pics2/SA4.jpg,pics2/VE5.jpg","","","","","","","true","1","","","heartS.png","","",""
"image-slider-2AFC","671","1767257","0.0-51.33-1.33","2039","","","","29","","","","","","","","heartS.png","1330","29",""
"html-keyboard-response","672","1768018","0.0-51.33-2.33","null","","","","","","","null","","","","","","","",""
"image-selector-fb","673","1770878","0.0-51.34-0.34","2353","pics2/SW5.jpg,pics2/SW4.jpg","","","","","","","false","0","","","sizeS.png","","",""
"image-slider-2AFC","674","1773622","0.0-51.34-1.34","2740","","","","15","","","","","","","","heartS.png","2138","15",""
"html-keyboard-response","675","1774427","0.0-51.34-2.34","null","","","","","","","null","","","","","","","",""
"image-selector-fb","676","1776886","0.0-51.35-0.35","1944","pics2/FR1.jpg,pics2/SW3.jpg","","","","","","","false","0","","","heartS.png","","",""
"image-slider-2AFC","677","1779840","0.0-51.35-1.35","2949","","","","-88","","","","","","","","sizeS.png","1914","-88",""
"html-keyboard-response","678","1780662","0.0-51.35-2.35","null","","","","","","","null","","","","","","","",""
"image-selector-fb","679","1782317","0.0-51.36-0.36","1138","pics2/FR2.jpg,pics2/SA3.jpg","","","","","","","false","0","","","sizeS.png","","",""
"image-slider-2AFC","680","1784479","0.0-51.36-1.36","2156","","","","-94","","","","","","","","sizeS.png","1317","-94",""
"html-keyboard-response","681","1785199","0.0-51.36-2.36","null","","","","","","","null","","","","","","","",""
"image-selector-fb","682","1789166","0.0-51.37-0.37","3458","pics2/SW3.jpg,pics2/SW4.jpg","","","","","","","true","1","","","sizeS.png","","",""
"image-slider-2AFC","683","1790864","0.0-51.37-1.37","1693","","","","4","","","","","","","","sizeS.png","1081","4",""
"html-keyboard-response","684","1791578","0.0-51.37-2.37","null","","","","","","","null","","","","","","","",""
"image-selector-fb","685","1793356","0.0-51.38-0.38","1257","pics2/SA3.jpg,pics2/SW1.jpg","","","","","","","true","1","","","heartS.png","","",""
"image-slider-2AFC","686","1795592","0.0-51.38-1.38","2232","","","","66","","","","","","","","heartS.png","1373","66",""
"html-keyboard-response","687","1796409","0.0-51.38-2.38","null","","","","","","","null","","","","","","","",""
"image-selector-fb","688","1799430","0.0-51.39-0.39","null","pics2/SA5.jpg,pics2/SW4.jpg","","","","","","","false","null","","","noS.png","","",""
"image-slider-2AFC","689","1802515","0.0-51.39-1.39","3081","","","","81","","","","","","","","sizeS.png","2074","81",""
"html-keyboard-response","690","1803221","0.0-51.39-2.39","null","","","","","","","null","","","","","","","",""
"image-selector-fb","691","1805706","0.0-51.40-0.40","1965","pics2/SW1.jpg,pics2/VE5.jpg","","","","","","","false","0","","","heartS.png","","",""
"image-slider-2AFC","692","1809325","0.0-51.40-1.40","3615","","","","-80","","","","","","","","sizeS.png","2430","-80",""
"html-keyboard-response","693","1810056","0.0-51.40-2.40","null","","","","","","","null","","","","","","","",""
"image-selector-fb","694","1813086","0.0-51.41-0.41","null","pics2/FR2.jpg,pics2/SW1.jpg","","","","","","","false","null","","","noS.png","","",""
"image-slider-2AFC","695","1816337","0.0-51.41-1.41","3245","","","","88","","","","","","","","heartS.png","2249","88",""
"html-keyboard-response","696","1817155","0.0-51.41-2.41","null","","","","","","","null","","","","","","","",""
"image-selector-fb","697","1820187","0.0-51.42-0.42","null","pics2/SA4.jpg,pics2/SW3.jpg","","","","","","","false","null","","","noS.png","","",""
"image-slider-2AFC","698","1823126","0.0-51.42-1.42","2935","","","","39","","","","","","","","sizeS.png","2342","39",""
"html-keyboard-response","699","1823934","0.0-51.42-2.42","null","","","","","","","null","","","","","","","",""
"image-selector-fb","700","1826703","0.0-51.43-0.43","2256","pics2/VE5.jpg,pics2/SW3.jpg","","","","","","","false","0","","","heartS.png","","",""
"image-slider-2AFC","701","1830962","0.0-51.43-1.43","4253","","","","-12","","","","","","","","sizeS.png","3750","-12",""
"html-keyboard-response","702","1831777","0.0-51.43-2.43","null","","","","","","","null","","","","","","","",""
"image-selector-fb","703","1833917","0.0-51.44-0.44","1626","pics2/SW3.jpg,pics2/SW5.jpg","","","","","","","true","1","","","sizeS.png","","",""
"image-slider-2AFC","704","1836814","0.0-51.44-1.44","2890","","","","37","","","","","","","","sizeS.png","2101","37",""
"html-keyboard-response","705","1837676","0.0-51.44-2.44","null","","","","","","","null","","","","","","","",""
"image-selector-fb","706","1840714","0.0-51.45-0.45","null","pics2/SW4.jpg,pics2/VE5.jpg","","","","","","","false","null","","","noS.png","","",""
"image-slider-2AFC","707","1844555","0.0-51.45-1.45","3837","","","","-25","","","","","","","","sizeS.png","2475,3313","-49,-25",""
"html-keyboard-response","708","1845380","0.0-51.45-2.45","null","","","","","","","null","","","","","","","",""
"image-selector-fb","709","1847573","0.0-51.46-0.46","1677","pics2/SA3.jpg,pics2/FR2.jpg","","","","","","","true","1","","","heartS.png","","",""
