"trial_type","trial_index","time_elapsed","internal_node_id","rt","stimulus","button_pressed","success","response","cat","value","key_press","correct","image_click","first_click_rt","first_click_val","symbol","all_click_rt","all_click_val","view_history"
"pavlovia","0","10","0.0-0.0","","","","","","","","","","","","","","","",""
"html-button-response","1","4201","0.0-1.0","4190","<div style='width: 700px; font-size: 150%'><font size='40'>  Welcome to our study!</font><br><br><br> <small> Our experiment is about <i>decision making</i>. You will choose and rate different food items, such as these: <br><br> <div><img src='food_combo2.png', height = '400px'></img></div>","0","","","","","","","","","","","","",""
"html-button-response","2","9891","0.0-2.0","5689","<div style='width: 700px; font-size: 150%'><br><br><br><small> <u><i>This is a multi-part study.</i></u><br><br> In the first part you will rate 24 food items twice.<br><br><div><img src=""rat1.png"" style=""width: 25%""></img></div><br>In the second part (longest) you will make repeated choices and judgements concerning the food items.<br><br><div><img src=""mainx.png"" style=""width: 50%""></img></div><br>In the third and final part, you will rate the items again and answer few short questionnaires.<br><br><div><img src=""rat2.png"" style=""width: 50%""></img></div><br><br>","0","","","","","","","","","","","","",""
"fullscreen","3","20010","0.0-3.0","","","","true","","","","","","","","","","","",""
"html-button-response","4","42086","0.0-4.0","22073","<div style='width: 900px; font-size: 150%;' <font size='20%'> In the first part of the task you will use the mouse to rate food items on <i>2 scales</i> </font></div><br><br><div style='width: 900px'><div style='float: left; width: 50%; margin-right:2.5em'><img src='heartS.png'></img><p class='small' style='text-align: justify'>When you see the heart cue you will rate food items in terms of how much like them/would like to eat them <i>right now</i>. You will rate them on a continuous scale from left (strong dislike) to right (strong liking). Before submitting your rating, try imagining how the item tastes and how much you desire it.<br><br></p></div><div ><img src='sizeS.png'></img><p class='small' style='text-align: justify'>When you see the size cue, you will rate the same food items in terms of their size. The scale goes from left (tiny) to right (very large). You should assess picture size <i><u>relative</i></u> to the white background. <b>Remember:</b> rate the size of the picture, <u>not</u> the size of the item in real life. </p></div><div style='width: 900px'><br><br><b><i>Notice:</b> by starting the rating you agree that your sumbission might be rejected at an early stage and the experiment might end, if your size ratings are not at least modestly related to objective sizes, or if you repeat the same value ratings too many times. If you don't agree, please exit by closing the browser window. </i><br><br><br>","0","","","","","","","","","","","","",""
"html-button-response","5","46712","0.0-5.0","4625","<div><img src='heartS.png'></img></div><br><div style='text-align: justify; width: 700px'>Using the mouse, rate the <b><i>likeness</b></i> of the food items (how much you like them/would like to eat them <i>right now</i>). Far right-end of the scale indicates an item you <i>like a lot</i>. Far left-end indicates an item you <i>dislike a lot</i>. Think about each answer.   <ul><li>Try <b><i>not</b></i> to give identical rating to different items.</li><li>Use the whole scale, and <b><i>not</b></i> just the extremes</ul></div><br>","0","","","","","","","","","","","","",""
"image-slider-response","6","50823","0.0-6.0-0.0-0.0","4108","pics2/FR5.jpg","","","78","FR","","","","","","","","","",""
"image-slider-response","7","53948","0.0-6.0-0.0-0.1","2922","pics2/VE4.jpg","","","93","VE","","","","","","","","","",""
"image-slider-response","8","56432","0.0-6.0-0.0-0.2","2283","pics2/VE6.jpg","","","0","VE","","","","","","","","","",""
"image-slider-response","9","58435","0.0-6.0-0.0-0.3","1801","pics2/SW6.jpg","","","56","SW","","","","","","","","","",""
"image-slider-response","10","61182","0.0-6.0-0.0-0.4","2544","pics2/VE2.jpg","","","2","VE","","","","","","","","","",""
"image-slider-response","11","63728","0.0-6.0-0.0-0.5","2345","pics2/SW3.jpg","","","85","SW","","","","","","","","","",""
"image-slider-response","12","65966","0.0-6.0-0.0-0.6","2036","pics2/FR2.jpg","","","91","FR","","","","","","","","","",""
"image-slider-response","13","68265","0.0-6.0-0.0-0.7","2097","pics2/VE3.jpg","","","19","VE","","","","","","","","","",""
"image-slider-response","14","70675","0.0-6.0-0.0-0.8","2207","pics2/SA2.jpg","","","64","SA","","","","","","","","","",""
"image-slider-response","15","72728","0.0-6.0-0.0-0.9","1852","pics2/SA4.jpg","","","100","SA","","","","","","","","","",""
"image-slider-response","16","75778","0.0-6.0-0.0-0.10","2849","pics2/SA6.jpg","","","90","SA","","","","","","","","","",""
"image-slider-response","17","77703","0.0-6.0-0.0-0.11","1723","pics2/SA3.jpg","","","100","SA","","","","","","","","","",""
"image-slider-response","18","79854","0.0-6.0-0.0-0.12","1950","pics2/SW4.jpg","","","32","SW","","","","","","","","","",""
"image-slider-response","19","82330","0.0-6.0-0.0-0.13","2274","pics2/SA5.jpg","","","88","SA","","","","","","","","","",""
"image-slider-response","20","84374","0.0-6.0-0.0-0.14","1842","pics2/SW1.jpg","","","54","SW","","","","","","","","","",""
"image-slider-response","21","86472","0.0-6.0-0.0-0.15","1897","pics2/FR1.jpg","","","96","FR","","","","","","","","","",""
"image-slider-response","22","88828","0.0-6.0-0.0-0.16","2155","pics2/VE1.jpg","","","34","VE","","","","","","","","","",""
"image-slider-response","23","90975","0.0-6.0-0.0-0.17","1946","pics2/FR4.jpg","","","95","FR","","","","","","","","","",""
"image-slider-response","24","92946","0.0-6.0-0.0-0.18","1769","pics2/FR6.jpg","","","86","FR","","","","","","","","","",""
"image-slider-response","25","94817","0.0-6.0-0.0-0.19","1670","pics2/VE5.jpg","","","68","VE","","","","","","","","","",""
"image-slider-response","26","97212","0.0-6.0-0.0-0.20","2193","pics2/FR3.jpg","","","100","FR","","","","","","","","","",""
"image-slider-response","27","99777","0.0-6.0-0.0-0.21","2363","pics2/SA1.jpg","","","84","SA","","","","","","","","","",""
"image-slider-response","28","103390","0.0-6.0-0.0-0.22","3411","pics2/SW2.jpg","","","28","SW","","","","","","","","","",""
"image-slider-response","29","105373","0.0-6.0-0.0-0.23","1781","pics2/SW5.jpg","","","41","SW","","","","","","","","","",""
"html-button-response","30","106703","0.0-7.0","1128","<div style='width: 900px;'> <font size = 6><b> End of the first rating</b><br><br>","0","","","","","","","","","","","","",""
"html-button-response","31","115340","0.0-9.0","8637","<div ><img src='sizeS.png'></img></div><br><div style='text-align: justify; width: 700px'> Using the mouse, rate the <b><i>size</b></i> of the food items <b><i> relative to the white background.</b></i> Right-end of the scale indicates a <i>very large item</i>, which covers a large portion of the white rectangle. Left-end indicates a <i>very tiny</i> item which covers a tiny portion of the white rectangle.<br><br><i><u>Remember</i></u>: everything that is not the white background also contributes to item size (e.g. packing, plates, ect.)<br><br> Please keep in mind that if the accuracy of ratings do not allign well with actual sizes, the experiment will end.  As a result it will be consider incomplete and therefore no payment would be made. Good luck!<br><br></div><br>","0","","","","","","","","","","","","",""
"html-button-response","32","118191","0.0-10.0","2850","<div ><img src='sizeS.png'></img></div><br><b><font size=6>Examples of items that you might encounter</b><br><div style='width: 750px;'><div style='width: 33.33%; float:left'><br><br><br><i>Large Item</i><br><br><img src='large.jpg', width=200px></img></div><div style='float:right'><br><br><br><i>Small Item</i><br><br><img src='small.jpg', width=200px></img></div><div ><br><br><br><i>Medium Item</i><br><br><img src='med.jpg', width=200px></img></div></div><br><br>","0","","","","","","","","","","","","",""
"image-slider-response","33","120667","0.0-11.0-0.0-0.0","2475","pics2/SW5.jpg","","","86","null","","","","","","","","","",""
"image-slider-response","34","123377","0.0-11.0-0.0-0.1","2508","pics2/SA4.jpg","","","70","null","","","","","","","","","",""
"image-slider-response","35","125876","0.0-11.0-0.0-0.2","2299","pics2/SW4.jpg","","","83","null","","","","","","","","","",""
"image-slider-response","36","128537","0.0-11.0-0.0-0.3","2459","pics2/FR4.jpg","","","57","null","","","","","","","","","",""
"image-slider-response","37","131153","0.0-11.0-0.0-0.4","2414","pics2/SW2.jpg","","","92","null","","","","","","","","","",""
"image-slider-response","38","133148","0.0-11.0-0.0-0.5","1793","pics2/VE5.jpg","","","70","null","","","","","","","","","",""
"image-slider-response","39","135967","0.0-11.0-0.0-0.6","2618","pics2/VE2.jpg","","","82","null","","","","","","","","","",""
"image-slider-response","40","138127","0.0-11.0-0.0-0.7","1958","pics2/SA5.jpg","","","61","null","","","","","","","","","",""
"image-slider-response","41","140710","0.0-11.0-0.0-0.8","2382","pics2/VE6.jpg","","","57","null","","","","","","","","","",""
"image-slider-response","42","143157","0.0-11.0-0.0-0.9","2246","pics2/FR2.jpg","","","79","null","","","","","","","","","",""
"image-slider-response","43","144909","0.0-11.0-0.0-0.10","1549","pics2/SA3.jpg","","","63","null","","","","","","","","","",""
"image-slider-response","44","147225","0.0-11.0-0.0-0.11","2113","pics2/VE3.jpg","","","65","null","","","","","","","","","",""
"image-slider-response","45","149783","0.0-11.0-0.0-0.12","2356","pics2/SW6.jpg","","","53","null","","","","","","","","","",""
"image-slider-response","46","151885","0.0-11.0-0.0-0.13","1899","pics2/SW1.jpg","","","67","null","","","","","","","","","",""
"image-slider-response","47","153612","0.0-11.0-0.0-0.14","1525","pics2/FR3.jpg","","","63","null","","","","","","","","","",""
"image-slider-response","48","156052","0.0-11.0-0.0-0.15","2238","pics2/SA6.jpg","","","61","null","","","","","","","","","",""
"image-slider-response","49","157870","0.0-11.0-0.0-0.16","1617","pics2/FR5.jpg","","","60","null","","","","","","","","","",""
"image-slider-response","50","161597","0.0-11.0-0.0-0.17","3526","pics2/FR1.jpg","","","81","null","","","","","","","","","",""
"image-slider-response","51","163359","0.0-11.0-0.0-0.18","1560","pics2/VE4.jpg","","","67","null","","","","","","","","","",""
"image-slider-response","52","165740","0.0-11.0-0.0-0.19","2178","pics2/VE1.jpg","","","91","null","","","","","","","","","",""
"image-slider-response","53","167913","0.0-11.0-0.0-0.20","1971","pics2/SA1.jpg","","","95","null","","","","","","","","","",""
"image-slider-response","54","169981","0.0-11.0-0.0-0.21","1866","pics2/SW3.jpg","","","64","null","","","","","","","","","",""
"image-slider-response","55","171758","0.0-11.0-0.0-0.22","1576","pics2/FR6.jpg","","","48","null","","","","","","","","","",""
"image-slider-response","56","173343","0.0-11.0-0.0-0.23","1383","pics2/SA2.jpg","","","63","null","","","","","","","","","",""
"html-button-response","57","174501","0.0-12.0","956","<div style='width: 900px;'> <font size = 6><b> End of the second rating</b><br><br>","0","","","","","","","","","","","","",""
"html-button-response","58","177009","0.0-13.0","2506","<div style='width: 900px;'>Now please rate the items for the second time. <br><br>This is not a memory test - you don't need to be consistent with your previous ratings. Just as before, try to make accurate judgements.<br><br>","0","","","","","","","","","","","","",""
"html-button-response","59","178175","0.0-14.0","1166","<div><img src='heartS.png'></img></div><br><div style='text-align: justify; width: 700px'>Using the mouse, rate the <b><i>likeness</b></i> of the food items (how much you like them/would like to eat them <i>right now</i>). Far right-end of the scale indicates an item you <i>like a lot</i>. Far left-end indicates an item you <i>dislike a lot</i>. Think about each answer.   <ul><li>Try <b><i>not</b></i> to give identical rating to different items.</li><li>Use the whole scale, and <b><i>not</b></i> just the extremes</ul></div><br>","0","","","","","","","","","","","","",""
"image-slider-response","60","183364","0.0-15.0-0.0-0.0","5187","pics2/VE4.jpg","","","95","VE","","","","","","","","","",""
"image-slider-response","61","185145","0.0-15.0-0.0-0.1","1578","pics2/SW2.jpg","","","38","SW","","","","","","","","","",""
"image-slider-response","62","187821","0.0-15.0-0.0-0.2","2475","pics2/SA6.jpg","","","80","SA","","","","","","","","","",""
"image-slider-response","63","189640","0.0-15.0-0.0-0.3","1618","pics2/SA3.jpg","","","100","SA","","","","","","","","","",""
"image-slider-response","64","191520","0.0-15.0-0.0-0.4","1678","pics2/SA5.jpg","","","67","SA","","","","","","","","","",""
"image-slider-response","65","193182","0.0-15.0-0.0-0.5","1460","pics2/SW3.jpg","","","64","SW","","","","","","","","","",""
"image-slider-response","66","195242","0.0-15.0-0.0-0.6","1858","pics2/VE2.jpg","","","17","VE","","","","","","","","","",""
"image-slider-response","67","200486","0.0-15.0-0.0-0.7","5042","pics2/SA1.jpg","","","78","SA","","","","","","","","","",""
"image-slider-response","68","202284","0.0-15.0-0.0-0.8","1596","pics2/VE1.jpg","","","41","VE","","","","","","","","","",""
"image-slider-response","69","204135","0.0-15.0-0.0-0.9","1650","pics2/SW1.jpg","","","37","SW","","","","","","","","","",""
"image-slider-response","70","206988","0.0-15.0-0.0-0.10","2652","pics2/SW6.jpg","","","51","SW","","","","","","","","","",""
"image-slider-response","71","209222","0.0-15.0-0.0-0.11","2032","pics2/FR1.jpg","","","99","FR","","","","","","","","","",""
"image-slider-response","72","211213","0.0-15.0-0.0-0.12","1789","pics2/VE3.jpg","","","19","VE","","","","","","","","","",""
"image-slider-response","73","213290","0.0-15.0-0.0-0.13","1875","pics2/SA4.jpg","","","100","SA","","","","","","","","","",""
"image-slider-response","74","215560","0.0-15.0-0.0-0.14","2068","pics2/FR6.jpg","","","64","FR","","","","","","","","","",""
"image-slider-response","75","217432","0.0-15.0-0.0-0.15","1670","pics2/VE6.jpg","","","0","VE","","","","","","","","","",""
"image-slider-response","76","220268","0.0-15.0-0.0-0.16","2634","pics2/FR3.jpg","","","100","FR","","","","","","","","","",""
"image-slider-response","77","222379","0.0-15.0-0.0-0.17","1908","pics2/FR4.jpg","","","98","FR","","","","","","","","","",""
"image-slider-response","78","224509","0.0-15.0-0.0-0.18","1928","pics2/FR5.jpg","","","67","FR","","","","","","","","","",""
"image-slider-response","79","227070","0.0-15.0-0.0-0.19","2359","pics2/SW4.jpg","","","25","SW","","","","","","","","","",""
"image-slider-response","80","228733","0.0-15.0-0.0-0.20","1462","pics2/FR2.jpg","","","69","FR","","","","","","","","","",""
"image-slider-response","81","230775","0.0-15.0-0.0-0.21","1839","pics2/VE5.jpg","","","38","VE","","","","","","","","","",""
"image-slider-response","82","233777","0.0-15.0-0.0-0.22","2800","pics2/SW5.jpg","","","31","SW","","","","","","","","","",""
"image-slider-response","83","235279","0.0-15.0-0.0-0.23","1300","pics2/SA2.jpg","","","76","SA","","","","","","","","","",""
"call-function","84","235486","0.0-16.0","","","","","","","","","","","","","","","",""
"call-function","85","235487","0.0-17.0","","","","","","","","","","","","","","","",""
"html-button-response","86","236372","0.0-18.0","883","<div style='width: 900px;'> <font size = 6><b> End of the first rating</b><br><br>","0","","","","","","","","","","","","",""
"html-button-response","87","237353","0.0-19.0","981","<div ><img src='sizeS.png'></img></div><br><div style='text-align: justify; width: 700px'> Using the mouse, rate the <b><i>size</b></i> of the food items <b><i> relative to the white background.</b></i> Right-end of the scale indicates a <i>very large item</i>, which covers a large portion of the white rectangle. Left-end indicates a <i>very tiny</i> item which covers a tiny portion of the white rectangle.<br><br><i><u>Remember</i></u>: everything that is not the white background also contributes to item size (e.g. packing, plates, ect.)<br><br> Please keep in mind that if the accuracy of ratings do not allign well with actual sizes, the experiment will end.  As a result it will be consider incomplete and therefore no payment would be made. Good luck!<br><br></div><br>","0","","","","","","","","","","","","",""
"image-slider-response","88","239849","0.0-20.0-0.0-0.0","2494","pics2/VE1.jpg","","","93","null","","","","","","","","","",""
"image-slider-response","89","241642","0.0-20.0-0.0-0.1","1591","pics2/FR3.jpg","","","81","null","","","","","","","","","",""
"image-slider-response","90","244442","0.0-20.0-0.0-0.2","2599","pics2/FR6.jpg","","","41","null","","","","","","","","","",""
"image-slider-response","91","245957","0.0-20.0-0.0-0.3","1313","pics2/VE2.jpg","","","59","null","","","","","","","","","",""
"image-slider-response","92","247558","0.0-20.0-0.0-0.4","1399","pics2/SA2.jpg","","","57","null","","","","","","","","","",""
"image-slider-response","93","249143","0.0-20.0-0.0-0.5","1383","pics2/SA6.jpg","","","62","null","","","","","","","","","",""
"image-slider-response","94","250855","0.0-20.0-0.0-0.6","1509","pics2/VE5.jpg","","","56","null","","","","","","","","","",""
"image-slider-response","95","254196","0.0-20.0-0.0-0.7","3140","pics2/VE4.jpg","","","49","null","","","","","","","","","",""
"image-slider-response","96","255851","0.0-20.0-0.0-0.8","1452","pics2/SW5.jpg","","","54","null","","","","","","","","","",""
"image-slider-response","97","257550","0.0-20.0-0.0-0.9","1497","pics2/SW1.jpg","","","62","null","","","","","","","","","",""
"image-slider-response","98","261167","0.0-20.0-0.0-0.10","3415","pics2/FR4.jpg","","","56","null","","","","","","","","","",""
"image-slider-response","99","262940","0.0-20.0-0.0-0.11","1571","pics2/SW6.jpg","","","44","null","","","","","","","","","",""
"image-slider-response","100","264739","0.0-20.0-0.0-0.12","1596","pics2/FR5.jpg","","","57","null","","","","","","","","","",""
"image-slider-response","101","266154","0.0-20.0-0.0-0.13","1214","pics2/FR2.jpg","","","68","null","","","","","","","","","",""
"image-slider-response","102","267863","0.0-20.0-0.0-0.14","1507","pics2/SW2.jpg","","","56","null","","","","","","","","","",""
"image-slider-response","103","269837","0.0-20.0-0.0-0.15","1772","pics2/VE6.jpg","","","36","null","","","","","","","","","",""
"image-slider-response","104","271709","0.0-20.0-0.0-0.16","1670","pics2/SA4.jpg","","","41","null","","","","","","","","","",""
"image-slider-response","105","273384","0.0-20.0-0.0-0.17","1473","pics2/SA5.jpg","","","38","null","","","","","","","","","",""
"image-slider-response","106","276097","0.0-20.0-0.0-0.18","2511","pics2/SA3.jpg","","","54","null","","","","","","","","","",""
"image-slider-response","107","277559","0.0-20.0-0.0-0.19","1260","pics2/FR1.jpg","","","65","null","","","","","","","","","",""
"image-slider-response","108","279542","0.0-20.0-0.0-0.20","1781","pics2/VE3.jpg","","","70","null","","","","","","","","","",""
"image-slider-response","109","281217","0.0-20.0-0.0-0.21","1472","pics2/SW4.jpg","","","75","null","","","","","","","","","",""
"image-slider-response","110","283019","0.0-20.0-0.0-0.22","1600","pics2/SA1.jpg","","","86","null","","","","","","","","","",""
"image-slider-response","111","284956","0.0-20.0-0.0-0.23","1735","pics2/SW3.jpg","","","68","null","","","","","","","","","",""
"call-function","112","285159","0.0-21.0","","","","","","","","","","","","","","","",""
"html-button-response","113","286229","0.0-22.0","1070","<div style='width: 900px;'> <font size = 6><b> End of the second rating</b><br><br>","0","","","","","","","","","","","","",""
"pavlovia","114","286236","0.0-23.0","","","","","","","","","","","","","","","",""
"html-keyboard-response","115","291239","0.0-24.0","null","<div style='width: 700px;'> <font size=6><b>SHORT BREAK</font></b><br><br><i> Please wait 5 seconds to continue</i></div> ","","","","","","null","","","","","","","",""
"pavlovia","116","291240","0.0-25.0","","","","","","","","","","","","","","","",""
"html-button-response","117","297070","0.0-26.0","5829","<div style='width: 700px;'>In the main part of the study, you will be choosing between 2 items. When it's time to choose,  this symbol will appear: <br><br><img src='chooseS.png'></img><br><br>Below, a cue will signify the type of choice: </div><br><div style='width: 700px;'><div style='float: left; width: 50%'><img src='heartS.png'></img><p class='small'>Heart cue means you should choose the item you <b><i>prefer</b></i> more.</p></div><div class='float: right; width:50%'><img src='sizeS.png'></img><p class='small'>Size cue means you should choose the <b><i>larger</b></i> item. </p></div></div><br><div style='width: 700px;'>When you click, a green square will appear around the item you chose.<br></div><div><br>","0","","","","","","","","","","","","",""
"image-selector-fb-tut","118","300816","0.0-27.0","2743","0232.jpg,0123.jpg","","","","","","","false","0","","","","","",""
"image-selector-fb-tut","119","304109","0.0-28.0","2290","0232.jpg,0123.jpg","","","","","","","false","0","","","","","",""
"html-button-response","120","307145","0.0-29.0","3035","<div style='width: 900px;'>Your choices should be both <b><i>fast and accurate</b></i>. <br><br>You will have <i>4 seconds</i> to make each choice, which should be enough consider the options and click on one of the items.<br><br>","0","","","","","","","","","","","","",""
"html-button-response","121","311043","0.0-30.0","3897","<div style='width: 900px;'>Additionally, on some choice trials you will see the <b><i>no-choice cue</b></i>: <br><br><img src='noS.png'></img> <br><br>This cue means you can't make any choice. You can examine the items, but  can't click on any of them. Just wait patiently for the cue to dissapear.<br><br>","0","","","","","","","","","","","","",""
"image-selector-fb-tut","122","313046","0.0-31.0","null","0232.jpg,0123.jpg","","","","","","","false","null","","","","","",""
"html-button-response","123","321316","0.0-32.0","8268","<div style='width: 900px;'>After each choice the items will remain on the screen and you will see this symbol: <br><br><img src='judgeS.png'></img> <br><br>This means you should rate<b> the magnitude of the difference</b> between the items using a scale: </div><br><div style='width: 900px; '><div style='float: left; width: 50%; margin-right: 2.5em; align-self:left'><img src='heartS.png'></img><p class='small' style = 'text-align: justify;'>Heart cue means you should rate <b>how much you prefer</b> one of the items over the other. Moving the scale indicator to the left means you prefer the left one; moving it to the right - right one. The more you prefer one of them, the more towards that side you should move the scale indicator. </p></div><div class='float: right; width: 50%; margin-left: 2.5em;'><img src='sizeS.png'></img><p class='small' style='text-align: justify'>Size cue means you should rate <b>how much larger</b> is one of the items over the other. Moving the scale indicator to the left means you think the left is larger; moving it to the right - right one. The greater the difference in size, the more towards that side you should move the scale indicator.</div><br>","0","","","","","","","","","","","","",""
"image-slider-2AFC-tut","124","325294","0.0-33.0","3977","","","","12","","","","","","3141","12","","","",""
"image-slider-2AFC-tut","125","328843","0.0-34.0","3548","","","","26","","","","","","2801","26","","","",""
"html-button-response","126","335167","0.0-35.0","6323","<br><br><font size = 36><b> Examples </b></font><br><br><i> 1) I would like to eat some croissants a <b>lot more</b> than doritos right now:</i><br><img src='ex1.PNG', width='62%'></img><br><br><br><i> 2) I would like to eat some doritos a <b>bit more</b> than croissants right now, but just slightly:</i><br><img src='ex2.PNG' width='62%'></img>","0","","","","","","","","","","","","",""
"html-button-response","127","338201","0.0-36.0","3033","<div style='width: 900px;'><i>Now you know everything you need to do the task!</i> <br><br>Let's start by doing a <b>short training</b>, so you'll get used to how it works. </div><br>","0","","","","","","","","","","","","",""
"image-selector-fb","128","342365","0.0-37.0-0.0","3660","pics2/FR5.jpg,pics2/VE5.jpg","","","","","","","true","1","","","sizeS.png","","",""
"image-slider-2AFC","129","345660","0.0-37.0-1.0","3292","","","","-47","","","","","","","","heartS.png","2693","-47",""
"html-keyboard-response","130","346512","0.0-37.0-2.0","null","","","","","","","null","","","","","","","",""
"image-selector-fb","131","349516","0.0-37.1-0.1","null","pics2/VE5.jpg,pics2/SW6.jpg","","","","","","","false","null","","","noS.png","","",""
"image-slider-2AFC","132","352635","0.0-37.1-1.1","3118","","","","-10","","","","","","","","heartS.png","2174","-10",""
"html-keyboard-response","133","353336","0.0-37.1-2.1","null","","","","","","","null","","","","","","","",""
"image-selector-fb","134","356339","0.0-37.2-0.2","null","pics2/VE5.jpg,pics2/SW2.jpg","","","","","","","false","null","","","noS.png","","",""
"image-slider-2AFC","135","359454","0.0-37.2-1.2","3114","","","","30","","","","","","","","sizeS.png","2453","30",""
"html-keyboard-response","136","360206","0.0-37.2-2.2","null","","","","","","","null","","","","","","","",""
"image-selector-fb","137","363210","0.0-37.3-0.3","null","pics2/SA2.jpg,pics2/VE1.jpg","","","","","","","false","null","","","noS.png","","",""
"image-slider-2AFC","138","366345","0.0-37.3-1.3","3134","","","","-19","","","","","","","","heartS.png","2375","-19",""
"html-keyboard-response","139","367148","0.0-37.3-2.3","null","","","","","","","null","","","","","","","",""
"image-selector-fb","140","370154","0.0-37.4-0.4","null","pics2/SW1.jpg,pics2/SW2.jpg","","","","","","","false","null","","","noS.png","","",""
"image-slider-2AFC","141","374678","0.0-37.4-1.4","4523","","","","-27","","","","","","","","heartS.png","3472","-27",""
"html-keyboard-response","142","375531","0.0-37.4-2.4","null","","","","","","","null","","","","","","","",""
"image-selector-fb","143","380035","0.0-37.5-0.5","null","pics2/FR5.jpg,pics2/SA2.jpg","","","","","","","false","null","","","sizeS.png","","",""
"image-slider-2AFC","144","380035","0.0-37.5-1.5","null","","","","null","","","","","","","","sizeS.png","","",""
"html-keyboard-response","145","380888","0.0-37.5-2.5","null","","","","","","","null","","","","","","","",""
"image-selector-fb","146","383415","0.0-37.6-0.6","2024","pics2/VE2.jpg,pics2/SW2.jpg","","","","","","","true","1","","","sizeS.png","","",""
"image-slider-2AFC","147","385988","0.0-37.6-1.6","2572","","","","19","","","","","","","","heartS.png","1767","19",""
"html-keyboard-response","148","386740","0.0-37.6-2.6","null","","","","","","","null","","","","","","","",""
"image-selector-fb","149","389611","0.0-37.7-0.7","2368","pics2/FR5.jpg,pics2/VE6.jpg","","","","","","","false","0","","","sizeS.png","","",""
"image-slider-2AFC","150","392636","0.0-37.7-1.7","3024","","","","-83","","","","","","","","heartS.png","1465","-63",""
"html-keyboard-response","151","393438","0.0-37.7-2.7","null","","","","","","","null","","","","","","","",""
"image-selector-fb","152","395472","0.0-37.8-0.8","1532","pics2/VE2.jpg,pics2/SW4.jpg","","","","","","","false","0","","","sizeS.png","","",""
"image-slider-2AFC","153","400474","0.0-37.8-1.8","null","","","","null","","","","","","","","sizeS.png","","",""
"html-keyboard-response","154","401326","0.0-37.8-2.8","null","","","","","","","null","","","","","","","",""
"image-selector-fb","155","403910","0.0-37.9-0.9","2081","pics2/VE2.jpg,pics2/SW1.jpg","","","","","","","false","0","","","sizeS.png","","",""
"image-slider-2AFC","156","406910","0.0-37.9-1.9","2998","","","","-37","","","","","","","","sizeS.png","2437","-37",""
"html-keyboard-response","157","407612","0.0-37.9-2.9","null","","","","","","","null","","","","","","","",""
"image-selector-fb","158","410615","0.0-37.10-0.10","null","pics2/SW2.jpg,pics2/SA2.jpg","","","","","","","false","null","","","noS.png","","",""
"image-slider-2AFC","159","413446","0.0-37.10-1.10","2830","","","","-91","","","","","","","","sizeS.png","2042","-91",""
"html-keyboard-response","160","414198","0.0-37.10-2.10","null","","","","","","","null","","","","","","","",""
"image-selector-fb","161","417203","0.0-37.11-0.11","null","pics2/SW1.jpg,pics2/SW5.jpg","","","","","","","false","null","","","noS.png","","",""
"image-slider-2AFC","162","420309","0.0-37.11-1.11","3105","","","","-74","","","","","","","","sizeS.png","2550","-74",""
"html-keyboard-response","163","421112","0.0-37.11-2.11","null","","","","","","","null","","","","","","","",""
"html-button-response","164","423117","0.0-38.0","2004","<i><font size=10>Good job!</font></i> <br><br>Before we begin, you have a chance to review the rules, in case something was not clear.<br><br>","0","","","","","","","","","","","","",""
"instructions","165","426299","0.0-39.0","3182","","","","","","","","","","","","","","","[{""page_index"":0,""viewing_time"":1223},{""page_index"":1,""viewing_time"":990},{""page_index"":2,""viewing_time"":969}]"
"html-button-response","166","431075","0.0-40.0","4775","<div style='width: 900px;'> <font size='40'>Great! Now you're ready to begin</font><br><br>The main part of the experiment will consist of <u>3 blocks</u>. Each block consists of 66 decisions and judgements. You will have time for a short break between blocks.<br><br><br><i><u>Do your best to respond within the time limit.</u></i><br><br><i> Press the button to start the experiment<br><br></i>","0","","","","","","","","","","","","",""
"image-selector-fb","167","434078","0.0-41.0-0.0","null","pics2/SA5.jpg,pics2/FR2.jpg","","","","","","","false","null","","","noS.png","","",""
"image-slider-2AFC","168","437382","0.0-41.0-1.0","3302","","","","58","","","","","","","","sizeS.png","2691","58",""
"html-keyboard-response","169","438134","0.0-41.0-2.0","null","","","","","","","null","","","","","","","",""
"image-selector-fb","170","441140","0.0-41.1-0.1","null","pics2/FR6.jpg,pics2/SA6.jpg","","","","","","","false","null","","","noS.png","","",""
"image-slider-2AFC","171","444676","0.0-41.1-1.1","3536","","","","-85","","","","","","","","heartS.png","2847","-85",""
"html-keyboard-response","172","445529","0.0-41.1-2.1","null","","","","","","","null","","","","","","","",""
"image-selector-fb","173","448143","0.0-41.2-0.2","2111","pics2/FR3.jpg,pics2/SA3.jpg","","","","","","","false","0","","","heartS.png","","",""
"image-slider-2AFC","174","453146","0.0-41.2-1.2","null","","","","null","","","","","","","","heartS.png","","",""
"html-keyboard-response","175","453947","0.0-41.2-2.2","null","","","","","","","null","","","","","","","",""
"image-selector-fb","176","456089","0.0-41.3-0.3","1640","pics2/FR6.jpg,pics2/VE4.jpg","","","","","","","true","1","","","heartS.png","","",""
"image-slider-2AFC","177","458836","0.0-41.3-1.3","2746","","","","21","","","","","","","","sizeS.png","2059","21",""
"html-keyboard-response","178","459639","0.0-41.3-2.3","null","","","","","","","null","","","","","","","",""
"image-selector-fb","179","461259","0.0-41.4-0.4","1117","pics2/VE4.jpg,pics2/SA3.jpg","","","","","","","false","0","","","sizeS.png","","",""
"image-slider-2AFC","180","466261","0.0-41.4-1.4","null","","","","null","","","","","","","","heartS.png","","",""
"html-keyboard-response","181","467064","0.0-41.4-2.4","null","","","","","","","null","","","","","","","",""
"image-selector-fb","182","469042","0.0-41.5-0.5","1477","pics2/FR3.jpg,pics2/SA4.jpg","","","","","","","true","1","","","heartS.png","","",""
"image-slider-2AFC","183","471238","0.0-41.5-1.5","2195","","","","-51","","","","","","","","sizeS.png","1571","-51",""
"html-keyboard-response","184","471990","0.0-41.5-2.5","null","","","","","","","null","","","","","","","",""
"image-selector-fb","185","474995","0.0-41.6-0.6","null","pics2/SA1.jpg,pics2/FR2.jpg","","","","","","","false","null","","","noS.png","","",""
"image-slider-2AFC","186","478566","0.0-41.6-1.6","3570","","","","81","","","","","","","","heartS.png","2855","81",""
"html-keyboard-response","187","479367","0.0-41.6-2.6","null","","","","","","","null","","","","","","","",""
"image-selector-fb","188","481626","0.0-41.7-0.7","1756","pics2/SA6.jpg,pics2/FR4.jpg","","","","","","","true","1","","","sizeS.png","","",""
"image-slider-2AFC","189","484276","0.0-41.7-1.7","2649","","","","42","","","","","","","","heartS.png","2025","42",""
"html-keyboard-response","190","485129","0.0-41.7-2.7","null","","","","","","","null","","","","","","","",""
"image-selector-fb","191","486818","0.0-41.8-0.8","1187","pics2/FR3.jpg,pics2/FR4.jpg","","","","","","","false","0","","","heartS.png","","",""
"image-slider-2AFC","192","490205","0.0-41.8-1.8","3386","","","","-65","","","","","","","","heartS.png","1346,2733","-99,-65",""
"html-keyboard-response","193","491007","0.0-41.8-2.8","null","","","","","","","null","","","","","","","",""
"image-selector-fb","194","493210","0.0-41.9-0.9","1701","pics2/FR1.jpg,pics2/SW3.jpg","","","","","","","true","1","","","heartS.png","","",""
"image-slider-2AFC","195","494799","0.0-41.9-1.9","1589","","","","34","","","","","","","","heartS.png","944","34",""
"html-keyboard-response","196","495501","0.0-41.9-2.9","null","","","","","","","null","","","","","","","",""
"image-selector-fb","197","498504","0.0-41.10-0.10","null","pics2/SA1.jpg,pics2/FR6.jpg","","","","","","","false","null","","","noS.png","","",""
"image-slider-2AFC","198","502285","0.0-41.10-1.10","3780","","","","-64","","","","","","","","sizeS.png","3033","-64",""
"html-keyboard-response","199","503138","0.0-41.10-2.10","null","","","","","","","null","","","","","","","",""
"image-selector-fb","200","506142","0.0-41.11-0.11","null","pics2/SA4.jpg,pics2/SA3.jpg","","","","","","","false","null","","","noS.png","","",""
"image-slider-2AFC","201","509473","0.0-41.11-1.11","3330","","","","-89","","","","","","","","heartS.png","2517","-89",""
"html-keyboard-response","202","510174","0.0-41.11-2.11","null","","","","","","","null","","","","","","","",""
"image-selector-fb","203","513179","0.0-41.12-0.12","null","pics2/SA3.jpg,pics2/SA1.jpg","","","","","","","false","null","","","noS.png","","",""
"image-slider-2AFC","204","515457","0.0-41.12-1.12","2277","","","","-40","","","","","","","","heartS.png","1716","-40",""
"html-keyboard-response","205","516308","0.0-41.12-2.12","null","","","","","","","null","","","","","","","",""
"image-selector-fb","206","519603","0.0-41.13-0.13","2793","pics2/VE4.jpg,pics2/SA6.jpg","","","","","","","false","0","","","sizeS.png","","",""
"image-slider-2AFC","207","521570","0.0-41.13-1.13","1966","","","","-35","","","","","","","","sizeS.png","1218","-35",""
"html-keyboard-response","208","522423","0.0-41.13-2.13","null","","","","","","","null","","","","","","","",""
"image-selector-fb","209","524234","0.0-41.14-0.14","1309","pics2/FR3.jpg,pics2/SA6.jpg","","","","","","","false","0","","","heartS.png","","",""
"image-slider-2AFC","210","529236","0.0-41.14-1.14","null","","","","null","","","","","","","","sizeS.png","","",""
"html-keyboard-response","211","529989","0.0-41.14-2.14","null","","","","","","","null","","","","","","","",""
"image-selector-fb","212","532816","0.0-41.15-0.15","2321","pics2/SW3.jpg,pics2/FR6.jpg","","","","","","","false","0","","","sizeS.png","","",""
"image-slider-2AFC","213","535187","0.0-41.15-1.15","2368","","","","-16","","","","","","","","heartS.png","1474","-16",""
"html-keyboard-response","214","536040","0.0-41.15-2.15","null","","","","","","","null","","","","","","","",""
"image-selector-fb","215","539045","0.0-41.16-0.16","null","pics2/FR4.jpg,pics2/FR3.jpg","","","","","","","false","null","","","noS.png","","",""
"image-slider-2AFC","216","542123","0.0-41.16-1.16","3076","","","","-55","","","","","","","","sizeS.png","2436","-55",""
"html-keyboard-response","217","542825","0.0-41.16-2.16","null","","","","","","","null","","","","","","","",""
"image-selector-fb","218","544867","0.0-41.17-0.17","1539","pics2/SA4.jpg,pics2/SA6.jpg","","","","","","","false","0","","","heartS.png","","",""
"image-slider-2AFC","219","546741","0.0-41.17-1.17","1873","","","","0","","","","","","","","sizeS.png","1405","0",""
"html-keyboard-response","220","547594","0.0-41.17-2.17","null","","","","","","","null","","","","","","","",""
"image-selector-fb","221","550069","0.0-41.18-0.18","1971","pics2/VE4.jpg,pics2/FR4.jpg","","","","","","","true","1","","","sizeS.png","","",""
"image-slider-2AFC","222","552312","0.0-41.18-1.18","2242","","","","-9","","","","","","","","heartS.png","1168","-9",""
"html-keyboard-response","223","553114","0.0-41.18-2.18","null","","","","","","","null","","","","","","","",""
"image-selector-fb","224","556932","0.0-41.19-0.19","3316","pics2/FR2.jpg,pics2/VE4.jpg","","","","","","","true","1","","","heartS.png","","",""
"image-slider-2AFC","225","558844","0.0-41.19-1.19","1911","","","","-61","","","","","","","","sizeS.png","1183","-61",""
"html-keyboard-response","226","559546","0.0-41.19-2.19","null","","","","","","","null","","","","","","","",""
"image-selector-fb","227","562363","0.0-41.20-0.20","2315","pics2/VE4.jpg,pics2/SA5.jpg","","","","","","","false","0","","","sizeS.png","","",""
"image-slider-2AFC","228","564013","0.0-41.20-1.20","1648","","","","-13","","","","","","","","heartS.png","1065","-13",""
"html-keyboard-response","229","564865","0.0-41.20-2.20","null","","","","","","","null","","","","","","","",""
"image-selector-fb","230","567869","0.0-41.21-0.21","null","pics2/VE4.jpg,pics2/SA1.jpg","","","","","","","false","null","","","noS.png","","",""
"image-slider-2AFC","231","570738","0.0-41.21-1.21","2869","","","","83","","","","","","","","sizeS.png","2006","83",""
"html-keyboard-response","232","571591","0.0-41.21-2.21","null","","","","","","","null","","","","","","","",""
"image-selector-fb","233","574595","0.0-41.22-0.22","null","pics2/VE4.jpg,pics2/SA6.jpg","","","","","","","false","null","","","noS.png","","",""
"image-slider-2AFC","234","577190","0.0-41.22-1.22","2594","","","","-35","","","","","","","","heartS.png","2058","-35",""
"html-keyboard-response","235","577893","0.0-41.22-2.22","null","","","","","","","null","","","","","","","",""
"image-selector-fb","236","580697","0.0-41.23-0.23","2299","pics2/SA6.jpg,pics2/FR3.jpg","","","","","","","true","1","","","sizeS.png","","",""
"image-slider-2AFC","237","582466","0.0-41.23-1.23","1767","","","","51","","","","","","","","sizeS.png","1188","51",""
"html-keyboard-response","238","583168","0.0-41.23-2.23","null","","","","","","","null","","","","","","","",""
"image-selector-fb","239","585687","0.0-41.24-0.24","2016","pics2/FR1.jpg,pics2/FR3.jpg","","","","","","","true","1","","","sizeS.png","","",""
"image-slider-2AFC","240","587521","0.0-41.24-1.24","1833","","","","27","","","","","","","","heartS.png","1300","27",""
"html-keyboard-response","241","588373","0.0-41.24-2.24","null","","","","","","","null","","","","","","","",""
"image-selector-fb","242","590428","0.0-41.25-0.25","1551","pics2/FR4.jpg,pics2/SW3.jpg","","","","","","","true","1","","","heartS.png","","",""
"image-slider-2AFC","243","592633","0.0-41.25-1.25","2204","","","","31","","","","","","","","sizeS.png","1621","31",""
"html-keyboard-response","244","593435","0.0-41.25-2.25","null","","","","","","","null","","","","","","","",""
"image-selector-fb","245","596466","0.0-41.26-0.26","null","pics2/FR1.jpg,pics2/SA6.jpg","","","","","","","false","null","","","noS.png","","",""
"image-slider-2AFC","246","599322","0.0-41.26-1.26","2855","","","","-53","","","","","","","","sizeS.png","2268","-53",""
"html-keyboard-response","247","600174","0.0-41.26-2.26","null","","","","","","","null","","","","","","","",""
"image-selector-fb","248","602477","0.0-41.27-0.27","1800","pics2/VE4.jpg,pics2/SA1.jpg","","","","","","","true","1","","","sizeS.png","","",""
"image-slider-2AFC","249","604197","0.0-41.27-1.27","1719","","","","-19","","","","","","","","heartS.png","1260","-19",""
"html-keyboard-response","250","605049","0.0-41.27-2.27","null","","","","","","","null","","","","","","","",""
"image-selector-fb","251","608053","0.0-41.28-0.28","null","pics2/SW3.jpg,pics2/SA3.jpg","","","","","","","false","null","","","noS.png","","",""
"image-slider-2AFC","252","610439","0.0-41.28-1.28","2385","","","","-45","","","","","","","","sizeS.png","1778","-45",""
"html-keyboard-response","253","611291","0.0-41.28-2.28","null","","","","","","","null","","","","","","","",""
"image-selector-fb","254","613400","0.0-41.29-0.29","1606","pics2/SA5.jpg,pics2/SA1.jpg","","","","","","","false","0","","","heartS.png","","",""
"image-slider-2AFC","255","615460","0.0-41.29-1.29","2059","","","","41","","","","","","","","sizeS.png","1495","41",""
"html-keyboard-response","256","616313","0.0-41.29-2.29","null","","","","","","","null","","","","","","","",""
"image-selector-fb","257","619317","0.0-41.30-0.30","null","pics2/FR2.jpg,pics2/SA6.jpg","","","","","","","false","null","","","noS.png","","",""
"image-slider-2AFC","258","623518","0.0-41.30-1.30","4199","","","","-19","","","","","","","","heartS.png","3719","-19",""
"html-keyboard-response","259","624369","0.0-41.30-2.30","null","","","","","","","null","","","","","","","",""
"image-selector-fb","260","626272","0.0-41.31-0.31","1401","pics2/SA1.jpg,pics2/VE4.jpg","","","","","","","false","0","","","heartS.png","","",""
"image-slider-2AFC","261","630871","0.0-41.31-1.31","4598","","","","30","","","","","","","","heartS.png","2313,3613","-19,30",""
"html-keyboard-response","262","631723","0.0-41.31-2.31","null","","","","","","","null","","","","","","","",""
"image-selector-fb","263","633866","0.0-41.32-0.32","1640","pics2/FR4.jpg,pics2/SA4.jpg","","","","","","","false","0","","","heartS.png","","",""
"image-slider-2AFC","264","635925","0.0-41.32-1.32","2058","","","","-25","","","","","","","","sizeS.png","1516","-25",""
"html-keyboard-response","265","636677","0.0-41.32-2.32","null","","","","","","","null","","","","","","","",""
"image-selector-fb","266","639680","0.0-41.33-0.33","null","pics2/SW3.jpg,pics2/FR1.jpg","","","","","","","false","null","","","noS.png","","",""
"image-slider-2AFC","267","642581","0.0-41.33-1.33","2900","","","","-19","","","","","","","","sizeS.png","2457","-19",""
"html-keyboard-response","268","643333","0.0-41.33-2.33","null","","","","","","","null","","","","","","","",""
"image-selector-fb","269","646336","0.0-41.34-0.34","null","pics2/SA5.jpg,pics2/FR6.jpg","","","","","","","false","null","","","noS.png","","",""
"image-slider-2AFC","270","650228","0.0-41.34-1.34","3892","","","","-19","","","","","","","","heartS.png","3427","-19",""
"html-keyboard-response","271","651080","0.0-41.34-2.34","null","","","","","","","null","","","","","","","",""
"image-selector-fb","272","653876","0.0-41.35-0.35","2291","pics2/SA6.jpg,pics2/FR6.jpg","","","","","","","true","1","","","sizeS.png","","",""
"image-slider-2AFC","273","655364","0.0-41.35-1.35","1487","","","","16","","","","","","","","sizeS.png","958","16",""
"html-keyboard-response","274","656216","0.0-41.35-2.35","null","","","","","","","null","","","","","","","",""
"image-selector-fb","275","658214","0.0-41.36-0.36","1494","pics2/FR2.jpg,pics2/FR3.jpg","","","","","","","false","0","","","heartS.png","","",""
"image-slider-2AFC","276","660324","0.0-41.36-1.36","2108","","","","7","","","","","","","","heartS.png","1690","7",""
"html-keyboard-response","277","661124","0.0-41.36-2.36","null","","","","","","","null","","","","","","","",""
"image-selector-fb","278","663452","0.0-41.37-0.37","1825","pics2/VE4.jpg,pics2/FR3.jpg","","","","","","","true","1","","","sizeS.png","","",""
"image-slider-2AFC","279","664891","0.0-41.37-1.37","1438","","","","21","","","","","","","","sizeS.png","975","21",""
"html-keyboard-response","280","665644","0.0-41.37-2.37","null","","","","","","","null","","","","","","","",""
"image-selector-fb","281","667643","0.0-41.38-0.38","1495","pics2/FR2.jpg,pics2/SA3.jpg","","","","","","","true","1","","","heartS.png","","",""
"image-slider-2AFC","282","669461","0.0-41.38-1.38","1817","","","","-19","","","","","","","","sizeS.png","902","-19",""
"html-keyboard-response","283","670313","0.0-41.38-2.38","null","","","","","","","null","","","","","","","",""
"image-selector-fb","284","673318","0.0-41.39-0.39","null","pics2/VE4.jpg,pics2/FR3.jpg","","","","","","","false","null","","","noS.png","","",""
"image-slider-2AFC","285","677378","0.0-41.39-1.39","4057","","","","20","","","","","","","","sizeS.png","3474","20",""
"html-keyboard-response","286","678231","0.0-41.39-2.39","null","","","","","","","null","","","","","","","",""
"image-selector-fb","287","681234","0.0-41.40-0.40","null","pics2/SA5.jpg,pics2/FR1.jpg","","","","","","","false","null","","","noS.png","","",""
"image-slider-2AFC","288","685414","0.0-41.40-1.40","4179","","","","-16","","","","","","","","heartS.png","2857","-16",""
"html-keyboard-response","289","686267","0.0-41.40-2.40","null","","","","","","","null","","","","","","","",""
"image-selector-fb","290","689754","0.0-41.41-0.41","2983","pics2/FR6.jpg,pics2/SA6.jpg","","","","","","","false","0","","","heartS.png","","",""
"image-slider-2AFC","291","691768","0.0-41.41-1.41","2013","","","","-12","","","","","","","","heartS.png","1528","-12",""
"html-keyboard-response","292","692471","0.0-41.41-2.41","null","","","","","","","null","","","","","","","",""
"image-selector-fb","293","693845","0.0-41.42-0.42","872","pics2/FR4.jpg,pics2/FR3.jpg","","","","","","","true","1","","","sizeS.png","","",""
"image-slider-2AFC","294","695533","0.0-41.42-1.42","1685","","","","16","","","","","","","","sizeS.png","1183","16",""
"html-keyboard-response","295","696285","0.0-41.42-2.42","null","","","","","","","null","","","","","","","",""
"image-selector-fb","296","698128","0.0-41.43-0.43","1339","pics2/FR6.jpg,pics2/SA3.jpg","","","","","","","true","1","","","heartS.png","","",""
"image-slider-2AFC","297","700200","0.0-41.43-1.43","2070","","","","26","","","","","","","","sizeS.png","1586","26",""
"html-keyboard-response","298","700951","0.0-41.43-2.43","null","","","","","","","null","","","","","","","",""
"image-selector-fb","299","702704","0.0-41.44-0.44","1250","pics2/SA5.jpg,pics2/FR6.jpg","","","","","","","false","0","","","sizeS.png","","",""
"image-slider-2AFC","300","704712","0.0-41.44-1.44","2006","","","","-10","","","","","","","","heartS.png","1554","-10",""
"html-keyboard-response","301","705464","0.0-41.44-2.44","null","","","","","","","null","","","","","","","",""
"image-selector-fb","302","707956","0.0-41.45-0.45","1989","pics2/FR6.jpg,pics2/SA5.jpg","","","","","","","true","1","","","heartS.png","","",""
"image-slider-2AFC","303","710008","0.0-41.45-1.45","2051","","","","10","","","","","","","","sizeS.png","1525","10",""
"html-keyboard-response","304","710861","0.0-41.45-2.45","null","","","","","","","null","","","","","","","",""
"image-selector-fb","305","712305","0.0-41.46-0.46","941","pics2/FR3.jpg,pics2/FR6.jpg","","","","","","","false","0","","","sizeS.png","","",""
"image-slider-2AFC","306","713971","0.0-41.46-1.46","1665","","","","-28","","","","","","","","sizeS.png","1176","-28",""
"html-keyboard-response","307","714724","0.0-41.46-2.46","null","","","","","","","null","","","","","","","",""
"image-selector-fb","308","717119","0.0-41.47-0.47","1893","pics2/SA3.jpg,pics2/FR6.jpg","","","","","","","false","0","","","sizeS.png","","",""
"image-slider-2AFC","309","718712","0.0-41.47-1.47","1591","","","","15","","","","","","","","heartS.png","1064","15",""
"html-keyboard-response","310","719513","0.0-41.47-2.47","null","","","","","","","null","","","","","","","",""
"image-selector-fb","311","722008","0.0-41.48-0.48","1993","pics2/SW3.jpg,pics2/FR3.jpg","","","","","","","false","0","","","sizeS.png","","",""
"image-slider-2AFC","312","723383","0.0-41.48-1.48","1375","","","","10","","","","","","","","heartS.png","936","10",""
"html-keyboard-response","313","724184","0.0-41.48-2.48","null","","","","","","","null","","","","","","","",""
"image-selector-fb","314","727194","0.0-41.49-0.49","2506","pics2/SA1.jpg,pics2/FR1.jpg","","","","","","","true","1","","","sizeS.png","","",""
"image-slider-2AFC","315","730301","0.0-41.49-1.49","3106","","","","1","","","","","","","","sizeS.png","2655","1",""
"html-keyboard-response","316","731003","0.0-41.49-2.49","null","","","","","","","null","","","","","","","",""
"image-selector-fb","317","735085","0.0-41.50-0.50","3579","pics2/FR6.jpg,pics2/FR2.jpg","","","","","","","false","0","","","heartS.png","","",""
"image-slider-2AFC","318","737510","0.0-41.50-1.50","2424","","","","18","","","","","","","","sizeS.png","1894","18",""
"html-keyboard-response","319","738261","0.0-41.50-2.50","null","","","","","","","null","","","","","","","",""
"image-selector-fb","320","741091","0.0-41.51-0.51","2328","pics2/FR2.jpg,pics2/SA5.jpg","","","","","","","false","0","","","heartS.png","","",""
"image-slider-2AFC","321","743665","0.0-41.51-1.51","2572","","","","-26","","","","","","","","sizeS.png","1973","-26",""
"html-keyboard-response","322","744468","0.0-41.51-2.51","null","","","","","","","null","","","","","","","",""
"image-selector-fb","323","747473","0.0-41.52-0.52","null","pics2/FR1.jpg,pics2/FR2.jpg","","","","","","","false","null","","","noS.png","","",""
"image-slider-2AFC","324","751666","0.0-41.52-1.52","4192","","","","-27","","","","","","","","sizeS.png","3264","-27",""
"html-keyboard-response","325","752517","0.0-41.52-2.52","null","","","","","","","null","","","","","","","",""
"image-selector-fb","326","755522","0.0-41.53-0.53","null","pics2/FR1.jpg,pics2/FR6.jpg","","","","","","","false","null","","","noS.png","","",""
"image-slider-2AFC","327","758247","0.0-41.53-1.53","2724","","","","-31","","","","","","","","heartS.png","2221","-31",""
"html-keyboard-response","328","759100","0.0-41.53-2.53","null","","","","","","","null","","","","","","","",""
"image-selector-fb","329","760645","0.0-41.54-0.54","1043","pics2/SA6.jpg,pics2/SW3.jpg","","","","","","","true","1","","","sizeS.png","","",""
"image-slider-2AFC","330","763141","0.0-41.54-1.54","2495","","","","48","","","","","","","","sizeS.png","1789","48",""
"html-keyboard-response","331","763893","0.0-41.54-2.54","null","","","","","","","null","","","","","","","",""
"image-selector-fb","332","765814","0.0-41.55-0.55","1418","pics2/SW3.jpg,pics2/SA1.jpg","","","","","","","false","0","","","sizeS.png","","",""
"image-slider-2AFC","333","767153","0.0-41.55-1.55","1337","","","","-26","","","","","","","","sizeS.png","852","-26",""
"html-keyboard-response","334","767855","0.0-41.55-2.55","null","","","","","","","null","","","","","","","",""
"image-selector-fb","335","770013","0.0-41.56-0.56","1655","pics2/FR3.jpg,pics2/SW3.jpg","","","","","","","false","0","","","heartS.png","","",""
"image-slider-2AFC","336","771869","0.0-41.56-1.56","1852","","","","38","","","","","","","","sizeS.png","1194","38",""
"html-keyboard-response","337","772672","0.0-41.56-2.56","null","","","","","","","null","","","","","","","",""
"image-selector-fb","338","775677","0.0-41.57-0.57","null","pics2/FR4.jpg,pics2/SA6.jpg","","","","","","","false","null","","","noS.png","","",""
"image-slider-2AFC","339","778887","0.0-41.57-1.57","3209","","","","-21","","","","","","","","heartS.png","2619","-21",""
"html-keyboard-response","340","779590","0.0-41.57-2.57","null","","","","","","","null","","","","","","","",""
"image-selector-fb","341","780908","0.0-41.58-0.58","815","pics2/FR4.jpg,pics2/FR1.jpg","","","","","","","false","0","","","heartS.png","","",""
"image-slider-2AFC","342","782242","0.0-41.58-1.58","1332","","","","-22","","","","","","","","sizeS.png","773","-22",""
"html-keyboard-response","343","783045","0.0-41.58-2.58","null","","","","","","","null","","","","","","","",""
"image-selector-fb","344","784665","0.0-41.59-0.59","1116","pics2/SA6.jpg,pics2/SA1.jpg","","","","","","","true","1","","","sizeS.png","","",""
"image-slider-2AFC","345","787540","0.0-41.59-1.59","2874","","","","0","","","","","","","","heartS.png","2440","0",""
"html-keyboard-response","346","788342","0.0-41.59-2.59","null","","","","","","","null","","","","","","","",""
"image-selector-fb","347","790924","0.0-41.60-0.60","2079","pics2/SA5.jpg,pics2/SA3.jpg","","","","","","","true","1","","","heartS.png","","",""
"image-slider-2AFC","348","792471","0.0-41.60-1.60","1546","","","","21","","","","","","","","sizeS.png","988","21",""
"html-keyboard-response","349","793222","0.0-41.60-2.60","null","","","","","","","null","","","","","","","",""
"image-selector-fb","350","794532","0.0-41.61-0.61","808","pics2/SA1.jpg,pics2/SA4.jpg","","","","","","","false","0","","","sizeS.png","","",""
"image-slider-2AFC","351","796441","0.0-41.61-1.61","1906","","","","-36","","","","","","","","sizeS.png","1381","-36",""
"html-keyboard-response","352","797294","0.0-41.61-2.61","null","","","","","","","null","","","","","","","",""
"image-selector-fb","353","799045","0.0-41.62-0.62","1246","pics2/FR1.jpg,pics2/SA3.jpg","","","","","","","true","1","","","heartS.png","","",""
"image-slider-2AFC","354","800673","0.0-41.62-1.62","1627","","","","47","","","","","","","","sizeS.png","836","47",""
"html-keyboard-response","355","801526","0.0-41.62-2.62","null","","","","","","","null","","","","","","","",""
"image-selector-fb","356","803137","0.0-41.63-0.63","1108","pics2/SA5.jpg,pics2/FR4.jpg","","","","","","","true","1","","","sizeS.png","","",""
"image-slider-2AFC","357","805587","0.0-41.63-1.63","2448","","","","39","","","","","","","","sizeS.png","1508","39",""
"html-keyboard-response","358","806389","0.0-41.63-2.63","null","","","","","","","null","","","","","","","",""
"image-selector-fb","359","808173","0.0-41.64-0.64","1281","pics2/FR4.jpg,pics2/SA5.jpg","","","","","","","false","0","","","heartS.png","","",""
"image-slider-2AFC","360","809401","0.0-41.64-1.64","1226","","","","-24","","","","","","","","heartS.png","779","-24",""
"html-keyboard-response","361","810153","0.0-41.64-2.64","null","","","","","","","null","","","","","","","",""
"image-selector-fb","362","812425","0.0-41.65-0.65","1769","pics2/SW3.jpg,pics2/FR2.jpg","","","","","","","false","0","","","sizeS.png","","",""
"image-slider-2AFC","363","815006","0.0-41.65-1.65","2580","","","","-19","","","","","","","","sizeS.png","2170","-19",""
"html-keyboard-response","364","815709","0.0-41.65-2.65","null","","","","","","","null","","","","","","","",""
"pavlovia","365","815718","0.0-42.0","","","","","","","","","","","","","","","",""
"html-keyboard-response","366","820719","0.0-43.0","null","<div style='width: 700px;'> <font size=6><b>SHORT BREAK</font></b><br><br><i> Please wait 5 seconds to continue</i></div> ","","","","","","null","","","","","","","",""
"pavlovia","367","820723","0.0-44.0","","","","","","","","","","","","","","","",""
"html-button-response","368","925282","0.0-45.0","104559","<div style='width: 700px;'> <font size=6><b>BLOCK 2</font></b><br><br>Press the button whenever you feel ready to start the second block (there are 3 in total)</div>","0","","","","","","","","","","","","",""
"image-selector-fb","369","927835","0.0-46.0-0.0","2050","pics2/VE4.jpg,pics2/FR6.jpg","","","","","","","false","0","","","sizeS.png","","",""
"image-slider-2AFC","370","930350","0.0-46.0-1.0","2514","","","","0","","","","","","","","sizeS.png","2087","0",""
"html-keyboard-response","371","931101","0.0-46.0-2.0","null","","","","","","","null","","","","","","","",""
"image-selector-fb","372","933228","0.0-46.1-0.1","1624","pics2/SA5.jpg,pics2/SA6.jpg","","","","","","","false","0","","","heartS.png","","",""
"image-slider-2AFC","373","935642","0.0-46.1-1.1","2413","","","","-5","","","","","","","","heartS.png","1904","-5",""
"html-keyboard-response","374","936344","0.0-46.1-2.1","null","","","","","","","null","","","","","","","",""
"image-selector-fb","375","937838","0.0-46.2-0.2","991","pics2/SA1.jpg,pics2/FR6.jpg","","","","","","","false","0","","","sizeS.png","","",""
"image-slider-2AFC","376","939735","0.0-46.2-1.2","1896","","","","-6","","","","","","","","sizeS.png","1296","-6",""
"html-keyboard-response","377","940488","0.0-46.2-2.2","null","","","","","","","null","","","","","","","",""
"image-selector-fb","378","943287","0.0-46.3-0.3","2296","pics2/FR2.jpg,pics2/SA4.jpg","","","","","","","true","1","","","heartS.png","","",""
"image-slider-2AFC","379","945179","0.0-46.3-1.3","1890","","","","54","","","","","","","","heartS.png","1222","54",""
"html-keyboard-response","380","945931","0.0-46.3-2.3","null","","","","","","","null","","","","","","","",""
"image-selector-fb","381","947462","0.0-46.4-0.4","1028","pics2/FR2.jpg,pics2/FR6.jpg","","","","","","","false","0","","","sizeS.png","","",""
"image-slider-2AFC","382","951153","0.0-46.4-1.4","3690","","","","-2","","","","","","","","heartS.png","3052","-2",""
"html-keyboard-response","383","951856","0.0-46.4-2.4","null","","","","","","","null","","","","","","","",""
"image-selector-fb","384","954872","0.0-46.5-0.5","null","pics2/SA4.jpg,pics2/FR6.jpg","","","","","","","false","null","","","noS.png","","",""
"image-slider-2AFC","385","958065","0.0-46.5-1.5","3192","","","","-95","","","","","","","","heartS.png","2371","-95",""
"html-keyboard-response","386","958768","0.0-46.5-2.5","null","","","","","","","null","","","","","","","",""
"image-selector-fb","387","960878","0.0-46.6-0.6","1607","pics2/SA1.jpg,pics2/SW3.jpg","","","","","","","false","0","","","heartS.png","","",""
"image-slider-2AFC","388","963508","0.0-46.6-1.6","2630","","","","-2","","","","","","","","sizeS.png","2185","-2",""
"html-keyboard-response","389","964361","0.0-46.6-2.6","null","","","","","","","null","","","","","","","",""
"image-selector-fb","390","967363","0.0-46.7-0.7","null","pics2/SA4.jpg,pics2/FR4.jpg","","","","","","","false","null","","","noS.png","","",""
"image-slider-2AFC","391","969879","0.0-46.7-1.7","2514","","","","49","","","","","","","","sizeS.png","1939","49",""
"html-keyboard-response","392","970580","0.0-46.7-2.7","null","","","","","","","null","","","","","","","",""
"image-selector-fb","393","973190","0.0-46.8-0.8","2107","pics2/SA3.jpg,pics2/VE4.jpg","","","","","","","true","1","","","heartS.png","","",""
"image-slider-2AFC","394","975882","0.0-46.8-1.8","2691","","","","-29","","","","","","","","sizeS.png","2002","-29",""
"html-keyboard-response","395","976734","0.0-46.8-2.8","null","","","","","","","null","","","","","","","",""
"image-selector-fb","396","978796","0.0-46.9-0.9","1560","pics2/FR4.jpg,pics2/FR6.jpg","","","","","","","false","0","","","sizeS.png","","",""
"image-slider-2AFC","397","980869","0.0-46.9-1.9","2069","","","","-37","","","","","","","","sizeS.png","1491","-37",""
"html-keyboard-response","398","981720","0.0-46.9-2.9","null","","","","","","","null","","","","","","","",""
"image-selector-fb","399","983845","0.0-46.10-0.10","1621","pics2/SW3.jpg,pics2/FR1.jpg","","","","","","","false","0","","","sizeS.png","","",""
"image-slider-2AFC","400","986385","0.0-46.10-1.10","2539","","","","11","","","","","","","","heartS.png","1878","11",""
"html-keyboard-response","401","987187","0.0-46.10-2.10","null","","","","","","","null","","","","","","","",""
"image-selector-fb","402","990193","0.0-46.11-0.11","null","pics2/SA4.jpg,pics2/SA1.jpg","","","","","","","false","null","","","noS.png","","",""
"image-slider-2AFC","403","993652","0.0-46.11-1.11","3458","","","","-43","","","","","","","","heartS.png","2424","-43",""
"html-keyboard-response","404","994354","0.0-46.11-2.11","null","","","","","","","null","","","","","","","",""
"image-selector-fb","405","997357","0.0-46.12-0.12","null","pics2/SW3.jpg,pics2/SA5.jpg","","","","","","","false","null","","","noS.png","","",""
"image-slider-2AFC","406","999887","0.0-46.12-1.12","2529","","","","-41","","","","","","","","heartS.png","1897","-41",""
"html-keyboard-response","407","1000689","0.0-46.12-2.12","null","","","","","","","null","","","","","","","",""
"image-selector-fb","408","1002811","0.0-46.13-0.13","1619","pics2/SA5.jpg,pics2/FR1.jpg","","","","","","","true","1","","","sizeS.png","","",""
"image-slider-2AFC","409","1005327","0.0-46.13-1.13","2515","","","","-17","","","","","","","","heartS.png","2013","-17",""
"html-keyboard-response","410","1006079","0.0-46.13-2.13","null","","","","","","","null","","","","","","","",""
"image-selector-fb","411","1009084","0.0-46.14-0.14","null","pics2/SA1.jpg,pics2/SA5.jpg","","","","","","","false","null","","","noS.png","","",""
"image-slider-2AFC","412","1011533","0.0-46.14-1.14","2447","","","","18","","","","","","","","heartS.png","1967","18",""
"html-keyboard-response","413","1012235","0.0-46.14-2.14","null","","","","","","","null","","","","","","","",""
"image-selector-fb","414","1015239","0.0-46.15-0.15","null","pics2/FR1.jpg,pics2/FR3.jpg","","","","","","","false","null","","","noS.png","","",""
"image-slider-2AFC","415","1017457","0.0-46.15-1.15","2217","","","","36","","","","","","","","heartS.png","1692","36",""
"html-keyboard-response","416","1018259","0.0-46.15-2.15","null","","","","","","","null","","","","","","","",""
"image-selector-fb","417","1021264","0.0-46.16-0.16","null","pics2/SW3.jpg,pics2/FR2.jpg","","","","","","","false","null","","","noS.png","","",""
"image-slider-2AFC","418","1024073","0.0-46.16-1.16","2808","","","","-23","","","","","","","","heartS.png","2123","-23",""
"html-keyboard-response","419","1024875","0.0-46.16-2.16","null","","","","","","","null","","","","","","","",""
"image-selector-fb","420","1026890","0.0-46.17-0.17","1513","pics2/SA6.jpg,pics2/SA3.jpg","","","","","","","true","1","","","sizeS.png","","",""
"image-slider-2AFC","421","1029003","0.0-46.17-1.17","2112","","","","14","","","","","","","","heartS.png","1612","14",""
"html-keyboard-response","422","1029805","0.0-46.17-2.17","null","","","","","","","null","","","","","","","",""
"image-selector-fb","423","1031853","0.0-46.18-0.18","1546","pics2/SA6.jpg,pics2/SA5.jpg","","","","","","","false","0","","","sizeS.png","","",""
"image-slider-2AFC","424","1034525","0.0-46.18-1.18","2671","","","","-11","","","","","","","","heartS.png","2153","-11",""
"html-keyboard-response","425","1035326","0.0-46.18-2.18","null","","","","","","","null","","","","","","","",""
"image-selector-fb","426","1037141","0.0-46.19-0.19","1312","pics2/SA4.jpg,pics2/FR4.jpg","","","","","","","true","1","","","sizeS.png","","",""
"image-slider-2AFC","427","1039849","0.0-46.19-1.19","2706","","","","-61","","","","","","","","heartS.png","1221","-61",""
"html-keyboard-response","428","1040552","0.0-46.19-2.19","null","","","","","","","null","","","","","","","",""
"image-selector-fb","429","1043559","0.0-46.20-0.20","null","pics2/SA3.jpg,pics2/SA5.jpg","","","","","","","false","null","","","noS.png","","",""
"image-slider-2AFC","430","1046077","0.0-46.20-1.20","2517","","","","3","","","","","","","","sizeS.png","2073","3",""
"html-keyboard-response","431","1046779","0.0-46.20-2.20","null","","","","","","","null","","","","","","","",""
"image-selector-fb","432","1049790","0.0-46.21-0.21","null","pics2/SA3.jpg,pics2/FR1.jpg","","","","","","","false","null","","","noS.png","","",""
"image-slider-2AFC","433","1053473","0.0-46.21-1.21","3682","","","","-28","","","","","","","","heartS.png","2472","-28",""
"html-keyboard-response","434","1054176","0.0-46.21-2.21","null","","","","","","","null","","","","","","","",""
"image-selector-fb","435","1056134","0.0-46.22-0.22","1455","pics2/VE4.jpg,pics2/SW3.jpg","","","","","","","true","1","","","sizeS.png","","",""
"image-slider-2AFC","436","1057902","0.0-46.22-1.22","1767","","","","39","","","","","","","","sizeS.png","1250","39",""
"html-keyboard-response","437","1058703","0.0-46.22-2.22","null","","","","","","","null","","","","","","","",""
"image-selector-fb","438","1061082","0.0-46.23-0.23","1876","pics2/SW3.jpg,pics2/SA3.jpg","","","","","","","true","1","","","heartS.png","","",""
"image-slider-2AFC","439","1065292","0.0-46.23-1.23","4208","","","","-40","","","","","","","","sizeS.png","3540","-40",""
"html-keyboard-response","440","1066093","0.0-46.23-2.23","null","","","","","","","null","","","","","","","",""
"image-selector-fb","441","1069096","0.0-46.24-0.24","null","pics2/SA4.jpg,pics2/SA5.jpg","","","","","","","false","null","","","noS.png","","",""
"image-slider-2AFC","442","1073904","0.0-46.24-1.24","4806","","","","-2","","","","","","","","sizeS.png","2438,3743,4359","-20,-6,-2",""
"html-keyboard-response","443","1074605","0.0-46.24-2.24","null","","","","","","","null","","","","","","","",""
"image-selector-fb","444","1076934","0.0-46.25-0.25","1826","pics2/FR6.jpg,pics2/FR1.jpg","","","","","","","true","1","","","heartS.png","","",""
"image-slider-2AFC","445","1079597","0.0-46.25-1.25","2663","","","","22","","","","","","","","heartS.png","2114","22",""
"html-keyboard-response","446","1080300","0.0-46.25-2.25","null","","","","","","","null","","","","","","","",""
"image-selector-fb","447","1082179","0.0-46.26-0.26","1377","pics2/SA1.jpg,pics2/SA3.jpg","","","","","","","true","1","","","heartS.png","","",""
"image-slider-2AFC","448","1086428","0.0-46.26-1.26","4248","","","","9","","","","","","","","heartS.png","3702","9",""
"html-keyboard-response","449","1087180","0.0-46.26-2.26","null","","","","","","","null","","","","","","","",""
"image-selector-fb","450","1090182","0.0-46.27-0.27","null","pics2/FR4.jpg,pics2/SA1.jpg","","","","","","","false","null","","","noS.png","","",""
"image-slider-2AFC","451","1093985","0.0-46.27-1.27","3802","","","","14","","","","","","","","sizeS.png","2899","14",""
"html-keyboard-response","452","1094837","0.0-46.27-2.27","null","","","","","","","null","","","","","","","",""
"image-selector-fb","453","1097839","0.0-46.28-0.28","null","pics2/SA1.jpg,pics2/FR3.jpg","","","","","","","false","null","","","noS.png","","",""
"image-slider-2AFC","454","1102405","0.0-46.28-1.28","4565","","","","20","","","","","","","","sizeS.png","3876","20",""
"html-keyboard-response","455","1103257","0.0-46.28-2.28","null","","","","","","","null","","","","","","","",""
"image-selector-fb","456","1105833","0.0-46.29-0.29","2074","pics2/SA5.jpg,pics2/VE4.jpg","","","","","","","true","1","","","heartS.png","","",""
"image-slider-2AFC","457","1110834","0.0-46.29-1.29","null","","","","null","","","","","","","","sizeS.png","","",""
"html-keyboard-response","458","1111636","0.0-46.29-2.29","null","","","","","","","null","","","","","","","",""
"image-selector-fb","459","1115465","0.0-46.30-0.30","3326","pics2/SA4.jpg,pics2/SA5.jpg","","","","","","","true","1","","","sizeS.png","","",""
"image-slider-2AFC","460","1117726","0.0-46.30-1.30","2260","","","","-58","","","","","","","","heartS.png","1592","-58",""
"html-keyboard-response","461","1118528","0.0-46.30-2.30","null","","","","","","","null","","","","","","","",""
"image-selector-fb","462","1121046","0.0-46.31-0.31","2016","pics2/SA3.jpg,pics2/SW3.jpg","","","","","","","false","0","","","sizeS.png","","",""
"image-slider-2AFC","463","1124638","0.0-46.31-1.31","3591","","","","-18","","","","","","","","heartS.png","2261","-18",""
"html-keyboard-response","464","1125388","0.0-46.31-2.31","null","","","","","","","null","","","","","","","",""
"image-selector-fb","465","1127589","0.0-46.32-0.32","1699","pics2/FR6.jpg,pics2/SW3.jpg","","","","","","","true","1","","","heartS.png","","",""
"image-slider-2AFC","466","1129100","0.0-46.32-1.32","1510","","","","20","","","","","","","","heartS.png","935","20",""
"html-keyboard-response","467","1129902","0.0-46.32-2.32","null","","","","","","","null","","","","","","","",""
"image-selector-fb","468","1132906","0.0-46.33-0.33","null","pics2/SA6.jpg,pics2/FR3.jpg","","","","","","","false","null","","","noS.png","","",""
"image-slider-2AFC","469","1135480","0.0-46.33-1.33","2573","","","","38","","","","","","","","heartS.png","1834","38",""
"html-keyboard-response","470","1136232","0.0-46.33-2.33","null","","","","","","","null","","","","","","","",""
"image-selector-fb","471","1139425","0.0-46.34-0.34","2691","pics2/SA1.jpg,pics2/FR3.jpg","","","","","","","false","0","","","sizeS.png","","",""
"image-slider-2AFC","472","1141370","0.0-46.34-1.34","1945","","","","-47","","","","","","","","sizeS.png","1443","-47",""
"html-keyboard-response","473","1142172","0.0-46.34-2.34","null","","","","","","","null","","","","","","","",""
"image-selector-fb","474","1143763","0.0-46.35-0.35","1089","pics2/SA3.jpg,pics2/FR4.jpg","","","","","","","true","1","","","sizeS.png","","",""
"image-slider-2AFC","475","1145864","0.0-46.35-1.35","2100","","","","46","","","","","","","","sizeS.png","1139","46",""
"html-keyboard-response","476","1146717","0.0-46.35-2.35","null","","","","","","","null","","","","","","","",""
"image-selector-fb","477","1151219","0.0-46.36-0.36","null","pics2/FR4.jpg,pics2/SA1.jpg","","","","","","","false","null","","","heartS.png","","",""
"image-slider-2AFC","478","1151219","0.0-46.36-1.36","null","","","","null","","","","","","","","heartS.png","","",""
"html-keyboard-response","479","1151921","0.0-46.36-2.36","null","","","","","","","null","","","","","","","",""
"image-selector-fb","480","1154933","0.0-46.37-0.37","null","pics2/FR2.jpg,pics2/FR3.jpg","","","","","","","false","null","","","noS.png","","",""
"image-slider-2AFC","481","1157739","0.0-46.37-1.37","2805","","","","-37","","","","","","","","sizeS.png","1852","-37",""
"html-keyboard-response","482","1158442","0.0-46.37-2.37","null","","","","","","","null","","","","","","","",""
"image-selector-fb","483","1160488","0.0-46.38-0.38","1543","pics2/FR2.jpg,pics2/SA1.jpg","","","","","","","false","0","","","heartS.png","","",""
"image-slider-2AFC","484","1162901","0.0-46.38-1.38","2412","","","","55","","","","","","","","sizeS.png","1624","55",""
"html-keyboard-response","485","1163603","0.0-46.38-2.38","null","","","","","","","null","","","","","","","",""
"image-selector-fb","486","1166849","0.0-46.39-0.39","2745","pics2/SA6.jpg,pics2/FR2.jpg","","","","","","","true","1","","","sizeS.png","","",""
"image-slider-2AFC","487","1168225","0.0-46.39-1.39","1374","","","","-28","","","","","","","","heartS.png","837","-28",""
"html-keyboard-response","488","1169027","0.0-46.39-2.39","null","","","","","","","null","","","","","","","",""
"image-selector-fb","489","1170993","0.0-46.40-0.40","1463","pics2/SW3.jpg,pics2/SA6.jpg","","","","","","","false","0","","","heartS.png","","",""
"image-slider-2AFC","490","1173313","0.0-46.40-1.40","2320","","","","-19","","","","","","","","heartS.png","1702","-19",""
"html-keyboard-response","491","1174115","0.0-46.40-2.40","null","","","","","","","null","","","","","","","",""
"image-selector-fb","492","1176828","0.0-46.41-0.41","2211","pics2/FR4.jpg,pics2/SA3.jpg","","","","","","","true","1","","","heartS.png","","",""
"image-slider-2AFC","493","1178343","0.0-46.41-1.41","1513","","","","21","","","","","","","","heartS.png","1070","21",""
"html-keyboard-response","494","1179094","0.0-46.41-2.41","null","","","","","","","null","","","","","","","",""
"image-selector-fb","495","1182096","0.0-46.42-0.42","null","pics2/VE4.jpg,pics2/FR1.jpg","","","","","","","false","null","","","noS.png","","",""
"image-slider-2AFC","496","1186759","0.0-46.42-1.42","4662","","","","60","","","","","","","","sizeS.png","3316","60",""
"html-keyboard-response","497","1187511","0.0-46.42-2.42","null","","","","","","","null","","","","","","","",""
"image-selector-fb","498","1189428","0.0-46.43-0.43","1413","pics2/FR1.jpg,pics2/FR2.jpg","","","","","","","false","0","","","sizeS.png","","",""
"image-slider-2AFC","499","1191739","0.0-46.43-1.43","2310","","","","0","","","","","","","","sizeS.png","1616","0",""
"html-keyboard-response","500","1192490","0.0-46.43-2.43","null","","","","","","","null","","","","","","","",""
"image-selector-fb","501","1195495","0.0-46.44-0.44","null","pics2/SA4.jpg,pics2/SA6.jpg","","","","","","","false","null","","","noS.png","","",""
"image-slider-2AFC","502","1199270","0.0-46.44-1.44","3774","","","","0","","","","","","","","sizeS.png","3224","0",""
"html-keyboard-response","503","1200072","0.0-46.44-2.44","null","","","","","","","null","","","","","","","",""
"image-selector-fb","504","1202107","0.0-46.45-0.45","1533","pics2/SA3.jpg,pics2/SA4.jpg","","","","","","","false","0","","","sizeS.png","","",""
"image-slider-2AFC","505","1205436","0.0-46.45-1.45","3328","","","","81","","","","","","","","heartS.png","992,2290","41,81",""
"html-keyboard-response","506","1206187","0.0-46.45-2.45","null","","","","","","","null","","","","","","","",""
"image-selector-fb","507","1209665","0.0-46.46-0.46","2975","pics2/SA1.jpg,pics2/FR4.jpg","","","","","","","false","0","","","sizeS.png","","",""
"image-slider-2AFC","508","1212115","0.0-46.46-1.46","2449","","","","51","","","","","","","","heartS.png","1776","51",""
"html-keyboard-response","509","1212816","0.0-46.46-2.46","null","","","","","","","null","","","","","","","",""
"image-selector-fb","510","1214781","0.0-46.47-0.47","1445","pics2/FR1.jpg,pics2/SA5.jpg","","","","","","","false","0","","","heartS.png","","",""
"image-slider-2AFC","511","1217202","0.0-46.47-1.47","2419","","","","-23","","","","","","","","sizeS.png","1771","-23",""
"html-keyboard-response","512","1217952","0.0-46.47-2.47","null","","","","","","","null","","","","","","","",""
"image-selector-fb","513","1219882","0.0-46.48-0.48","1425","pics2/SA1.jpg,pics2/SA6.jpg","","","","","","","true","1","","","heartS.png","","",""
"image-slider-2AFC","514","1221909","0.0-46.48-1.48","2025","","","","-38","","","","","","","","sizeS.png","1426","-38",""
"html-keyboard-response","515","1222760","0.0-46.48-2.48","null","","","","","","","null","","","","","","","",""
"image-selector-fb","516","1225766","0.0-46.49-0.49","null","pics2/SA1.jpg,pics2/FR1.jpg","","","","","","","false","null","","","noS.png","","",""
"image-slider-2AFC","517","1229311","0.0-46.49-1.49","3543","","","","-26","","","","","","","","sizeS.png","2634","-26",""
"html-keyboard-response","518","1230112","0.0-46.49-2.49","null","","","","","","","null","","","","","","","",""
"image-selector-fb","519","1231622","0.0-46.50-0.50","997","pics2/FR6.jpg,pics2/FR4.jpg","","","","","","","true","1","","","heartS.png","","",""
"image-slider-2AFC","520","1234782","0.0-46.50-1.50","3160","","","","55","","","","","","","","sizeS.png","2479","55",""
"html-keyboard-response","521","1235484","0.0-46.50-2.50","null","","","","","","","null","","","","","","","",""
"image-selector-fb","522","1237981","0.0-46.51-0.51","1992","pics2/FR1.jpg,pics2/VE4.jpg","","","","","","","false","0","","","heartS.png","","",""
"image-slider-2AFC","523","1240694","0.0-46.51-1.51","2712","","","","-33","","","","","","","","sizeS.png","2163","-33",""
"html-keyboard-response","524","1241395","0.0-46.51-2.51","null","","","","","","","null","","","","","","","",""
"image-selector-fb","525","1243429","0.0-46.52-0.52","1532","pics2/SA4.jpg,pics2/FR2.jpg","","","","","","","true","1","","","sizeS.png","","",""
"image-slider-2AFC","526","1246363","0.0-46.52-1.52","2933","","","","-86","","","","","","","","heartS.png","1920","-86",""
"html-keyboard-response","527","1247115","0.0-46.52-2.52","null","","","","","","","null","","","","","","","",""
"image-selector-fb","528","1250118","0.0-46.53-0.53","null","pics2/SA3.jpg,pics2/FR6.jpg","","","","","","","false","null","","","noS.png","","",""
"image-slider-2AFC","529","1252381","0.0-46.53-1.53","2262","","","","-43","","","","","","","","heartS.png","1721","-43",""
"html-keyboard-response","530","1253082","0.0-46.53-2.53","null","","","","","","","null","","","","","","","",""
"image-selector-fb","531","1254409","0.0-46.54-0.54","825","pics2/FR4.jpg,pics2/SA6.jpg","","","","","","","false","0","","","heartS.png","","",""
"image-slider-2AFC","532","1256187","0.0-46.54-1.54","1777","","","","-30","","","","","","","","sizeS.png","1149","-30",""
"html-keyboard-response","533","1256988","0.0-46.54-2.54","null","","","","","","","null","","","","","","","",""
"image-selector-fb","534","1259992","0.0-46.55-0.55","null","pics2/FR6.jpg,pics2/FR3.jpg","","","","","","","false","null","","","noS.png","","",""
"image-slider-2AFC","535","1262625","0.0-46.55-1.55","2614","","","","35","","","","","","","","sizeS.png","2039","35",""
"html-keyboard-response","536","1263426","0.0-46.55-2.55","null","","","","","","","null","","","","","","","",""
"image-selector-fb","537","1265656","0.0-46.56-0.56","1724","pics2/FR3.jpg,pics2/FR1.jpg","","","","","","","false","0","","","heartS.png","","",""
"image-slider-2AFC","538","1267478","0.0-46.56-1.56","1820","","","","-41","","","","","","","","sizeS.png","1164","-41",""
"html-keyboard-response","539","1268179","0.0-46.56-2.56","null","","","","","","","null","","","","","","","",""
"image-selector-fb","540","1271183","0.0-46.57-0.57","null","pics2/SA1.jpg,pics2/SA6.jpg","","","","","","","false","null","","","noS.png","","",""
"image-slider-2AFC","541","1276184","0.0-46.57-1.57","null","","","","null","","","","","","","","heartS.png","3009,4265","-29,39",""
"html-keyboard-response","542","1276886","0.0-46.57-2.57","null","","","","","","","null","","","","","","","",""
"image-selector-fb","543","1278696","0.0-46.58-0.58","1308","pics2/SA3.jpg,pics2/SA1.jpg","","","","","","","true","1","","","sizeS.png","","",""
"image-slider-2AFC","544","1282300","0.0-46.58-1.58","3603","","","","32","","","","","","","","sizeS.png","2481","32",""
"html-keyboard-response","545","1283152","0.0-46.58-2.58","null","","","","","","","null","","","","","","","",""
"image-selector-fb","546","1285170","0.0-46.59-0.59","1513","pics2/FR2.jpg,pics2/SW3.jpg","","","","","","","true","1","","","heartS.png","","",""
"image-slider-2AFC","547","1287747","0.0-46.59-1.59","2576","","","","46","","","","","","","","heartS.png","1789","46",""
"html-keyboard-response","548","1288549","0.0-46.59-2.59","null","","","","","","","null","","","","","","","",""
"image-selector-fb","549","1291553","0.0-46.60-0.60","null","pics2/FR4.jpg,pics2/SA5.jpg","","","","","","","false","null","","","noS.png","","",""
"image-slider-2AFC","550","1293981","0.0-46.60-1.60","2427","","","","-38","","","","","","","","heartS.png","1680","-38",""
"html-keyboard-response","551","1294682","0.0-46.60-2.60","null","","","","","","","null","","","","","","","",""
"image-selector-fb","552","1296757","0.0-46.61-0.61","1572","pics2/FR1.jpg,pics2/SA1.jpg","","","","","","","false","0","","","heartS.png","","",""
"image-slider-2AFC","553","1298582","0.0-46.61-1.61","1824","","","","42","","","","","","","","sizeS.png","986","42",""
"html-keyboard-response","554","1299284","0.0-46.61-2.61","null","","","","","","","null","","","","","","","",""
"image-selector-fb","555","1302288","0.0-46.62-0.62","null","pics2/SA3.jpg,pics2/FR4.jpg","","","","","","","false","null","","","noS.png","","",""
"image-slider-2AFC","556","1305483","0.0-46.62-1.62","3194","","","","-35","","","","","","","","sizeS.png","2476","-35",""
"html-keyboard-response","557","1306185","0.0-46.62-2.62","null","","","","","","","null","","","","","","","",""
"image-selector-fb","558","1309190","0.0-46.63-0.63","null","pics2/SW3.jpg,pics2/FR3.jpg","","","","","","","false","null","","","noS.png","","",""
"image-slider-2AFC","559","1311923","0.0-46.63-1.63","2732","","","","-26","","","","","","","","sizeS.png","2223","-26",""
"html-keyboard-response","560","1312674","0.0-46.63-2.63","null","","","","","","","null","","","","","","","",""
"image-selector-fb","561","1315677","0.0-46.64-0.64","null","pics2/VE4.jpg,pics2/FR6.jpg","","","","","","","false","null","","","noS.png","","",""
"image-slider-2AFC","562","1318873","0.0-46.64-1.64","3195","","","","-21","","","","","","","","sizeS.png","2596","-21",""
"html-keyboard-response","563","1319726","0.0-46.64-2.64","null","","","","","","","null","","","","","","","",""
"image-selector-fb","564","1322730","0.0-46.65-0.65","null","pics2/SA4.jpg,pics2/FR1.jpg","","","","","","","false","null","","","noS.png","","",""
"image-slider-2AFC","565","1325976","0.0-46.65-1.65","3245","","","","-64","","","","","","","","heartS.png","2269","-64",""
"html-keyboard-response","566","1326727","0.0-46.65-2.65","null","","","","","","","null","","","","","","","",""
"pavlovia","567","1326739","0.0-47.0","","","","","","","","","","","","","","","",""
"html-keyboard-response","568","1331740","0.0-48.0","null","<div style='width: 700px;'> <font size=6><b>SHORT BREAK</font></b><br><br><i> Please wait 5 seconds to continue</i></div> ","","","","","","null","","","","","","","",""
"pavlovia","569","1331743","0.0-49.0","","","","","","","","","","","","","","","",""
"html-button-response","570","1460796","0.0-50.0","129053","<div style='width: 700px;'> <font size=6><b>BLOCK 3</font></b><br><br>Press the button whenever you feel ready to start the third and final block</div>","0","","","","","","","","","","","","",""
"image-selector-fb","571","1463393","0.0-51.0-0.0","2094","pics2/FR2.jpg,pics2/FR4.jpg","","","","","","","true","1","","","heartS.png","","",""
"image-slider-2AFC","572","1466248","0.0-51.0-1.0","2853","","","","-5","","","","","","","","sizeS.png","2423","-5",""
"html-keyboard-response","573","1467100","0.0-51.0-2.0","null","","","","","","","null","","","","","","","",""
"image-selector-fb","574","1469057","0.0-51.1-0.1","1453","pics2/SA3.jpg,pics2/FR1.jpg","","","","","","","true","1","","","sizeS.png","","",""
"image-slider-2AFC","575","1470954","0.0-51.1-1.1","1895","","","","-54","","","","","","","","heartS.png","1001","-54",""
"html-keyboard-response","576","1471756","0.0-51.1-2.1","null","","","","","","","null","","","","","","","",""
"image-selector-fb","577","1473939","0.0-51.2-0.2","1679","pics2/FR2.jpg,pics2/FR1.jpg","","","","","","","true","1","","","heartS.png","","",""
"image-slider-2AFC","578","1476216","0.0-51.2-1.2","2276","","","","20","","","","","","","","heartS.png","1812","20",""
"html-keyboard-response","579","1477068","0.0-51.2-2.2","null","","","","","","","null","","","","","","","",""
"image-selector-fb","580","1479296","0.0-51.3-0.3","1725","pics2/VE4.jpg,pics2/SA4.jpg","","","","","","","false","0","","","sizeS.png","","",""
"image-slider-2AFC","581","1481992","0.0-51.3-1.3","2695","","","","-7","","","","","","","","sizeS.png","2243","-7",""
"html-keyboard-response","582","1482744","0.0-51.3-2.3","null","","","","","","","null","","","","","","","",""
"image-selector-fb","583","1484580","0.0-51.4-0.4","1333","pics2/SA6.jpg,pics2/FR1.jpg","","","","","","","true","1","","","sizeS.png","","",""
"image-slider-2AFC","584","1486528","0.0-51.4-1.4","1947","","","","52","","","","","","","","sizeS.png","1323","52",""
"html-keyboard-response","585","1487280","0.0-51.4-2.4","null","","","","","","","null","","","","","","","",""
"image-selector-fb","586","1490355","0.0-51.5-0.5","2572","pics2/FR6.jpg,pics2/SA1.jpg","","","","","","","false","0","","","heartS.png","","",""
"image-slider-2AFC","587","1493625","0.0-51.5-1.5","3269","","","","52","","","","","","","","sizeS.png","2571","52",""
"html-keyboard-response","588","1494476","0.0-51.5-2.5","null","","","","","","","null","","","","","","","",""
"image-selector-fb","589","1497480","0.0-51.6-0.6","null","pics2/VE4.jpg,pics2/FR2.jpg","","","","","","","false","null","","","noS.png","","",""
"image-slider-2AFC","590","1501923","0.0-51.6-1.6","4440","","","","-48","","","","","","","","heartS.png","3727","-48",""
"html-keyboard-response","591","1502625","0.0-51.6-2.6","null","","","","","","","null","","","","","","","",""
"image-selector-fb","592","1504990","0.0-51.7-0.7","1861","pics2/FR4.jpg,pics2/VE4.jpg","","","","","","","true","1","","","heartS.png","","",""
"image-slider-2AFC","593","1506783","0.0-51.7-1.7","1792","","","","21","","","","","","","","heartS.png","1279","21",""
"html-keyboard-response","594","1507636","0.0-51.7-2.7","null","","","","","","","null","","","","","","","",""
"image-selector-fb","595","1509461","0.0-51.8-0.8","1321","pics2/FR1.jpg,pics2/FR4.jpg","","","","","","","false","0","","","sizeS.png","","",""
"image-slider-2AFC","596","1510827","0.0-51.8-1.8","1364","","","","-38","","","","","","","","sizeS.png","842","-38",""
"html-keyboard-response","597","1511529","0.0-51.8-2.8","null","","","","","","","null","","","","","","","",""
"image-selector-fb","598","1514533","0.0-51.9-0.9","null","pics2/SA3.jpg,pics2/FR3.jpg","","","","","","","false","null","","","noS.png","","",""
"image-slider-2AFC","599","1517796","0.0-51.9-1.9","3260","","","","-27","","","","","","","","heartS.png","1624,2323","32,-27",""
"html-keyboard-response","600","1518548","0.0-51.9-2.9","null","","","","","","","null","","","","","","","",""
"image-selector-fb","601","1521552","0.0-51.10-0.10","null","pics2/VE4.jpg,pics2/SA5.jpg","","","","","","","false","null","","","noS.png","","",""
"image-slider-2AFC","602","1523830","0.0-51.10-1.10","2276","","","","-38","","","","","","","","heartS.png","1742","-38",""
"html-keyboard-response","603","1524682","0.0-51.10-2.10","null","","","","","","","null","","","","","","","",""
"image-selector-fb","604","1527686","0.0-51.11-0.11","null","pics2/FR4.jpg,pics2/FR6.jpg","","","","","","","false","null","","","noS.png","","",""
"image-slider-2AFC","605","1530860","0.0-51.11-1.11","3172","","","","-35","","","","","","","","sizeS.png","2130","-35",""
"html-keyboard-response","606","1531711","0.0-51.11-2.11","null","","","","","","","null","","","","","","","",""
"image-selector-fb","607","1534231","0.0-51.12-0.12","2016","pics2/FR3.jpg,pics2/VE4.jpg","","","","","","","false","0","","","heartS.png","","",""
"image-slider-2AFC","608","1536607","0.0-51.12-1.12","2375","","","","-15","","","","","","","","heartS.png","1874","-15",""
"html-keyboard-response","609","1537409","0.0-51.12-2.12","null","","","","","","","null","","","","","","","",""
"image-selector-fb","610","1539969","0.0-51.13-0.13","2057","pics2/SW3.jpg,pics2/SA5.jpg","","","","","","","false","0","","","sizeS.png","","",""
"image-slider-2AFC","611","1541486","0.0-51.13-1.13","1516","","","","-29","","","","","","","","sizeS.png","1084","-29",""
"html-keyboard-response","612","1542189","0.0-51.13-2.13","null","","","","","","","null","","","","","","","",""
"image-selector-fb","613","1544175","0.0-51.14-0.14","1484","pics2/FR3.jpg,pics2/SA1.jpg","","","","","","","false","0","","","heartS.png","","",""
"image-slider-2AFC","614","1546153","0.0-51.14-1.14","1977","","","","-32","","","","","","","","heartS.png","1239","-32",""
"html-keyboard-response","615","1546954","0.0-51.14-2.14","null","","","","","","","null","","","","","","","",""
"image-selector-fb","616","1548556","0.0-51.15-0.15","1100","pics2/FR1.jpg,pics2/FR6.jpg","","","","","","","false","0","","","sizeS.png","","",""
"image-slider-2AFC","617","1551531","0.0-51.15-1.15","2973","","","","-31","","","","","","","","heartS.png","1008,2137","22,-31",""
"html-keyboard-response","618","1552232","0.0-51.15-2.15","null","","","","","","","null","","","","","","","",""
"image-selector-fb","619","1555236","0.0-51.16-0.16","null","pics2/SA3.jpg,pics2/SA6.jpg","","","","","","","false","null","","","noS.png","","",""
"image-slider-2AFC","620","1559773","0.0-51.16-1.16","4536","","","","-27","","","","","","","","sizeS.png","4016","-27",""
"html-keyboard-response","621","1560525","0.0-51.16-2.16","null","","","","","","","null","","","","","","","",""
"image-selector-fb","622","1563531","0.0-51.17-0.17","null","pics2/SA4.jpg,pics2/FR3.jpg","","","","","","","false","null","","","noS.png","","",""
"image-slider-2AFC","623","1566947","0.0-51.17-1.17","3415","","","","-69","","","","","","","","heartS.png","2532","-69",""
"html-keyboard-response","624","1567649","0.0-51.17-2.17","null","","","","","","","null","","","","","","","",""
"image-selector-fb","625","1569480","0.0-51.18-0.18","1329","pics2/SA4.jpg,pics2/VE4.jpg","","","","","","","false","0","","","heartS.png","","",""
"image-slider-2AFC","626","1571451","0.0-51.18-1.18","1969","","","","-70","","","","","","","","heartS.png","1194","-70",""
"html-keyboard-response","627","1572254","0.0-51.18-2.18","null","","","","","","","null","","","","","","","",""
"image-selector-fb","628","1575259","0.0-51.19-0.19","null","pics2/FR4.jpg,pics2/FR2.jpg","","","","","","","false","null","","","noS.png","","",""
"image-slider-2AFC","629","1577874","0.0-51.19-1.19","2613","","","","-46","","","","","","","","heartS.png","1441","-46",""
"html-keyboard-response","630","1578576","0.0-51.19-2.19","null","","","","","","","null","","","","","","","",""
"image-selector-fb","631","1580272","0.0-51.20-0.20","1193","pics2/SA3.jpg,pics2/SA6.jpg","","","","","","","false","0","","","heartS.png","","",""
"image-slider-2AFC","632","1581540","0.0-51.20-1.20","1267","","","","-31","","","","","","","","heartS.png","734","-31",""
"html-keyboard-response","633","1582393","0.0-51.20-2.20","null","","","","","","","null","","","","","","","",""
"image-selector-fb","634","1584293","0.0-51.21-0.21","1396","pics2/SA5.jpg,pics2/SA4.jpg","","","","","","","true","1","","","heartS.png","","",""
"image-slider-2AFC","635","1586150","0.0-51.21-1.21","1855","","","","90","","","","","","","","heartS.png","1133","90",""
"html-keyboard-response","636","1586902","0.0-51.21-2.21","null","","","","","","","null","","","","","","","",""
"image-selector-fb","637","1589906","0.0-51.22-0.22","null","pics2/FR2.jpg,pics2/FR6.jpg","","","","","","","false","null","","","noS.png","","",""
"image-slider-2AFC","638","1593492","0.0-51.22-1.22","3585","","","","-47","","","","","","","","sizeS.png","2840","-47",""
"html-keyboard-response","639","1594295","0.0-51.22-2.22","null","","","","","","","null","","","","","","","",""
"image-selector-fb","640","1597299","0.0-51.23-0.23","null","pics2/VE4.jpg,pics2/SA4.jpg","","","","","","","false","null","","","noS.png","","",""
"image-slider-2AFC","641","1600621","0.0-51.23-1.23","3321","","","","77","","","","","","","","heartS.png","2540","77",""
"html-keyboard-response","642","1601322","0.0-51.23-2.23","null","","","","","","","null","","","","","","","",""
"image-selector-fb","643","1603697","0.0-51.24-0.24","1871","pics2/SA1.jpg,pics2/FR2.jpg","","","","","","","false","0","","","sizeS.png","","",""
"image-slider-2AFC","644","1605641","0.0-51.24-1.24","1942","","","","44","","","","","","","","heartS.png","1245","44",""
"html-keyboard-response","645","1606342","0.0-51.24-2.24","null","","","","","","","null","","","","","","","",""
"image-selector-fb","646","1608446","0.0-51.25-0.25","1601","pics2/FR1.jpg,pics2/SA4.jpg","","","","","","","true","1","","","heartS.png","","",""
"image-slider-2AFC","647","1610176","0.0-51.25-1.25","1729","","","","88","","","","","","","","heartS.png","1056","88",""
"html-keyboard-response","648","1610877","0.0-51.25-2.25","null","","","","","","","null","","","","","","","",""
"image-selector-fb","649","1613880","0.0-51.26-0.26","null","pics2/VE4.jpg,pics2/SA3.jpg","","","","","","","false","null","","","noS.png","","",""
"image-slider-2AFC","650","1617732","0.0-51.26-1.26","3850","","","","51","","","","","","","","sizeS.png","3162","51",""
"html-keyboard-response","651","1618585","0.0-51.26-2.26","null","","","","","","","null","","","","","","","",""
"image-selector-fb","652","1620143","0.0-51.27-0.27","1054","pics2/FR6.jpg,pics2/SA4.jpg","","","","","","","true","1","","","heartS.png","","",""
"image-slider-2AFC","653","1622637","0.0-51.27-1.27","2492","","","","82","","","","","","","","heartS.png","1573","82",""
"html-keyboard-response","654","1623337","0.0-51.27-2.27","null","","","","","","","null","","","","","","","",""
"image-selector-fb","655","1626347","0.0-51.28-0.28","null","pics2/SW3.jpg,pics2/SA1.jpg","","","","","","","false","null","","","noS.png","","",""
"image-slider-2AFC","656","1629437","0.0-51.28-1.28","3088","","","","1","","","","","","","","sizeS.png","2620","1",""
"html-keyboard-response","657","1630140","0.0-51.28-2.28","null","","","","","","","null","","","","","","","",""
"image-selector-fb","658","1633052","0.0-51.29-0.29","2389","pics2/SA3.jpg,pics2/SA5.jpg","","","","","","","false","0","","","sizeS.png","","",""
"image-slider-2AFC","659","1634643","0.0-51.29-1.29","1590","","","","-8","","","","","","","","sizeS.png","1122","-8",""
"html-keyboard-response","660","1635446","0.0-51.29-2.29","null","","","","","","","null","","","","","","","",""
"image-selector-fb","661","1638450","0.0-51.30-0.30","null","pics2/SW3.jpg,pics2/SA6.jpg","","","","","","","false","null","","","noS.png","","",""
"image-slider-2AFC","662","1641154","0.0-51.30-1.30","2703","","","","-31","","","","","","","","heartS.png","2055","-31",""
"html-keyboard-response","663","1641906","0.0-51.30-2.30","null","","","","","","","null","","","","","","","",""
"image-selector-fb","664","1644291","0.0-51.31-0.31","1881","pics2/SA6.jpg,pics2/SA4.jpg","","","","","","","true","1","","","sizeS.png","","",""
"image-slider-2AFC","665","1645744","0.0-51.31-1.31","1452","","","","2","","","","","","","","sizeS.png","1033","2",""
"html-keyboard-response","666","1646547","0.0-51.31-2.31","null","","","","","","","null","","","","","","","",""
"image-selector-fb","667","1649551","0.0-51.32-0.32","null","pics2/SA5.jpg,pics2/SA6.jpg","","","","","","","false","null","","","noS.png","","",""
"image-slider-2AFC","668","1652650","0.0-51.32-1.32","3097","","","","-33","","","","","","","","sizeS.png","2572","-33",""
"html-keyboard-response","669","1653403","0.0-51.32-2.32","null","","","","","","","null","","","","","","","",""
"image-selector-fb","670","1656550","0.0-51.33-0.33","2642","pics2/SA3.jpg,pics2/FR2.jpg","","","","","","","true","1","","","sizeS.png","","",""
"image-slider-2AFC","671","1658760","0.0-51.33-1.33","2208","","","","18","","","","","","","","sizeS.png","723,1699","33,18",""
"html-keyboard-response","672","1659563","0.0-51.33-2.33","null","","","","","","","null","","","","","","","",""
"image-selector-fb","673","1661202","0.0-51.34-0.34","1136","pics2/SA5.jpg,pics2/FR3.jpg","","","","","","","true","1","","","sizeS.png","","",""
"image-slider-2AFC","674","1662791","0.0-51.34-1.34","1588","","","","49","","","","","","","","heartS.png","871,1071","49,49",""
"html-keyboard-response","675","1663493","0.0-51.34-2.34","null","","","","","","","null","","","","","","","",""
"image-selector-fb","676","1665368","0.0-51.35-0.35","1372","pics2/SA5.jpg,pics2/FR2.jpg","","","","","","","true","1","","","sizeS.png","","",""
"image-slider-2AFC","677","1668187","0.0-51.35-1.35","2818","","","","25","","","","","","","","sizeS.png","2366","25",""
"html-keyboard-response","678","1668889","0.0-51.35-2.35","null","","","","","","","null","","","","","","","",""
"image-selector-fb","679","1670770","0.0-51.36-0.36","1378","pics2/FR3.jpg,pics2/FR2.jpg","","","","","","","true","1","","","sizeS.png","","",""
"image-slider-2AFC","680","1673243","0.0-51.36-1.36","2472","","","","-43","","","","","","","","heartS.png","1832","-43",""
"html-keyboard-response","681","1674046","0.0-51.36-2.36","null","","","","","","","null","","","","","","","",""
"image-selector-fb","682","1677049","0.0-51.37-0.37","null","pics2/SA5.jpg,pics2/FR3.jpg","","","","","","","false","null","","","noS.png","","",""
"image-slider-2AFC","683","1679262","0.0-51.37-1.37","2211","","","","44","","","","","","","","heartS.png","1275","44",""
"html-keyboard-response","684","1679965","0.0-51.37-2.37","null","","","","","","","null","","","","","","","",""
"image-selector-fb","685","1682230","0.0-51.38-0.38","1763","pics2/SA3.jpg,pics2/FR3.jpg","","","","","","","true","1","","","sizeS.png","","",""
"image-slider-2AFC","686","1684207","0.0-51.38-1.38","1977","","","","27","","","","","","","","heartS.png","1034","27",""
"html-keyboard-response","687","1685059","0.0-51.38-2.38","null","","","","","","","null","","","","","","","",""
"image-selector-fb","688","1688063","0.0-51.39-0.39","null","pics2/VE4.jpg,pics2/SW3.jpg","","","","","","","false","null","","","noS.png","","",""
"image-slider-2AFC","689","1690991","0.0-51.39-1.39","2927","","","","29","","","","","","","","sizeS.png","2082","29",""
"html-keyboard-response","690","1691743","0.0-51.39-2.39","null","","","","","","","null","","","","","","","",""
"image-selector-fb","691","1693282","0.0-51.40-0.40","1035","pics2/FR3.jpg,pics2/SA5.jpg","","","","","","","false","0","","","heartS.png","","",""
"image-slider-2AFC","692","1695174","0.0-51.40-1.40","1889","","","","-36","","","","","","","","heartS.png","864","-36",""
"html-keyboard-response","693","1696026","0.0-51.40-2.40","null","","","","","","","null","","","","","","","",""
"image-selector-fb","694","1698171","0.0-51.41-0.41","1642","pics2/SA1.jpg,pics2/SA5.jpg","","","","","","","false","0","","","sizeS.png","","",""
"image-slider-2AFC","695","1699865","0.0-51.41-1.41","1692","","","","29","","","","","","","","heartS.png","1134","29",""
"html-keyboard-response","696","1700568","0.0-51.41-2.41","null","","","","","","","null","","","","","","","",""
"image-selector-fb","697","1702124","0.0-51.42-0.42","1052","pics2/SA4.jpg,pics2/FR1.jpg","","","","","","","false","0","","","sizeS.png","","",""
"image-slider-2AFC","698","1704680","0.0-51.42-1.42","2555","","","","79","","","","","","","","sizeS.png","1979","79",""
"html-keyboard-response","699","1705531","0.0-51.42-2.42","null","","","","","","","null","","","","","","","",""
"image-selector-fb","700","1709031","0.0-51.43-0.43","2997","pics2/SW3.jpg,pics2/SA4.jpg","","","","","","","false","0","","","sizeS.png","","",""
"image-slider-2AFC","701","1711307","0.0-51.43-1.43","2275","","","","78","","","","","","","","heartS.png","1639","78",""
"html-keyboard-response","702","1712160","0.0-51.43-2.43","null","","","","","","","null","","","","","","","",""
"image-selector-fb","703","1714928","0.0-51.44-0.44","2264","pics2/SW3.jpg,pics2/VE4.jpg","","","","","","","true","1","","","heartS.png","","",""
"image-slider-2AFC","704","1717165","0.0-51.44-1.44","2236","","","","-61","","","","","","","","sizeS.png","1563","-61",""
"html-keyboard-response","705","1718018","0.0-51.44-2.44","null","","","","","","","null","","","","","","","",""
"image-selector-fb","706","1721025","0.0-51.45-0.45","null","pics2/FR4.jpg,pics2/FR1.jpg","","","","","","","false","null","","","noS.png","","",""
"image-slider-2AFC","707","1724575","0.0-51.45-1.45","3549","","","","49","","","","","","","","sizeS.png","2823","49",""
"html-keyboard-response","708","1725428","0.0-51.45-2.45","null","","","","","","","null","","","","","","","",""
"image-selector-fb","709","1727374","0.0-51.46-0.46","1443","pics2/SA4.jpg,pics2/FR3.jpg","","","","","","","true","1","","","sizeS.png","","",""
"image-slider-2AFC","710","1729281","0.0-51.46-1.46","1906","","","","51","","","","","","","","sizeS.png","1254","51",""
