"trial_type","trial_index","time_elapsed","internal_node_id","rt","stimulus","button_pressed","success","response","cat","value","key_press","correct","image_click","first_click_rt","first_click_val","symbol","all_click_rt","all_click_val","view_history"
"pavlovia","0","14","0.0-0.0","","","","","","","","","","","","","","","",""
"html-button-response","1","5897","0.0-1.0","5876","<div style='width: 700px; font-size: 150%'><font size='40'>  Welcome to our study!</font><br><br><br> <small> Our experiment is about <i>decision making</i>. You will choose and rate different food items, such as these: <br><br> <div><img src='food_combo2.png', height = '400px'></img></div>","0","","","","","","","","","","","","",""
"html-button-response","2","16285","0.0-2.0","10385","<div style='width: 700px; font-size: 150%'><br><br><br><small> <u><i>This is a multi-part study.</i></u><br><br> In the first part you will rate 24 food items twice.<br><br><div><img src=""rat1.png"" style=""width: 25%""></img></div><br>In the second part (longest) you will make repeated choices and judgements concerning the food items.<br><br><div><img src=""mainx.png"" style=""width: 50%""></img></div><br>In the third and final part, you will rate the items again and answer few short questionnaires.<br><br><div><img src=""rat2.png"" style=""width: 50%""></img></div><br><br>","0","","","","","","","","","","","","",""
"fullscreen","3","19203","0.0-3.0","","","","true","","","","","","","","","","","",""
"html-button-response","4","21185","0.0-4.0","1978","<div style='width: 900px; font-size: 150%;' <font size='20%'> In the first part of the task you will use the mouse to rate food items on <i>2 scales</i> </font></div><br><br><div style='width: 900px'><div style='float: left; width: 50%; margin-right:2.5em'><img src='heartS.png'></img><p class='small' style='text-align: justify'>When you see the heart cue you will rate food items in terms of how much like them/would like to eat them <i>right now</i>. You will rate them on a continuous scale from left (strong dislike) to right (strong liking). Before submitting your rating, try imagining how the item tastes and how much you desire it.<br><br></p></div><div ><img src='sizeS.png'></img><p class='small' style='text-align: justify'>When you see the size cue, you will rate the same food items in terms of their size. The scale goes from left (tiny) to right (very large). You should assess picture size <i><u>relative</i></u> to the white background. <b>Remember:</b> rate the size of the picture, <u>not</u> the size of the item in real life. </p></div><div style='width: 900px'><br><br><b><i>Notice:</b> by starting the rating you agree that your sumbission might be rejected at an early stage and the experiment might end, if your size ratings are not at least modestly related to objective sizes, or if you repeat the same value ratings too many times. If you don't agree, please exit by closing the browser window. </i><br><br><br>","0","","","","","","","","","","","","",""
"html-button-response","5","23143","0.0-5.0","1954","<div><img src='heartS.png'></img></div><br><div style='text-align: justify; width: 700px'>Using the mouse, rate the <b><i>likeness</b></i> of the food items (how much you like them/would like to eat them <i>right now</i>). Far right-end of the scale indicates an item you <i>like a lot</i>. Far left-end indicates an item you <i>dislike a lot</i>. Think about each answer.   <ul><li>Try <b><i>not</b></i> to give identical rating to different items.</li><li>Use the whole scale, and <b><i>not</b></i> just the extremes</ul></div><br>","0","","","","","","","","","","","","",""
"image-slider-response","6","31009","0.0-6.0-0.0-0.0","7858","pics2/VE2.jpg","","","67","VE","","","","","","","","","",""
"image-slider-response","7","34339","0.0-6.0-0.0-0.1","3114","pics2/SA4.jpg","","","82","SA","","","","","","","","","",""
"image-slider-response","8","37711","0.0-6.0-0.0-0.2","3163","pics2/VE4.jpg","","","73","VE","","","","","","","","","",""
"image-slider-response","9","42433","0.0-6.0-0.0-0.3","4509","pics2/FR1.jpg","","","81","FR","","","","","","","","","",""
"image-slider-response","10","46146","0.0-6.0-0.0-0.4","3500","pics2/SW4.jpg","","","90","SW","","","","","","","","","",""
"image-slider-response","11","49106","0.0-6.0-0.0-0.5","2747","pics2/SW1.jpg","","","92","SW","","","","","","","","","",""
"image-slider-response","12","52300","0.0-6.0-0.0-0.6","2982","pics2/FR4.jpg","","","89","FR","","","","","","","","","",""
"image-slider-response","13","55514","0.0-6.0-0.0-0.7","2994","pics2/FR6.jpg","","","85","FR","","","","","","","","","",""
"image-slider-response","14","59031","0.0-6.0-0.0-0.8","3304","pics2/FR3.jpg","","","89","FR","","","","","","","","","",""
"image-slider-response","15","62392","0.0-6.0-0.0-0.9","3151","pics2/SA6.jpg","","","91","SA","","","","","","","","","",""
"image-slider-response","16","69563","0.0-6.0-0.0-0.10","6963","pics2/VE5.jpg","","","66","VE","","","","","","","","","",""
"image-slider-response","17","72826","0.0-6.0-0.0-0.11","3048","pics2/VE1.jpg","","","69","VE","","","","","","","","","",""
"image-slider-response","18","75942","0.0-6.0-0.0-0.12","2907","pics2/VE3.jpg","","","24","VE","","","","","","","","","",""
"image-slider-response","19","78499","0.0-6.0-0.0-0.13","2344","pics2/SA3.jpg","","","80","SA","","","","","","","","","",""
"image-slider-response","20","82947","0.0-6.0-0.0-0.14","4237","pics2/VE6.jpg","","","7","VE","","","","","","","","","",""
"image-slider-response","21","85828","0.0-6.0-0.0-0.15","2667","pics2/SW3.jpg","","","81","SW","","","","","","","","","",""
"image-slider-response","22","88875","0.0-6.0-0.0-0.16","2836","pics2/SW2.jpg","","","86","SW","","","","","","","","","",""
"image-slider-response","23","91549","0.0-6.0-0.0-0.17","2465","pics2/FR2.jpg","","","82","FR","","","","","","","","","",""
"image-slider-response","24","94783","0.0-6.0-0.0-0.18","3023","pics2/SA2.jpg","","","81","SA","","","","","","","","","",""
"image-slider-response","25","98026","0.0-6.0-0.0-0.19","3030","pics2/SA1.jpg","","","79","SA","","","","","","","","","",""
"image-slider-response","26","101111","0.0-6.0-0.0-0.20","2873","pics2/SA5.jpg","","","21","SA","","","","","","","","","",""
"image-slider-response","27","104011","0.0-6.0-0.0-0.21","2692","pics2/SW6.jpg","","","79","SW","","","","","","","","","",""
"image-slider-response","28","107224","0.0-6.0-0.0-0.22","3001","pics2/SW5.jpg","","","84","SW","","","","","","","","","",""
"image-slider-response","29","110653","0.0-6.0-0.0-0.23","3221","pics2/FR5.jpg","","","17","FR","","","","","","","","","",""
"html-button-response","30","112703","0.0-7.0","1840","<div style='width: 900px;'> <font size = 6><b> End of the first rating</b><br><br>","0","","","","","","","","","","","","",""
"html-button-response","31","114630","0.0-9.0","1922","<div ><img src='sizeS.png'></img></div><br><div style='text-align: justify; width: 700px'> Using the mouse, rate the <b><i>size</b></i> of the food items <b><i> relative to the white background.</b></i> Right-end of the scale indicates a <i>very large item</i>, which covers a large portion of the white rectangle. Left-end indicates a <i>very tiny</i> item which covers a tiny portion of the white rectangle.<br><br><i><u>Remember</i></u>: everything that is not the white background also contributes to item size (e.g. packing, plates, ect.)<br><br> Please keep in mind that if the accuracy of ratings do not allign well with actual sizes, the experiment will end.  As a result it will be consider incomplete and therefore no payment would be made. Good luck!<br><br></div><br>","0","","","","","","","","","","","","",""
"html-button-response","32","118234","0.0-10.0","3600","<div ><img src='sizeS.png'></img></div><br><b><font size=6>Examples of items that you might encounter</b><br><div style='width: 750px;'><div style='width: 33.33%; float:left'><br><br><br><i>Large Item</i><br><br><img src='large.jpg', width=200px></img></div><div style='float:right'><br><br><br><i>Small Item</i><br><br><img src='small.jpg', width=200px></img></div><div ><br><br><br><i>Medium Item</i><br><br><img src='med.jpg', width=200px></img></div></div><br><br>","0","","","","","","","","","","","","",""
"image-slider-response","33","127108","0.0-11.0-0.0-0.0","8869","pics2/SA5.jpg","","","28","null","","","","","","","","","",""
"image-slider-response","34","129772","0.0-11.0-0.0-0.1","2458","pics2/FR3.jpg","","","17","null","","","","","","","","","",""
"image-slider-response","35","132534","0.0-11.0-0.0-0.2","2553","pics2/SW1.jpg","","","75","null","","","","","","","","","",""
"image-slider-response","36","135472","0.0-11.0-0.0-0.3","2728","pics2/SW5.jpg","","","54","null","","","","","","","","","",""
"image-slider-response","37","138206","0.0-11.0-0.0-0.4","2521","pics2/VE6.jpg","","","35","null","","","","","","","","","",""
"image-slider-response","38","141974","0.0-11.0-0.0-0.5","3560","pics2/VE1.jpg","","","66","null","","","","","","","","","",""
"image-slider-response","39","144913","0.0-11.0-0.0-0.6","2727","pics2/SW3.jpg","","","58","null","","","","","","","","","",""
"image-slider-response","40","147586","0.0-11.0-0.0-0.7","2464","pics2/SA4.jpg","","","76","null","","","","","","","","","",""
"image-slider-response","41","152466","0.0-11.0-0.0-0.8","4669","pics2/VE5.jpg","","","73","null","","","","","","","","","",""
"image-slider-response","42","155572","0.0-11.0-0.0-0.9","2893","pics2/VE3.jpg","","","23","null","","","","","","","","","",""
"image-slider-response","43","159704","0.0-11.0-0.0-0.10","3920","pics2/FR6.jpg","","","76","null","","","","","","","","","",""
"image-slider-response","44","163916","0.0-11.0-0.0-0.11","4000","pics2/FR5.jpg","","","15","null","","","","","","","","","",""
"image-slider-response","45","167012","0.0-11.0-0.0-0.12","2887","pics2/FR1.jpg","","","67","null","","","","","","","","","",""
"image-slider-response","46","169451","0.0-11.0-0.0-0.13","2230","pics2/FR4.jpg","","","76","null","","","","","","","","","",""
"image-slider-response","47","172634","0.0-11.0-0.0-0.14","2972","pics2/SA6.jpg","","","83","null","","","","","","","","","",""
"image-slider-response","48","175369","0.0-11.0-0.0-0.15","2525","pics2/SA3.jpg","","","60","null","","","","","","","","","",""
"image-slider-response","49","178180","0.0-11.0-0.0-0.16","2598","pics2/VE2.jpg","","","67","null","","","","","","","","","",""
"image-slider-response","50","180884","0.0-11.0-0.0-0.17","2496","pics2/VE4.jpg","","","68","null","","","","","","","","","",""
"image-slider-response","51","183656","0.0-11.0-0.0-0.18","2562","pics2/SA2.jpg","","","77","null","","","","","","","","","",""
"image-slider-response","52","186320","0.0-11.0-0.0-0.19","2453","pics2/SW4.jpg","","","76","null","","","","","","","","","",""
"image-slider-response","53","188799","0.0-11.0-0.0-0.20","2271","pics2/SA1.jpg","","","74","null","","","","","","","","","",""
"image-slider-response","54","191228","0.0-11.0-0.0-0.21","2219","pics2/SW2.jpg","","","72","null","","","","","","","","","",""
"image-slider-response","55","193462","0.0-11.0-0.0-0.22","2022","pics2/SW6.jpg","","","75","null","","","","","","","","","",""
"image-slider-response","56","197597","0.0-11.0-0.0-0.23","3925","pics2/FR2.jpg","","","74","null","","","","","","","","","",""
"html-button-response","57","199507","0.0-12.0","1704","<div style='width: 900px;'> <font size = 6><b> End of the second rating</b><br><br>","0","","","","","","","","","","","","",""
"html-button-response","58","205277","0.0-13.0","5767","<div style='width: 900px;'>Now please rate the items for the second time. <br><br>This is not a memory test - you don't need to be consistent with your previous ratings. Just as before, try to make accurate judgements.<br><br>","0","","","","","","","","","","","","",""
"html-button-response","59","206807","0.0-14.0","1526","<div><img src='heartS.png'></img></div><br><div style='text-align: justify; width: 700px'>Using the mouse, rate the <b><i>likeness</b></i> of the food items (how much you like them/would like to eat them <i>right now</i>). Far right-end of the scale indicates an item you <i>like a lot</i>. Far left-end indicates an item you <i>dislike a lot</i>. Think about each answer.   <ul><li>Try <b><i>not</b></i> to give identical rating to different items.</li><li>Use the whole scale, and <b><i>not</b></i> just the extremes</ul></div><br>","0","","","","","","","","","","","","",""
"image-slider-response","60","212478","0.0-15.0-0.0-0.0","5666","pics2/FR1.jpg","","","77","FR","","","","","","","","","",""
"image-slider-response","61","215534","0.0-15.0-0.0-0.1","2841","pics2/FR4.jpg","","","75","FR","","","","","","","","","",""
"image-slider-response","62","218082","0.0-15.0-0.0-0.2","2320","pics2/SA1.jpg","","","76","SA","","","","","","","","","",""
"image-slider-response","63","221717","0.0-15.0-0.0-0.3","3412","pics2/VE1.jpg","","","81","VE","","","","","","","","","",""
"image-slider-response","64","224538","0.0-15.0-0.0-0.4","2607","pics2/VE6.jpg","","","18","VE","","","","","","","","","",""
"image-slider-response","65","234707","0.0-15.0-0.0-0.5","9960","pics2/VE5.jpg","","","54","VE","","","","","","","","","",""
"image-slider-response","66","236902","0.0-15.0-0.0-0.6","1981","pics2/VE3.jpg","","","21","VE","","","","","","","","","",""
"image-slider-response","67","238919","0.0-15.0-0.0-0.7","1808","pics2/SW6.jpg","","","73","SW","","","","","","","","","",""
"image-slider-response","68","242045","0.0-15.0-0.0-0.8","2908","pics2/FR6.jpg","","","70","FR","","","","","","","","","",""
"image-slider-response","69","244562","0.0-15.0-0.0-0.9","2308","pics2/SA6.jpg","","","74","SA","","","","","","","","","",""
"image-slider-response","70","247163","0.0-15.0-0.0-0.10","2391","pics2/FR3.jpg","","","74","FR","","","","","","","","","",""
"image-slider-response","71","250606","0.0-15.0-0.0-0.11","3232","pics2/SW3.jpg","","","80","SW","","","","","","","","","",""
"image-slider-response","72","252810","0.0-15.0-0.0-0.12","1999","pics2/SA4.jpg","","","76","SA","","","","","","","","","",""
"image-slider-response","73","255427","0.0-15.0-0.0-0.13","2395","pics2/SA2.jpg","","","79","SA","","","","","","","","","",""
"image-slider-response","74","258011","0.0-15.0-0.0-0.14","2366","pics2/VE2.jpg","","","69","VE","","","","","","","","","",""
"image-slider-response","75","261569","0.0-15.0-0.0-0.15","3347","pics2/SW1.jpg","","","80","SW","","","","","","","","","",""
"image-slider-response","76","263781","0.0-15.0-0.0-0.16","2000","pics2/VE4.jpg","","","73","VE","","","","","","","","","",""
"image-slider-response","77","266467","0.0-15.0-0.0-0.17","2475","pics2/FR2.jpg","","","74","FR","","","","","","","","","",""
"image-slider-response","78","269689","0.0-15.0-0.0-0.18","3013","pics2/SA5.jpg","","","28","SA","","","","","","","","","",""
"image-slider-response","79","273010","0.0-15.0-0.0-0.19","3107","pics2/SW4.jpg","","","79","SW","","","","","","","","","",""
"image-slider-response","80","275637","0.0-15.0-0.0-0.20","2385","pics2/SW2.jpg","","","86","SW","","","","","","","","","",""
"image-slider-response","81","278168","0.0-15.0-0.0-0.21","2322","pics2/FR5.jpg","","","21","FR","","","","","","","","","",""
"image-slider-response","82","280887","0.0-15.0-0.0-0.22","2510","pics2/SA3.jpg","","","74","SA","","","","","","","","","",""
"image-slider-response","83","283690","0.0-15.0-0.0-0.23","2590","pics2/SW5.jpg","","","79","SW","","","","","","","","","",""
"call-function","84","283979","0.0-16.0","","","","","","","","","","","","","","","",""
"call-function","85","284001","0.0-17.0","","","","","","","","","","","","","","","",""
"html-button-response","86","285660","0.0-18.0","1656","<div style='width: 900px;'> <font size = 6><b> End of the first rating</b><br><br>","0","","","","","","","","","","","","",""
"html-button-response","87","312509","0.0-19.0","26846","<div ><img src='sizeS.png'></img></div><br><div style='text-align: justify; width: 700px'> Using the mouse, rate the <b><i>size</b></i> of the food items <b><i> relative to the white background.</b></i> Right-end of the scale indicates a <i>very large item</i>, which covers a large portion of the white rectangle. Left-end indicates a <i>very tiny</i> item which covers a tiny portion of the white rectangle.<br><br><i><u>Remember</i></u>: everything that is not the white background also contributes to item size (e.g. packing, plates, ect.)<br><br> Please keep in mind that if the accuracy of ratings do not allign well with actual sizes, the experiment will end.  As a result it will be consider incomplete and therefore no payment would be made. Good luck!<br><br></div><br>","0","","","","","","","","","","","","",""
"image-slider-response","88","322268","0.0-20.0-0.0-0.0","9752","pics2/FR5.jpg","","","27","null","","","","","","","","","",""
"image-slider-response","89","325941","0.0-20.0-0.0-0.1","3460","pics2/VE4.jpg","","","77","null","","","","","","","","","",""
"image-slider-response","90","328459","0.0-20.0-0.0-0.2","2308","pics2/SA6.jpg","","","73","null","","","","","","","","","",""
"image-slider-response","91","330919","0.0-20.0-0.0-0.3","2246","pics2/SA2.jpg","","","78","null","","","","","","","","","",""
"image-slider-response","92","336053","0.0-20.0-0.0-0.4","4919","pics2/SA4.jpg","","","81","null","","","","","","","","","",""
"image-slider-response","93","338806","0.0-20.0-0.0-0.5","2539","pics2/FR6.jpg","","","24","null","","","","","","","","","",""
"image-slider-response","94","341539","0.0-20.0-0.0-0.6","2520","pics2/SW2.jpg","","","80","null","","","","","","","","","",""
"image-slider-response","95","345155","0.0-20.0-0.0-0.7","3406","pics2/VE3.jpg","","","17","null","","","","","","","","","",""
"image-slider-response","96","349153","0.0-20.0-0.0-0.8","3785","pics2/SW4.jpg","","","20","null","","","","","","","","","",""
"image-slider-response","97","351780","0.0-20.0-0.0-0.9","2416","pics2/VE5.jpg","","","25","null","","","","","","","","","",""
"image-slider-response","98","354364","0.0-20.0-0.0-0.10","2374","pics2/SA5.jpg","","","19","null","","","","","","","","","",""
"image-slider-response","99","356863","0.0-20.0-0.0-0.11","2288","pics2/SW1.jpg","","","73","null","","","","","","","","","",""
"image-slider-response","100","359657","0.0-20.0-0.0-0.12","2585","pics2/FR4.jpg","","","20","null","","","","","","","","","",""
"image-slider-response","101","364780","0.0-20.0-0.0-0.13","4914","pics2/SA1.jpg","","","72","null","","","","","","","","","",""
"image-slider-response","102","367198","0.0-20.0-0.0-0.14","2212","pics2/FR3.jpg","","","32","null","","","","","","","","","",""
"image-slider-response","103","369541","0.0-20.0-0.0-0.15","2133","pics2/VE2.jpg","","","28","null","","","","","","","","","",""
"image-slider-response","104","373322","0.0-20.0-0.0-0.16","3571","pics2/FR1.jpg","","","32","null","","","","","","","","","",""
"image-slider-response","105","375675","0.0-20.0-0.0-0.17","2138","pics2/VE6.jpg","","","25","null","","","","","","","","","",""
"image-slider-response","106","379042","0.0-20.0-0.0-0.18","3144","pics2/SA3.jpg","","","41","null","","","","","","","","","",""
"image-slider-response","107","381374","0.0-20.0-0.0-0.19","2118","pics2/SW5.jpg","","","36","null","","","","","","","","","",""
"image-slider-response","108","383727","0.0-20.0-0.0-0.20","2143","pics2/VE1.jpg","","","45","null","","","","","","","","","",""
"image-slider-response","109","386089","0.0-20.0-0.0-0.21","2149","pics2/SW3.jpg","","","30","null","","","","","","","","","",""
"image-slider-response","110","388145","0.0-20.0-0.0-0.22","1846","pics2/SW6.jpg","","","41","null","","","","","","","","","",""
"image-slider-response","111","390250","0.0-20.0-0.0-0.23","1896","pics2/FR2.jpg","","","38","null","","","","","","","","","",""
"call-function","112","390490","0.0-21.0","","","","","","","","","","","","","","","",""
"html-button-response","113","392149","0.0-22.0","1656","<div style='width: 900px;'> <font size = 6><b> End of the second rating</b><br><br>","0","","","","","","","","","","","","",""
"pavlovia","114","392174","0.0-23.0","","","","","","","","","","","","","","","",""
"html-keyboard-response","115","397185","0.0-24.0","null","<div style='width: 700px;'> <font size=6><b>SHORT BREAK</font></b><br><br><i> Please wait 5 seconds to continue</i></div> ","","","","","","null","","","","","","","",""
"pavlovia","116","397196","0.0-25.0","","","","","","","","","","","","","","","",""
"html-button-response","117","412515","0.0-26.0","15314","<div style='width: 700px;'>In the main part of the study, you will be choosing between 2 items. When it's time to choose,  this symbol will appear: <br><br><img src='chooseS.png'></img><br><br>Below, a cue will signify the type of choice: </div><br><div style='width: 700px;'><div style='float: left; width: 50%'><img src='heartS.png'></img><p class='small'>Heart cue means you should choose the item you <b><i>prefer</b></i> more.</p></div><div class='float: right; width:50%'><img src='sizeS.png'></img><p class='small'>Size cue means you should choose the <b><i>larger</b></i> item. </p></div></div><br><div style='width: 700px;'>When you click, a green square will appear around the item you chose.<br></div><div><br>","0","","","","","","","","","","","","",""
"image-selector-fb-tut","118","420279","0.0-27.0","6753","0232.jpg,0123.jpg","","","","","","","false","0","","","","","",""
"image-selector-fb-tut","119","424564","0.0-28.0","3280","0232.jpg,0123.jpg","","","","","","","false","0","","","","","",""
"html-button-response","120","428154","0.0-29.0","3586","<div style='width: 900px;'>Your choices should be both <b><i>fast and accurate</b></i>. <br><br>You will have <i>4 seconds</i> to make each choice, which should be enough consider the options and click on one of the items.<br><br>","0","","","","","","","","","","","","",""
"html-button-response","121","430427","0.0-30.0","2271","<div style='width: 900px;'>Additionally, on some choice trials you will see the <b><i>no-choice cue</b></i>: <br><br><img src='noS.png'></img> <br><br>This cue means you can't make any choice. You can examine the items, but  can't click on any of them. Just wait patiently for the cue to dissapear.<br><br>","0","","","","","","","","","","","","",""
"image-selector-fb-tut","122","432453","0.0-31.0","null","0232.jpg,0123.jpg","","","","","","","false","null","","","","","",""
"html-button-response","123","433906","0.0-32.0","1444","<div style='width: 900px;'>After each choice the items will remain on the screen and you will see this symbol: <br><br><img src='judgeS.png'></img> <br><br>This means you should rate<b> the magnitude of the difference</b> between the items using a scale: </div><br><div style='width: 900px; '><div style='float: left; width: 50%; margin-right: 2.5em; align-self:left'><img src='heartS.png'></img><p class='small' style = 'text-align: justify;'>Heart cue means you should rate <b>how much you prefer</b> one of the items over the other. Moving the scale indicator to the left means you prefer the left one; moving it to the right - right one. The more you prefer one of them, the more towards that side you should move the scale indicator. </p></div><div class='float: right; width: 50%; margin-left: 2.5em;'><img src='sizeS.png'></img><p class='small' style='text-align: justify'>Size cue means you should rate <b>how much larger</b> is one of the items over the other. Moving the scale indicator to the left means you think the left is larger; moving it to the right - right one. The greater the difference in size, the more towards that side you should move the scale indicator.</div><br>","0","","","","","","","","","","","","",""
"image-slider-2AFC-tut","124","461314","0.0-33.0","27402","","","","20","","","","","","26359","20","","","",""
"image-slider-2AFC-tut","125","466890","0.0-34.0","5570","","","","19","","","","","","4427","19","","","",""
"html-button-response","126","484795","0.0-35.0","17901","<br><br><font size = 36><b> Examples </b></font><br><br><i> 1) I would like to eat some croissants a <b>lot more</b> than doritos right now:</i><br><img src='ex1.PNG', width='62%'></img><br><br><br><i> 2) I would like to eat some doritos a <b>bit more</b> than croissants right now, but just slightly:</i><br><img src='ex2.PNG' width='62%'></img>","0","","","","","","","","","","","","",""
"html-button-response","127","486481","0.0-36.0","1683","<div style='width: 900px;'><i>Now you know everything you need to do the task!</i> <br><br>Let's start by doing a <b>short training</b>, so you'll get used to how it works. </div><br>","0","","","","","","","","","","","","",""
"image-selector-fb","128","489501","0.0-37.0-0.0","null","pics2/VE4.jpg,pics2/SA5.jpg","","","","","","","false","null","","","noS.png","","",""
"image-slider-2AFC","129","494518","0.0-37.0-1.0","null","","","","null","","","","","","","","sizeS.png","","",""
"html-keyboard-response","130","495327","0.0-37.0-2.0","null","","","","","","","null","","","","","","","",""
"image-selector-fb","131","498356","0.0-37.1-0.1","null","pics2/SA1.jpg,pics2/SA5.jpg","","","","","","","false","null","","","noS.png","","",""
"image-slider-2AFC","132","501415","0.0-37.1-1.1","3049","","","","-40","","","","","","","","sizeS.png","1638","-40",""
"html-keyboard-response","133","502221","0.0-37.1-2.1","null","","","","","","","null","","","","","","","",""
"image-selector-fb","134","506733","0.0-37.2-0.2","null","pics2/FR5.jpg,pics2/FR6.jpg","","","","","","","false","null","","","sizeS.png","","",""
"image-slider-2AFC","135","506736","0.0-37.2-1.2","null","","","","null","","","","","","","","heartS.png","","",""
"html-keyboard-response","136","507502","0.0-37.2-2.2","null","","","","","","","null","","","","","","","",""
"image-selector-fb","137","509950","0.0-37.3-0.3","1933","pics2/FR5.jpg,pics2/SA5.jpg","","","","","","","false","0","","","sizeS.png","","",""
"image-slider-2AFC","138","514958","0.0-37.3-1.3","4999","","","","-42","","","","","","","","sizeS.png","3542","-42",""
"html-keyboard-response","139","515712","0.0-37.3-2.3","null","","","","","","","null","","","","","","","",""
"image-selector-fb","140","518726","0.0-37.4-0.4","null","pics2/SA3.jpg,pics2/VE3.jpg","","","","","","","false","null","","","noS.png","","",""
"image-slider-2AFC","141","523735","0.0-37.4-1.4","null","","","","null","","","","","","","","sizeS.png","4911","-53",""
"html-keyboard-response","142","524492","0.0-37.4-2.4","null","","","","","","","null","","","","","","","",""
"image-selector-fb","143","529004","0.0-37.5-0.5","null","pics2/VE6.jpg,pics2/VE4.jpg","","","","","","","false","null","","","heartS.png","","",""
"image-slider-2AFC","144","529006","0.0-37.5-1.5","null","","","","null","","","","","","","","sizeS.png","","",""
"html-keyboard-response","145","529860","0.0-37.5-2.5","null","","","","","","","null","","","","","","","",""
"image-selector-fb","146","533379","0.0-37.6-0.6","3003","pics2/FR6.jpg,pics2/VE6.jpg","","","","","","","false","0","","","sizeS.png","","",""
"image-slider-2AFC","147","537429","0.0-37.6-1.6","4039","","","","-81","","","","","","","","heartS.png","2865","-81",""
"html-keyboard-response","148","538134","0.0-37.6-2.6","null","","","","","","","null","","","","","","","",""
"image-selector-fb","149","541156","0.0-37.7-0.7","null","pics2/SW6.jpg,pics2/VE3.jpg","","","","","","","false","null","","","noS.png","","",""
"image-slider-2AFC","150","544750","0.0-37.7-1.7","3583","","","","-82","","","","","","","","heartS.png","2498","-82",""
"html-keyboard-response","151","545457","0.0-37.7-2.7","null","","","","","","","null","","","","","","","",""
"image-selector-fb","152","548479","0.0-37.8-0.8","null","pics2/VE5.jpg,pics2/SA5.jpg","","","","","","","false","null","","","noS.png","","",""
"image-slider-2AFC","153","553492","0.0-37.8-1.8","null","","","","null","","","","","","","","heartS.png","4653","-64",""
"html-keyboard-response","154","554346","0.0-37.8-2.8","null","","","","","","","null","","","","","","","",""
"image-selector-fb","155","557466","0.0-37.9-0.9","2603","pics2/FR5.jpg,pics2/SW6.jpg","","","","","","","true","1","","","sizeS.png","","",""
"image-slider-2AFC","156","560283","0.0-37.9-1.9","2806","","","","56","","","","","","","","heartS.png","2094","56",""
"html-keyboard-response","157","561090","0.0-37.9-2.9","null","","","","","","","null","","","","","","","",""
"image-selector-fb","158","562973","0.0-37.10-0.10","1368","pics2/VE2.jpg,pics2/SA3.jpg","","","","","","","true","1","","","sizeS.png","","",""
"image-slider-2AFC","159","565555","0.0-37.10-1.10","2571","","","","55","","","","","","","","heartS.png","1859","55",""
"html-keyboard-response","160","566310","0.0-37.10-2.10","null","","","","","","","null","","","","","","","",""
"image-selector-fb","161","569332","0.0-37.11-0.11","null","pics2/VE4.jpg,pics2/SW6.jpg","","","","","","","false","null","","","noS.png","","",""
"image-slider-2AFC","162","571867","0.0-37.11-1.11","2524","","","","56","","","","","","","","heartS.png","1528","56",""
"html-keyboard-response","163","572573","0.0-37.11-2.11","null","","","","","","","null","","","","","","","",""
"html-button-response","164","575209","0.0-38.0","2632","<i><font size=10>Good job!</font></i> <br><br>Before we begin, you have a chance to review the rules, in case something was not clear.<br><br>","0","","","","","","","","","","","","",""
"instructions","165","586359","0.0-39.0","11148","","","","","","","","","","","","","","","[{""page_index"":0,""viewing_time"":3759},{""page_index"":1,""viewing_time"":5741},{""page_index"":2,""viewing_time"":1646}]"
"html-button-response","166","593963","0.0-40.0","7600","<div style='width: 900px;'> <font size='40'>Great! Now you're ready to begin</font><br><br>The main part of the experiment will consist of <u>3 blocks</u>. Each block consists of 66 decisions and judgements. You will have time for a short break between blocks.<br><br><br><i><u>Do your best to respond within the time limit.</u></i><br><br><i> Press the button to start the experiment<br><br></i>","0","","","","","","","","","","","","",""
"image-selector-fb","167","596829","0.0-41.0-0.0","2355","pics2/SA2.jpg,pics2/SA4.jpg","","","","","","","true","1","","","heartS.png","","",""
"image-slider-2AFC","168","599899","0.0-41.0-1.0","3058","","","","51","","","","","","","","heartS.png","2130","51",""
"html-keyboard-response","169","600655","0.0-41.0-2.0","null","","","","","","","null","","","","","","","",""
"image-selector-fb","170","603676","0.0-41.1-0.1","null","pics2/FR4.jpg,pics2/SW1.jpg","","","","","","","false","null","","","noS.png","","",""
"image-slider-2AFC","171","606897","0.0-41.1-1.1","3211","","","","-59","","","","","","","","heartS.png","2242","-59",""
"html-keyboard-response","172","607703","0.0-41.1-2.1","null","","","","","","","null","","","","","","","",""
"image-selector-fb","173","610389","0.0-41.2-0.2","2171","pics2/SA6.jpg,pics2/SA4.jpg","","","","","","","true","1","","","heartS.png","","",""
"image-slider-2AFC","174","612963","0.0-41.2-1.2","2562","","","","71","","","","","","","","heartS.png","1839","71",""
"html-keyboard-response","175","613718","0.0-41.2-2.2","null","","","","","","","null","","","","","","","",""
"image-selector-fb","176","616739","0.0-41.3-0.3","null","pics2/SW4.jpg,pics2/FR3.jpg","","","","","","","false","null","","","noS.png","","",""
"image-slider-2AFC","177","620390","0.0-41.3-1.3","3642","","","","-50","","","","","","","","heartS.png","2685","-50",""
"html-keyboard-response","178","621146","0.0-41.3-2.3","null","","","","","","","null","","","","","","","",""
"image-selector-fb","179","624421","0.0-41.4-0.4","2761","pics2/SW1.jpg,pics2/SW4.jpg","","","","","","","true","1","","","heartS.png","","",""
"image-slider-2AFC","180","628827","0.0-41.4-1.4","4402","","","","-55","","","","","","","","heartS.png","1798,3124,3467","63,-50,-55",""
"html-keyboard-response","181","629683","0.0-41.4-2.4","null","","","","","","","null","","","","","","","",""
"image-selector-fb","182","631499","0.0-41.5-0.5","1302","pics2/FR2.jpg,pics2/SW5.jpg","","","","","","","true","1","","","heartS.png","","",""
"image-slider-2AFC","183","634413","0.0-41.5-1.5","2903","","","","64","","","","","","","","heartS.png","1945","64",""
"html-keyboard-response","184","635232","0.0-41.5-2.5","null","","","","","","","null","","","","","","","",""
"image-selector-fb","185","638243","0.0-41.6-0.6","null","pics2/SA6.jpg,pics2/SA2.jpg","","","","","","","false","null","","","noS.png","","",""
"image-slider-2AFC","186","643256","0.0-41.6-1.6","null","","","","null","","","","","","","","heartS.png","3296","-54",""
"html-keyboard-response","187","644111","0.0-41.6-2.6","null","","","","","","","null","","","","","","","",""
"image-selector-fb","188","646323","0.0-41.7-0.7","1698","pics2/SW5.jpg,pics2/FR3.jpg","","","","","","","false","0","","","heartS.png","","",""
"image-slider-2AFC","189","649807","0.0-41.7-1.7","3479","","","","-59","","","","","","","","sizeS.png","1611","-59",""
"html-keyboard-response","190","650612","0.0-41.7-2.7","null","","","","","","","null","","","","","","","",""
"image-selector-fb","191","654665","0.0-41.8-0.8","3538","pics2/FR3.jpg,pics2/SW2.jpg","","","","","","","true","1","","","heartS.png","","",""
"image-slider-2AFC","192","656872","0.0-41.8-1.8","2195","","","","59","","","","","","","","sizeS.png","1492","59",""
"html-keyboard-response","193","657728","0.0-41.8-2.8","null","","","","","","","null","","","","","","","",""
"image-selector-fb","194","659925","0.0-41.9-0.9","1683","pics2/FR3.jpg,pics2/SW3.jpg","","","","","","","true","1","","","heartS.png","","",""
"image-slider-2AFC","195","662545","0.0-41.9-1.9","2609","","","","54","","","","","","","","heartS.png","1721","54",""
"html-keyboard-response","196","663352","0.0-41.9-2.9","null","","","","","","","null","","","","","","","",""
"image-selector-fb","197","666194","0.0-41.10-0.10","2334","pics2/SW1.jpg,pics2/SW3.jpg","","","","","","","true","1","","","heartS.png","","",""
"image-slider-2AFC","198","668433","0.0-41.10-1.10","2228","","","","69","","","","","","","","heartS.png","1496","69",""
"html-keyboard-response","199","669188","0.0-41.10-2.10","null","","","","","","","null","","","","","","","",""
"image-selector-fb","200","671563","0.0-41.11-0.11","1860","pics2/FR3.jpg,pics2/FR1.jpg","","","","","","","false","0","","","heartS.png","","",""
"image-slider-2AFC","201","674153","0.0-41.11-1.11","2588","","","","-58","","","","","","","","sizeS.png","1788","-58",""
"html-keyboard-response","202","674959","0.0-41.11-2.11","null","","","","","","","null","","","","","","","",""
"image-selector-fb","203","677512","0.0-41.12-0.12","2037","pics2/SW4.jpg,pics2/SA4.jpg","","","","","","","true","1","","","sizeS.png","","",""
"image-slider-2AFC","204","679915","0.0-41.12-1.12","2393","","","","63","","","","","","","","heartS.png","1721","63",""
"html-keyboard-response","205","680721","0.0-41.12-2.12","null","","","","","","","null","","","","","","","",""
"image-selector-fb","206","683745","0.0-41.13-0.13","null","pics2/SW3.jpg,pics2/FR1.jpg","","","","","","","false","null","","","noS.png","","",""
"image-slider-2AFC","207","687509","0.0-41.13-1.13","3754","","","","-50","","","","","","","","sizeS.png","2777","-50",""
"html-keyboard-response","208","688313","0.0-41.13-2.13","null","","","","","","","null","","","","","","","",""
"image-selector-fb","209","691333","0.0-41.14-0.14","null","pics2/FR1.jpg,pics2/SA2.jpg","","","","","","","false","null","","","noS.png","","",""
"image-slider-2AFC","210","696083","0.0-41.14-1.14","4745","","","","65","","","","","","","","sizeS.png","3915","65",""
"html-keyboard-response","211","696802","0.0-41.14-2.14","null","","","","","","","null","","","","","","","",""
"image-selector-fb","212","699823","0.0-41.15-0.15","null","pics2/FR4.jpg,pics2/SA2.jpg","","","","","","","false","null","","","noS.png","","",""
"image-slider-2AFC","213","704129","0.0-41.15-1.15","4296","","","","60","","","","","","","","sizeS.png","3584","60",""
"html-keyboard-response","214","704886","0.0-41.15-2.15","null","","","","","","","null","","","","","","","",""
"image-selector-fb","215","707772","0.0-41.16-0.16","2371","pics2/SW2.jpg,pics2/SW1.jpg","","","","","","","true","1","","","sizeS.png","","",""
"image-slider-2AFC","216","710646","0.0-41.16-1.16","2864","","","","60","","","","","","","","heartS.png","1731","60",""
"html-keyboard-response","217","711454","0.0-41.16-2.16","null","","","","","","","null","","","","","","","",""
"image-selector-fb","218","715160","0.0-41.17-0.17","3192","pics2/FR3.jpg,pics2/SW1.jpg","","","","","","","true","1","","","sizeS.png","","",""
"image-slider-2AFC","219","717398","0.0-41.17-1.17","2226","","","","80","","","","","","","","sizeS.png","1347","80",""
"html-keyboard-response","220","718254","0.0-41.17-2.17","null","","","","","","","null","","","","","","","",""
"image-selector-fb","221","721275","0.0-41.18-0.18","null","pics2/SA6.jpg,pics2/SW5.jpg","","","","","","","false","null","","","noS.png","","",""
"image-slider-2AFC","222","724953","0.0-41.18-1.18","3666","","","","-57","","","","","","","","heartS.png","2573","-57",""
"html-keyboard-response","223","725809","0.0-41.18-2.18","null","","","","","","","null","","","","","","","",""
"image-selector-fb","224","727713","0.0-41.19-0.19","1391","pics2/SW1.jpg,pics2/SW2.jpg","","","","","","","true","1","","","heartS.png","","",""
"image-slider-2AFC","225","730707","0.0-41.19-1.19","2984","","","","-51","","","","","","","","sizeS.png","2351","-51",""
"html-keyboard-response","226","731513","0.0-41.19-2.19","null","","","","","","","null","","","","","","","",""
"image-selector-fb","227","733945","0.0-41.20-0.20","1916","pics2/SW2.jpg,pics2/FR3.jpg","","","","","","","false","0","","","sizeS.png","","",""
"image-slider-2AFC","228","736262","0.0-41.20-1.20","2307","","","","-45","","","","","","","","sizeS.png","1489","-45",""
"html-keyboard-response","229","737117","0.0-41.20-2.20","null","","","","","","","null","","","","","","","",""
"image-selector-fb","230","740137","0.0-41.21-0.21","null","pics2/SW2.jpg,pics2/FR4.jpg","","","","","","","false","null","","","noS.png","","",""
"image-slider-2AFC","231","743484","0.0-41.21-1.21","3335","","","","-64","","","","","","","","sizeS.png","2399","-64",""
"html-keyboard-response","232","744189","0.0-41.21-2.21","null","","","","","","","null","","","","","","","",""
"image-selector-fb","233","748287","0.0-41.22-0.22","3582","pics2/SW2.jpg,pics2/FR2.jpg","","","","","","","true","1","","","sizeS.png","","",""
"image-slider-2AFC","234","750941","0.0-41.22-1.22","2647","","","","57","","","","","","","","sizeS.png","1582","57",""
"html-keyboard-response","235","751747","0.0-41.22-2.22","null","","","","","","","null","","","","","","","",""
"image-selector-fb","236","753519","0.0-41.23-0.23","1253","pics2/SA4.jpg,pics2/SW5.jpg","","","","","","","false","0","","","sizeS.png","","",""
"image-slider-2AFC","237","755761","0.0-41.23-1.23","2235","","","","-44","","","","","","","","heartS.png","1300","-44",""
"html-keyboard-response","238","756468","0.0-41.23-2.23","null","","","","","","","null","","","","","","","",""
"image-selector-fb","239","758728","0.0-41.24-0.24","1745","pics2/SW5.jpg,pics2/SA6.jpg","","","","","","","true","1","","","sizeS.png","","",""
"image-slider-2AFC","240","762983","0.0-41.24-1.24","4244","","","","-39","","","","","","","","heartS.png","3093","-39",""
"html-keyboard-response","241","763839","0.0-41.24-2.24","null","","","","","","","null","","","","","","","",""
"image-selector-fb","242","765859","0.0-41.25-0.25","1506","pics2/SA2.jpg,pics2/SW5.jpg","","","","","","","true","1","","","heartS.png","","",""
"image-slider-2AFC","243","768049","0.0-41.25-1.25","2179","","","","62","","","","","","","","sizeS.png","1309","62",""
"html-keyboard-response","244","768905","0.0-41.25-2.25","null","","","","","","","null","","","","","","","",""
"image-selector-fb","245","771508","0.0-41.26-0.26","2087","pics2/SW2.jpg,pics2/SA2.jpg","","","","","","","false","0","","","sizeS.png","","",""
"image-slider-2AFC","246","774153","0.0-41.26-1.26","2635","","","","-84","","","","","","","","heartS.png","1220","-84",""
"html-keyboard-response","247","775009","0.0-41.26-2.26","null","","","","","","","null","","","","","","","",""
"image-selector-fb","248","776569","0.0-41.27-0.27","1045","pics2/SA2.jpg,pics2/FR4.jpg","","","","","","","true","1","","","heartS.png","","",""
"image-slider-2AFC","249","779433","0.0-41.27-1.27","2858","","","","51","","","","","","","","sizeS.png","1900","51",""
"html-keyboard-response","250","780239","0.0-41.27-2.27","null","","","","","","","null","","","","","","","",""
"image-selector-fb","251","782092","0.0-41.28-0.28","1338","pics2/SW4.jpg,pics2/FR1.jpg","","","","","","","false","0","","","heartS.png","","",""
"image-slider-2AFC","252","784351","0.0-41.28-1.28","2248","","","","-41","","","","","","","","heartS.png","1115","-41",""
"html-keyboard-response","253","785157","0.0-41.28-2.28","null","","","","","","","null","","","","","","","",""
"image-selector-fb","254","787099","0.0-41.29-0.29","1416","pics2/SW5.jpg,pics2/SW2.jpg","","","","","","","false","0","","","heartS.png","","",""
"image-slider-2AFC","255","789150","0.0-41.29-1.29","2042","","","","-50","","","","","","","","heartS.png","1046","-50",""
"html-keyboard-response","256","789955","0.0-41.29-2.29","null","","","","","","","null","","","","","","","",""
"image-selector-fb","257","793220","0.0-41.30-0.30","2751","pics2/SW4.jpg,pics2/SW1.jpg","","","","","","","false","0","","","sizeS.png","","",""
"image-slider-2AFC","258","795340","0.0-41.30-1.30","2110","","","","-57","","","","","","","","heartS.png","1301","-57",""
"html-keyboard-response","259","796161","0.0-41.30-2.30","null","","","","","","","null","","","","","","","",""
"image-selector-fb","260","798273","0.0-41.31-0.31","1600","pics2/SA2.jpg,pics2/FR1.jpg","","","","","","","false","0","","","heartS.png","","",""
"image-slider-2AFC","261","800377","0.0-41.31-1.31","2096","","","","-49","","","","","","","","heartS.png","1279","-49",""
"html-keyboard-response","262","801082","0.0-41.31-2.31","null","","","","","","","null","","","","","","","",""
"image-selector-fb","263","803567","0.0-41.32-0.32","1977","pics2/FR2.jpg,pics2/SA4.jpg","","","","","","","true","1","","","heartS.png","","",""
"image-slider-2AFC","264","805658","0.0-41.32-1.32","2081","","","","53","","","","","","","","sizeS.png","1387","53",""
"html-keyboard-response","265","806364","0.0-41.32-2.32","null","","","","","","","null","","","","","","","",""
"image-selector-fb","266","810237","0.0-41.33-0.33","3359","pics2/SA4.jpg,pics2/SW2.jpg","","","","","","","false","0","","","heartS.png","","",""
"image-slider-2AFC","267","812565","0.0-41.33-1.33","2317","","","","-52","","","","","","","","sizeS.png","1243","-52",""
"html-keyboard-response","268","813420","0.0-41.33-2.33","null","","","","","","","null","","","","","","","",""
"image-selector-fb","269","815705","0.0-41.34-0.34","1772","pics2/FR4.jpg,pics2/SW5.jpg","","","","","","","true","1","","","heartS.png","","",""
"image-slider-2AFC","270","817620","0.0-41.34-1.34","1909","","","","61","","","","","","","","sizeS.png","1225","61",""
"html-keyboard-response","271","818427","0.0-41.34-2.34","null","","","","","","","null","","","","","","","",""
"image-selector-fb","272","820035","0.0-41.35-0.35","1096","pics2/SW3.jpg,pics2/SW1.jpg","","","","","","","false","0","","","sizeS.png","","",""
"image-slider-2AFC","273","822177","0.0-41.35-1.35","2131","","","","-31","","","","","","","","sizeS.png","997","-31",""
"html-keyboard-response","274","822883","0.0-41.35-2.35","null","","","","","","","null","","","","","","","",""
"image-selector-fb","275","825903","0.0-41.36-0.36","null","pics2/SW5.jpg,pics2/SA2.jpg","","","","","","","false","null","","","noS.png","","",""
"image-slider-2AFC","276","830916","0.0-41.36-1.36","null","","","","null","","","","","","","","heartS.png","4009","-42",""
"html-keyboard-response","277","831621","0.0-41.36-2.36","null","","","","","","","null","","","","","","","",""
"image-selector-fb","278","834641","0.0-41.37-0.37","null","pics2/FR2.jpg,pics2/SW2.jpg","","","","","","","false","null","","","noS.png","","",""
"image-slider-2AFC","279","838687","0.0-41.37-1.37","4035","","","","46","","","","","","","","sizeS.png","3420","46",""
"html-keyboard-response","280","839493","0.0-41.37-2.37","null","","","","","","","null","","","","","","","",""
"image-selector-fb","281","841572","0.0-41.38-0.38","1565","pics2/FR2.jpg,pics2/FR1.jpg","","","","","","","false","0","","","heartS.png","","",""
"image-slider-2AFC","282","843606","0.0-41.38-1.38","2022","","","","-55","","","","","","","","sizeS.png","1144","-55",""
"html-keyboard-response","283","844313","0.0-41.38-2.38","null","","","","","","","null","","","","","","","",""
"image-selector-fb","284","846237","0.0-41.39-0.39","1409","pics2/SA4.jpg,pics2/FR1.jpg","","","","","","","false","0","","","heartS.png","","",""
"image-slider-2AFC","285","848829","0.0-41.39-1.39","2583","","","","-48","","","","","","","","sizeS.png","1489","-48",""
"html-keyboard-response","286","849535","0.0-41.39-2.39","null","","","","","","","null","","","","","","","",""
"image-selector-fb","287","851376","0.0-41.40-0.40","1326","pics2/SA6.jpg,pics2/SW3.jpg","","","","","","","true","1","","","heartS.png","","",""
"image-slider-2AFC","288","853316","0.0-41.40-1.40","1930","","","","55","","","","","","","","sizeS.png","1236","55",""
"html-keyboard-response","289","854023","0.0-41.40-2.40","null","","","","","","","null","","","","","","","",""
"image-selector-fb","290","857416","0.0-41.41-0.41","2879","pics2/FR1.jpg,pics2/FR3.jpg","","","","","","","true","1","","","sizeS.png","","",""
"image-slider-2AFC","291","860135","0.0-41.41-1.41","2709","","","","50","","","","","","","","heartS.png","1799","50",""
"html-keyboard-response","292","860890","0.0-41.41-2.41","null","","","","","","","null","","","","","","","",""
"image-selector-fb","293","863909","0.0-41.42-0.42","null","pics2/SW3.jpg,pics2/FR4.jpg","","","","","","","false","null","","","noS.png","","",""
"image-slider-2AFC","294","867756","0.0-41.42-1.42","3837","","","","-47","","","","","","","","sizeS.png","2959","-47",""
"html-keyboard-response","295","868462","0.0-41.42-2.42","null","","","","","","","null","","","","","","","",""
"image-selector-fb","296","870115","0.0-41.43-0.43","1126","pics2/FR2.jpg,pics2/SW1.jpg","","","","","","","true","1","","","sizeS.png","","",""
"image-slider-2AFC","297","872644","0.0-41.43-1.43","2519","","","","54","","","","","","","","sizeS.png","1504","54",""
"html-keyboard-response","298","873500","0.0-41.43-2.43","null","","","","","","","null","","","","","","","",""
"image-selector-fb","299","876517","0.0-41.44-0.44","null","pics2/SW1.jpg,pics2/SW4.jpg","","","","","","","false","null","","","noS.png","","",""
"image-slider-2AFC","300","879296","0.0-41.44-1.44","2768","","","","-58","","","","","","","","heartS.png","1891","-58",""
"html-keyboard-response","301","880101","0.0-41.44-2.44","null","","","","","","","null","","","","","","","",""
"image-selector-fb","302","883122","0.0-41.45-0.45","null","pics2/FR4.jpg,pics2/SA4.jpg","","","","","","","false","null","","","noS.png","","",""
"image-slider-2AFC","303","886027","0.0-41.45-1.45","2894","","","","42","","","","","","","","heartS.png","2004","42",""
"html-keyboard-response","304","886884","0.0-41.45-2.45","null","","","","","","","null","","","","","","","",""
"image-selector-fb","305","888668","0.0-41.46-0.46","1272","pics2/FR4.jpg,pics2/FR2.jpg","","","","","","","true","1","","","heartS.png","","",""
"image-slider-2AFC","306","891043","0.0-41.46-1.46","2366","","","","49","","","","","","","","sizeS.png","1506","49",""
"html-keyboard-response","307","891899","0.0-41.46-2.46","null","","","","","","","null","","","","","","","",""
"image-selector-fb","308","893647","0.0-41.47-0.47","1233","pics2/SW5.jpg,pics2/SA2.jpg","","","","","","","false","0","","","sizeS.png","","",""
"image-slider-2AFC","309","895845","0.0-41.47-1.47","2187","","","","-48","","","","","","","","heartS.png","1151","-48",""
"html-keyboard-response","310","896707","0.0-41.47-2.47","null","","","","","","","null","","","","","","","",""
"image-selector-fb","311","898359","0.0-41.48-0.48","1138","pics2/FR3.jpg,pics2/FR4.jpg","","","","","","","true","1","","","sizeS.png","","",""
"image-slider-2AFC","312","900450","0.0-41.48-1.48","2080","","","","44","","","","","","","","heartS.png","1231","44",""
"html-keyboard-response","313","901255","0.0-41.48-2.48","null","","","","","","","null","","","","","","","",""
"image-selector-fb","314","902975","0.0-41.49-0.49","1205","pics2/FR2.jpg,pics2/SA6.jpg","","","","","","","true","1","","","heartS.png","","",""
"image-slider-2AFC","315","904860","0.0-41.49-1.49","1874","","","","58","","","","","","","","sizeS.png","1141","58",""
"html-keyboard-response","316","905666","0.0-41.49-2.49","null","","","","","","","null","","","","","","","",""
"image-selector-fb","317","907249","0.0-41.50-0.50","1069","pics2/SA6.jpg,pics2/SW1.jpg","","","","","","","true","1","","","sizeS.png","","",""
"image-slider-2AFC","318","909613","0.0-41.50-1.50","2355","","","","48","","","","","","","","heartS.png","1377","48",""
"html-keyboard-response","319","910369","0.0-41.50-2.50","null","","","","","","","null","","","","","","","",""
"image-selector-fb","320","912415","0.0-41.51-0.51","1518","pics2/FR4.jpg,pics2/FR3.jpg","","","","","","","false","0","","","heartS.png","","",""
"image-slider-2AFC","321","915151","0.0-41.51-1.51","2728","","","","-53","","","","","","","","sizeS.png","1860","-53",""
"html-keyboard-response","322","915905","0.0-41.51-2.51","null","","","","","","","null","","","","","","","",""
"image-selector-fb","323","918926","0.0-41.52-0.52","null","pics2/SA6.jpg,pics2/FR4.jpg","","","","","","","false","null","","","noS.png","","",""
"image-slider-2AFC","324","923488","0.0-41.52-1.52","4552","","","","-47","","","","","","","","heartS.png","2565","-47",""
"html-keyboard-response","325","924294","0.0-41.52-2.52","null","","","","","","","null","","","","","","","",""
"image-selector-fb","326","927315","0.0-41.53-0.53","null","pics2/FR2.jpg,pics2/FR3.jpg","","","","","","","false","null","","","noS.png","","",""
"image-slider-2AFC","327","932328","0.0-41.53-1.53","null","","","","null","","","","","","","","sizeS.png","","",""
"html-keyboard-response","328","933031","0.0-41.53-2.53","null","","","","","","","null","","","","","","","",""
"image-selector-fb","329","934797","0.0-41.54-0.54","1251","pics2/FR1.jpg,pics2/SW1.jpg","","","","","","","true","1","","","sizeS.png","","",""
"image-slider-2AFC","330","937316","0.0-41.54-1.54","2510","","","","54","","","","","","","","sizeS.png","1650","54",""
"html-keyboard-response","331","938171","0.0-41.54-2.54","null","","","","","","","null","","","","","","","",""
"image-selector-fb","332","939980","0.0-41.55-0.55","1294","pics2/SW5.jpg,pics2/SW1.jpg","","","","","","","true","1","","","sizeS.png","","",""
"image-slider-2AFC","333","942609","0.0-41.55-1.55","2619","","","","43","","","","","","","","heartS.png","1730","43",""
"html-keyboard-response","334","943315","0.0-41.55-2.55","null","","","","","","","null","","","","","","","",""
"image-selector-fb","335","946104","0.0-41.56-0.56","2275","pics2/SW2.jpg,pics2/SA4.jpg","","","","","","","true","1","","","sizeS.png","","",""
"image-slider-2AFC","336","947881","0.0-41.56-1.56","1767","","","","48","","","","","","","","heartS.png","1133","48",""
"html-keyboard-response","337","948587","0.0-41.56-2.56","null","","","","","","","null","","","","","","","",""
"image-selector-fb","338","951603","0.0-41.57-0.57","null","pics2/SA6.jpg,pics2/SW2.jpg","","","","","","","false","null","","","noS.png","","",""
"image-slider-2AFC","339","955162","0.0-41.57-1.57","3550","","","","48","","","","","","","","sizeS.png","2621","48",""
"html-keyboard-response","340","956018","0.0-41.57-2.57","null","","","","","","","null","","","","","","","",""
"image-selector-fb","341","958049","0.0-41.58-0.58","1517","pics2/SW3.jpg,pics2/SA4.jpg","","","","","","","true","1","","","sizeS.png","","",""
"image-slider-2AFC","342","960865","0.0-41.58-1.58","2810","","","","53","","","","","","","","sizeS.png","1215","53",""
"html-keyboard-response","343","961672","0.0-41.58-2.58","null","","","","","","","null","","","","","","","",""
"image-selector-fb","344","964692","0.0-41.59-0.59","null","pics2/SW1.jpg,pics2/SW5.jpg","","","","","","","false","null","","","noS.png","","",""
"image-slider-2AFC","345","969704","0.0-41.59-1.59","null","","","","null","","","","","","","","heartS.png","4465","59",""
"html-keyboard-response","346","970573","0.0-41.59-2.59","null","","","","","","","null","","","","","","","",""
"image-selector-fb","347","973592","0.0-41.60-0.60","null","pics2/SW1.jpg,pics2/FR3.jpg","","","","","","","false","null","","","noS.png","","",""
"image-slider-2AFC","348","976966","0.0-41.60-1.60","3364","","","","-50","","","","","","","","sizeS.png","2493","-50",""
"html-keyboard-response","349","977672","0.0-41.60-2.60","null","","","","","","","null","","","","","","","",""
"image-selector-fb","350","979334","0.0-41.61-0.61","1147","pics2/FR1.jpg,pics2/SW2.jpg","","","","","","","true","1","","","sizeS.png","","",""
"image-slider-2AFC","351","981511","0.0-41.61-1.61","2167","","","","56","","","","","","","","sizeS.png","1494","56",""
"html-keyboard-response","352","982317","0.0-41.61-2.61","null","","","","","","","null","","","","","","","",""
"image-selector-fb","353","983771","0.0-41.62-0.62","941","pics2/SW2.jpg,pics2/SW5.jpg","","","","","","","true","1","","","sizeS.png","","",""
"image-slider-2AFC","354","985431","0.0-41.62-1.62","1648","","","","64","","","","","","","","sizeS.png","955","64",""
"html-keyboard-response","355","986186","0.0-41.62-2.62","null","","","","","","","null","","","","","","","",""
"image-selector-fb","356","987711","0.0-41.63-0.63","1010","pics2/SA6.jpg,pics2/FR2.jpg","","","","","","","true","1","","","sizeS.png","","",""
"image-slider-2AFC","357","989762","0.0-41.63-1.63","2041","","","","76","","","","","","","","sizeS.png","1358","76",""
"html-keyboard-response","358","990519","0.0-41.63-2.63","null","","","","","","","null","","","","","","","",""
"image-selector-fb","359","993933","0.0-41.64-0.64","2901","pics2/SW2.jpg,pics2/FR4.jpg","","","","","","","false","0","","","sizeS.png","","",""
"image-slider-2AFC","360","996289","0.0-41.64-1.64","2349","","","","-52","","","","","","","","sizeS.png","1636","-52",""
"html-keyboard-response","361","997145","0.0-41.64-2.64","null","","","","","","","null","","","","","","","",""
"image-selector-fb","362","998754","0.0-41.65-0.65","1095","pics2/FR1.jpg,pics2/SW3.jpg","","","","","","","true","1","","","heartS.png","","",""
"image-slider-2AFC","363","1001062","0.0-41.65-1.65","2296","","","","54","","","","","","","","heartS.png","1446","54",""
"html-keyboard-response","364","1001868","0.0-41.65-2.65","null","","","","","","","null","","","","","","","",""
"pavlovia","365","1001931","0.0-42.0","","","","","","","","","","","","","","","",""
"html-keyboard-response","366","1006937","0.0-43.0","null","<div style='width: 700px;'> <font size=6><b>SHORT BREAK</font></b><br><br><i> Please wait 5 seconds to continue</i></div> ","","","","","","null","","","","","","","",""
"pavlovia","367","1006948","0.0-44.0","","","","","","","","","","","","","","","",""
"html-button-response","368","1014469","0.0-45.0","7515","<div style='width: 700px;'> <font size=6><b>BLOCK 2</font></b><br><br>Press the button whenever you feel ready to start the second block (there are 3 in total)</div>","0","","","","","","","","","","","","",""
"image-selector-fb","369","1016913","0.0-46.0-0.0","1934","pics2/SW3.jpg,pics2/FR3.jpg","","","","","","","false","0","","","sizeS.png","","",""
"image-slider-2AFC","370","1019484","0.0-46.0-1.0","2561","","","","-57","","","","","","","","heartS.png","1671","-57",""
"html-keyboard-response","371","1020290","0.0-46.0-2.0","null","","","","","","","null","","","","","","","",""
"image-selector-fb","372","1023310","0.0-46.1-0.1","null","pics2/FR1.jpg,pics2/SW2.jpg","","","","","","","false","null","","","noS.png","","",""
"image-slider-2AFC","373","1026703","0.0-46.1-1.1","3383","","","","66","","","","","","","","heartS.png","2593","66",""
"html-keyboard-response","374","1027572","0.0-46.1-2.1","null","","","","","","","null","","","","","","","",""
"image-selector-fb","375","1029218","0.0-46.2-0.2","1131","pics2/FR1.jpg,pics2/SA4.jpg","","","","","","","true","1","","","sizeS.png","","",""
"image-slider-2AFC","376","1031309","0.0-46.2-1.2","2081","","","","75","","","","","","","","sizeS.png","1230","75",""
"html-keyboard-response","377","1032063","0.0-46.2-2.2","null","","","","","","","null","","","","","","","",""
"image-selector-fb","378","1033673","0.0-46.3-0.3","1096","pics2/SW5.jpg,pics2/FR4.jpg","","","","","","","false","0","","","sizeS.png","","",""
"image-slider-2AFC","379","1036020","0.0-46.3-1.3","2336","","","","-53","","","","","","","","sizeS.png","1604","-53",""
"html-keyboard-response","380","1036729","0.0-46.3-2.3","null","","","","","","","null","","","","","","","",""
"image-selector-fb","381","1039748","0.0-46.4-0.4","null","pics2/SW2.jpg,pics2/SA4.jpg","","","","","","","false","null","","","noS.png","","",""
"image-slider-2AFC","382","1043028","0.0-46.4-1.4","3270","","","","67","","","","","","","","heartS.png","2605","67",""
"html-keyboard-response","383","1043834","0.0-46.4-2.4","null","","","","","","","null","","","","","","","",""
"image-selector-fb","384","1046854","0.0-46.5-0.5","null","pics2/FR1.jpg,pics2/SA6.jpg","","","","","","","false","null","","","noS.png","","",""
"image-slider-2AFC","385","1050445","0.0-46.5-1.5","3580","","","","40","","","","","","","","heartS.png","2563","40",""
"html-keyboard-response","386","1051302","0.0-46.5-2.5","null","","","","","","","null","","","","","","","",""
"image-selector-fb","387","1054325","0.0-46.6-0.6","null","pics2/FR1.jpg,pics2/FR3.jpg","","","","","","","false","null","","","noS.png","","",""
"image-slider-2AFC","388","1057264","0.0-46.6-1.6","2929","","","","58","","","","","","","","heartS.png","1913,2226","45,58",""
"html-keyboard-response","389","1057978","0.0-46.6-2.6","null","","","","","","","null","","","","","","","",""
"image-selector-fb","390","1059670","0.0-46.7-0.7","1178","pics2/SW4.jpg,pics2/SA2.jpg","","","","","","","false","0","","","sizeS.png","","",""
"image-slider-2AFC","391","1061577","0.0-46.7-1.7","1895","","","","-53","","","","","","","","heartS.png","986","-53",""
"html-keyboard-response","392","1062384","0.0-46.7-2.7","null","","","","","","","null","","","","","","","",""
"image-selector-fb","393","1064765","0.0-46.8-0.8","1867","pics2/SA6.jpg,pics2/SW4.jpg","","","","","","","true","1","","","heartS.png","","",""
"image-slider-2AFC","394","1066936","0.0-46.8-1.8","2164","","","","88","","","","","","","","sizeS.png","1325","88",""
"html-keyboard-response","395","1067643","0.0-46.8-2.8","null","","","","","","","null","","","","","","","",""
"image-selector-fb","396","1069116","0.0-46.9-0.9","961","pics2/SW1.jpg,pics2/FR1.jpg","","","","","","","false","0","","","heartS.png","","",""
"image-slider-2AFC","397","1071288","0.0-46.9-1.9","2160","","","","-62","","","","","","","","sizeS.png","1234","-62",""
"html-keyboard-response","398","1072094","0.0-46.9-2.9","null","","","","","","","null","","","","","","","",""
"image-selector-fb","399","1075114","0.0-46.10-0.10","null","pics2/FR2.jpg,pics2/SA2.jpg","","","","","","","false","null","","","noS.png","","",""
"image-slider-2AFC","400","1078762","0.0-46.10-1.10","3638","","","","34","","","","","","","","heartS.png","2720","34",""
"html-keyboard-response","401","1079620","0.0-46.10-2.10","null","","","","","","","null","","","","","","","",""
"image-selector-fb","402","1081298","0.0-46.11-0.11","1164","pics2/SW4.jpg,pics2/SW5.jpg","","","","","","","true","1","","","sizeS.png","","",""
"image-slider-2AFC","403","1083309","0.0-46.11-1.11","2001","","","","78","","","","","","","","sizeS.png","1279","78",""
"html-keyboard-response","404","1084014","0.0-46.11-2.11","null","","","","","","","null","","","","","","","",""
"image-selector-fb","405","1085589","0.0-46.12-0.12","1061","pics2/FR1.jpg,pics2/FR2.jpg","","","","","","","true","1","","","sizeS.png","","",""
"image-slider-2AFC","406","1088100","0.0-46.12-1.12","2501","","","","72","","","","","","","","heartS.png","1681","72",""
"html-keyboard-response","407","1088956","0.0-46.12-2.12","null","","","","","","","null","","","","","","","",""
"image-selector-fb","408","1090251","0.0-46.13-0.13","772","pics2/SA6.jpg,pics2/FR4.jpg","","","","","","","true","1","","","sizeS.png","","",""
"image-slider-2AFC","409","1092206","0.0-46.13-1.13","1945","","","","72","","","","","","","","sizeS.png","1103","72",""
"html-keyboard-response","410","1093062","0.0-46.13-2.13","null","","","","","","","null","","","","","","","",""
"image-selector-fb","411","1097579","0.0-46.14-0.14","null","pics2/FR1.jpg,pics2/SA2.jpg","","","","","","","false","null","","","sizeS.png","","",""
"image-slider-2AFC","412","1097583","0.0-46.14-1.14","null","","","","null","","","","","","","","sizeS.png","","",""
"html-keyboard-response","413","1098288","0.0-46.14-2.14","null","","","","","","","null","","","","","","","",""
"image-selector-fb","414","1101308","0.0-46.15-0.15","null","pics2/FR2.jpg,pics2/SW5.jpg","","","","","","","false","null","","","noS.png","","",""
"image-slider-2AFC","415","1105206","0.0-46.15-1.15","3887","","","","75","","","","","","","","heartS.png","2958","75",""
"html-keyboard-response","416","1106063","0.0-46.15-2.15","null","","","","","","","null","","","","","","","",""
"image-selector-fb","417","1110576","0.0-46.16-0.16","null","pics2/SA6.jpg,pics2/SA2.jpg","","","","","","","false","null","","","sizeS.png","","",""
"image-slider-2AFC","418","1110579","0.0-46.16-1.16","null","","","","null","","","","","","","","heartS.png","","",""
"html-keyboard-response","419","1111434","0.0-46.16-2.16","null","","","","","","","null","","","","","","","",""
"image-selector-fb","420","1114453","0.0-46.17-0.17","null","pics2/SW5.jpg,pics2/SA4.jpg","","","","","","","false","null","","","noS.png","","",""
"image-slider-2AFC","421","1117489","0.0-46.17-1.17","3025","","","","-75","","","","","","","","sizeS.png","2108","-75",""
"html-keyboard-response","422","1118295","0.0-46.17-2.17","null","","","","","","","null","","","","","","","",""
"image-selector-fb","423","1120819","0.0-46.18-0.18","2016","pics2/FR2.jpg,pics2/SA2.jpg","","","","","","","true","1","","","sizeS.png","","",""
"image-slider-2AFC","424","1122889","0.0-46.18-1.18","2063","","","","63","","","","","","","","sizeS.png","1231","63",""
"html-keyboard-response","425","1123745","0.0-46.18-2.18","null","","","","","","","null","","","","","","","",""
"image-selector-fb","426","1126059","0.0-46.19-0.19","1800","pics2/SA2.jpg,pics2/FR2.jpg","","","","","","","false","0","","","heartS.png","","",""
"image-slider-2AFC","427","1128298","0.0-46.19-1.19","2232","","","","-53","","","","","","","","sizeS.png","1385","-53",""
"html-keyboard-response","428","1129003","0.0-46.19-2.19","null","","","","","","","null","","","","","","","",""
"image-selector-fb","429","1130712","0.0-46.20-0.20","1194","pics2/FR4.jpg,pics2/SW1.jpg","","","","","","","false","0","","","heartS.png","","",""
"image-slider-2AFC","430","1133001","0.0-46.20-1.20","2280","","","","-40","","","","","","","","heartS.png","1245","-40",""
"html-keyboard-response","431","1133856","0.0-46.20-2.20","null","","","","","","","null","","","","","","","",""
"image-selector-fb","432","1136306","0.0-46.21-0.21","1935","pics2/SW1.jpg,pics2/SA4.jpg","","","","","","","true","1","","","heartS.png","","",""
"image-slider-2AFC","433","1138916","0.0-46.21-1.21","2599","","","","49","","","","","","","","sizeS.png","1720","49",""
"html-keyboard-response","434","1139773","0.0-46.21-2.21","null","","","","","","","null","","","","","","","",""
"image-selector-fb","435","1141512","0.0-46.22-0.22","1224","pics2/SA6.jpg,pics2/SW5.jpg","","","","","","","false","0","","","heartS.png","","",""
"image-slider-2AFC","436","1143599","0.0-46.22-1.22","2078","","","","-52","","","","","","","","sizeS.png","1249","-52",""
"html-keyboard-response","437","1144403","0.0-46.22-2.22","null","","","","","","","null","","","","","","","",""
"image-selector-fb","438","1145878","0.0-46.23-0.23","961","pics2/FR1.jpg,pics2/SA6.jpg","","","","","","","true","1","","","sizeS.png","","",""
"image-slider-2AFC","439","1148174","0.0-46.23-1.23","2286","","","","71","","","","","","","","sizeS.png","1495","71",""
"html-keyboard-response","440","1148930","0.0-46.23-2.23","null","","","","","","","null","","","","","","","",""
"image-selector-fb","441","1151953","0.0-46.24-0.24","null","pics2/FR4.jpg,pics2/SW4.jpg","","","","","","","false","null","","","noS.png","","",""
"image-slider-2AFC","442","1155688","0.0-46.24-1.24","3725","","","","-54","","","","","","","","sizeS.png","2925","-54",""
"html-keyboard-response","443","1156494","0.0-46.24-2.24","null","","","","","","","null","","","","","","","",""
"image-selector-fb","444","1158323","0.0-46.25-0.25","1314","pics2/SW3.jpg,pics2/SA2.jpg","","","","","","","false","0","","","sizeS.png","","",""
"image-slider-2AFC","445","1160110","0.0-46.25-1.25","1776","","","","-52","","","","","","","","sizeS.png","916","-52",""
"html-keyboard-response","446","1160917","0.0-46.25-2.25","null","","","","","","","null","","","","","","","",""
"image-selector-fb","447","1162789","0.0-46.26-0.26","1359","pics2/SA4.jpg,pics2/SW3.jpg","","","","","","","false","0","","","heartS.png","","",""
"image-slider-2AFC","448","1164886","0.0-46.26-1.26","2087","","","","-49","","","","","","","","heartS.png","945","-49",""
"html-keyboard-response","449","1165692","0.0-46.26-2.26","null","","","","","","","null","","","","","","","",""
"image-selector-fb","450","1167517","0.0-46.27-0.27","1308","pics2/FR3.jpg,pics2/FR2.jpg","","","","","","","false","0","","","sizeS.png","","",""
"image-slider-2AFC","451","1169881","0.0-46.27-1.27","2352","","","","-44","","","","","","","","heartS.png","1385","-44",""
"html-keyboard-response","452","1170650","0.0-46.27-2.27","null","","","","","","","null","","","","","","","",""
"image-selector-fb","453","1173669","0.0-46.28-0.28","null","pics2/FR1.jpg,pics2/SA4.jpg","","","","","","","false","null","","","noS.png","","",""
"image-slider-2AFC","454","1176317","0.0-46.28-1.28","2638","","","","56","","","","","","","","heartS.png","1984","56",""
"html-keyboard-response","455","1177074","0.0-46.28-2.28","null","","","","","","","null","","","","","","","",""
"image-selector-fb","456","1178745","0.0-46.29-0.29","1156","pics2/SW5.jpg,pics2/FR1.jpg","","","","","","","false","0","","","heartS.png","","",""
"image-slider-2AFC","457","1180792","0.0-46.29-1.29","2037","","","","-45","","","","","","","","heartS.png","1198","-45",""
"html-keyboard-response","458","1181559","0.0-46.29-2.29","null","","","","","","","null","","","","","","","",""
"image-selector-fb","459","1184581","0.0-46.30-0.30","null","pics2/SW4.jpg,pics2/SA2.jpg","","","","","","","false","null","","","noS.png","","",""
"image-slider-2AFC","460","1188499","0.0-46.30-1.30","3906","","","","-47","","","","","","","","sizeS.png","2813","-47",""
"html-keyboard-response","461","1189207","0.0-46.30-2.30","null","","","","","","","null","","","","","","","",""
"image-selector-fb","462","1192228","0.0-46.31-0.31","null","pics2/SA4.jpg,pics2/FR3.jpg","","","","","","","false","null","","","noS.png","","",""
"image-slider-2AFC","463","1195610","0.0-46.31-1.31","3373","","","","-58","","","","","","","","heartS.png","2465","-58",""
"html-keyboard-response","464","1196317","0.0-46.31-2.31","null","","","","","","","null","","","","","","","",""
"image-selector-fb","465","1199338","0.0-46.32-0.32","null","pics2/SW2.jpg,pics2/SA2.jpg","","","","","","","false","null","","","noS.png","","",""
"image-slider-2AFC","466","1202613","0.0-46.32-1.32","3264","","","","-60","","","","","","","","sizeS.png","2474","-60",""
"html-keyboard-response","467","1203319","0.0-46.32-2.32","null","","","","","","","null","","","","","","","",""
"image-selector-fb","468","1206339","0.0-46.33-0.33","null","pics2/FR1.jpg,pics2/SW1.jpg","","","","","","","false","null","","","noS.png","","",""
"image-slider-2AFC","469","1209325","0.0-46.33-1.33","2976","","","","51","","","","","","","","heartS.png","2213","51",""
"html-keyboard-response","470","1210180","0.0-46.33-2.33","null","","","","","","","null","","","","","","","",""
"image-selector-fb","471","1212064","0.0-46.34-0.34","1373","pics2/SA4.jpg,pics2/FR4.jpg","","","","","","","true","1","","","sizeS.png","","",""
"image-slider-2AFC","472","1214163","0.0-46.34-1.34","2088","","","","76","","","","","","","","heartS.png","1268","76",""
"html-keyboard-response","473","1215021","0.0-46.34-2.34","null","","","","","","","null","","","","","","","",""
"image-selector-fb","474","1216902","0.0-46.35-0.35","1367","pics2/SA6.jpg,pics2/FR1.jpg","","","","","","","false","0","","","heartS.png","","",""
"image-slider-2AFC","475","1219972","0.0-46.35-1.35","3058","","","","-51","","","","","","","","heartS.png","1239","-51",""
"html-keyboard-response","476","1220779","0.0-46.35-2.35","null","","","","","","","null","","","","","","","",""
"image-selector-fb","477","1223798","0.0-46.36-0.36","null","pics2/SA6.jpg,pics2/FR2.jpg","","","","","","","false","null","","","noS.png","","",""
"image-slider-2AFC","478","1227378","0.0-46.36-1.36","3570","","","","-57","","","","","","","","heartS.png","2749","-57",""
"html-keyboard-response","479","1228185","0.0-46.36-2.36","null","","","","","","","null","","","","","","","",""
"image-selector-fb","480","1229840","0.0-46.37-0.37","1140","pics2/FR3.jpg,pics2/SA2.jpg","","","","","","","false","0","","","sizeS.png","","",""
"image-slider-2AFC","481","1232638","0.0-46.37-1.37","2788","","","","-57","","","","","","","","sizeS.png","1841","-57",""
"html-keyboard-response","482","1233495","0.0-46.37-2.37","null","","","","","","","null","","","","","","","",""
"image-selector-fb","483","1236515","0.0-46.38-0.38","null","pics2/FR4.jpg,pics2/SW5.jpg","","","","","","","false","null","","","noS.png","","",""
"image-slider-2AFC","484","1240418","0.0-46.38-1.38","3899","","","","45","","","","","","","","sizeS.png","3273","45",""
"html-keyboard-response","485","1241175","0.0-46.38-2.38","null","","","","","","","null","","","","","","","",""
"image-selector-fb","486","1244198","0.0-46.39-0.39","null","pics2/FR4.jpg,pics2/FR3.jpg","","","","","","","false","null","","","noS.png","","",""
"image-slider-2AFC","487","1248017","0.0-46.39-1.39","3809","","","","-47","","","","","","","","heartS.png","2727","-47",""
"html-keyboard-response","488","1248724","0.0-46.39-2.39","null","","","","","","","null","","","","","","","",""
"image-selector-fb","489","1253038","0.0-46.40-0.40","3799","pics2/SW3.jpg,pics2/FR1.jpg","","","","","","","false","0","","","sizeS.png","","",""
"image-slider-2AFC","490","1255442","0.0-46.40-1.40","2394","","","","-85","","","","","","","","sizeS.png","1663","-85",""
"html-keyboard-response","491","1256199","0.0-46.40-2.40","null","","","","","","","null","","","","","","","",""
"image-selector-fb","492","1258817","0.0-46.41-0.41","2103","pics2/SW2.jpg,pics2/SA6.jpg","","","","","","","true","1","","","sizeS.png","","",""
"image-slider-2AFC","493","1261034","0.0-46.41-1.41","2210","","","","53","","","","","","","","heartS.png","1314","53",""
"html-keyboard-response","494","1261740","0.0-46.41-2.41","null","","","","","","","null","","","","","","","",""
"image-selector-fb","495","1264760","0.0-46.42-0.42","null","pics2/SA4.jpg,pics2/SW4.jpg","","","","","","","false","null","","","noS.png","","",""
"image-slider-2AFC","496","1269089","0.0-46.42-1.42","4317","","","","-64","","","","","","","","sizeS.png","3437","-64",""
"html-keyboard-response","497","1269895","0.0-46.42-2.42","null","","","","","","","null","","","","","","","",""
"image-selector-fb","498","1271816","0.0-46.43-0.43","1405","pics2/SA4.jpg,pics2/FR2.jpg","","","","","","","false","0","","","sizeS.png","","",""
"image-slider-2AFC","499","1274417","0.0-46.43-1.43","2589","","","","-68","","","","","","","","heartS.png","1516","-68",""
"html-keyboard-response","500","1275273","0.0-46.43-2.43","null","","","","","","","null","","","","","","","",""
"image-selector-fb","501","1278299","0.0-46.44-0.44","null","pics2/SW3.jpg,pics2/SW1.jpg","","","","","","","false","null","","","noS.png","","",""
"image-slider-2AFC","502","1281577","0.0-46.44-1.44","3267","","","","-61","","","","","","","","heartS.png","2506","-61",""
"html-keyboard-response","503","1282434","0.0-46.44-2.44","null","","","","","","","null","","","","","","","",""
"image-selector-fb","504","1284610","0.0-46.45-0.45","1663","pics2/SW5.jpg,pics2/FR2.jpg","","","","","","","false","0","","","sizeS.png","","",""
"image-slider-2AFC","505","1286897","0.0-46.45-1.45","2277","","","","-56","","","","","","","","sizeS.png","1526","-56",""
"html-keyboard-response","506","1287604","0.0-46.45-2.45","null","","","","","","","null","","","","","","","",""
"image-selector-fb","507","1289590","0.0-46.46-0.46","1471","pics2/FR3.jpg,pics2/SW5.jpg","","","","","","","true","1","","","sizeS.png","","",""
"image-slider-2AFC","508","1291670","0.0-46.46-1.46","2070","","","","56","","","","","","","","heartS.png","1359","56",""
"html-keyboard-response","509","1292375","0.0-46.46-2.46","null","","","","","","","null","","","","","","","",""
"image-selector-fb","510","1296403","0.0-46.47-0.47","3511","pics2/FR4.jpg,pics2/SA2.jpg","","","","","","","true","1","","","sizeS.png","","",""
"image-slider-2AFC","511","1298479","0.0-46.47-1.47","2065","","","","74","","","","","","","","heartS.png","1216","74",""
"html-keyboard-response","512","1299288","0.0-46.47-2.47","null","","","","","","","null","","","","","","","",""
"image-selector-fb","513","1301194","0.0-46.48-0.48","1390","pics2/FR4.jpg,pics2/SA6.jpg","","","","","","","false","0","","","heartS.png","","",""
"image-slider-2AFC","514","1303418","0.0-46.48-1.48","2215","","","","-61","","","","","","","","heartS.png","1247","-61",""
"html-keyboard-response","515","1304173","0.0-46.48-2.48","null","","","","","","","null","","","","","","","",""
"image-selector-fb","516","1305826","0.0-46.49-0.49","1137","pics2/SW1.jpg,pics2/FR2.jpg","","","","","","","false","0","","","heartS.png","","",""
"image-slider-2AFC","517","1308180","0.0-46.49-1.49","2345","","","","-58","","","","","","","","heartS.png","909","-58",""
"html-keyboard-response","518","1308887","0.0-46.49-2.49","null","","","","","","","null","","","","","","","",""
"image-selector-fb","519","1311908","0.0-46.50-0.50","null","pics2/FR1.jpg,pics2/FR2.jpg","","","","","","","false","null","","","noS.png","","",""
"image-slider-2AFC","520","1314451","0.0-46.50-1.50","2533","","","","62","","","","","","","","sizeS.png","1584","62",""
"html-keyboard-response","521","1315308","0.0-46.50-2.50","null","","","","","","","null","","","","","","","",""
"image-selector-fb","522","1317306","0.0-46.51-0.51","1485","pics2/SW3.jpg,pics2/SW4.jpg","","","","","","","false","0","","","sizeS.png","","",""
"image-slider-2AFC","523","1319438","0.0-46.51-1.51","2125","","","","-40","","","","","","","","heartS.png","1217","-40",""
"html-keyboard-response","524","1320142","0.0-46.51-2.51","null","","","","","","","null","","","","","","","",""
"image-selector-fb","525","1323162","0.0-46.52-0.52","null","pics2/SW3.jpg,pics2/FR2.jpg","","","","","","","false","null","","","noS.png","","",""
"image-slider-2AFC","526","1327314","0.0-46.52-1.52","4141","","","","-44","","","","","","","","sizeS.png","2007","-44",""
"html-keyboard-response","527","1328170","0.0-46.52-2.52","null","","","","","","","null","","","","","","","",""
"image-selector-fb","528","1331191","0.0-46.53-0.53","null","pics2/FR1.jpg,pics2/SW5.jpg","","","","","","","false","null","","","noS.png","","",""
"image-slider-2AFC","529","1333936","0.0-46.53-1.53","2734","","","","51","","","","","","","","sizeS.png","1698","51",""
"html-keyboard-response","530","1334792","0.0-46.53-2.53","null","","","","","","","null","","","","","","","",""
"image-selector-fb","531","1337813","0.0-46.54-0.54","null","pics2/SW1.jpg,pics2/SA4.jpg","","","","","","","false","null","","","noS.png","","",""
"image-slider-2AFC","532","1340314","0.0-46.54-1.54","2487","","","","60","","","","","","","","sizeS.png","1639","60",""
"html-keyboard-response","533","1341071","0.0-46.54-2.54","null","","","","","","","null","","","","","","","",""
"image-selector-fb","534","1342762","0.0-46.55-0.55","1176","pics2/SW4.jpg,pics2/SA6.jpg","","","","","","","false","0","","","sizeS.png","","",""
"image-slider-2AFC","535","1345048","0.0-46.55-1.55","2274","","","","-46","","","","","","","","heartS.png","1336","-46",""
"html-keyboard-response","536","1345804","0.0-46.55-2.55","null","","","","","","","null","","","","","","","",""
"image-selector-fb","537","1347678","0.0-46.56-0.56","1362","pics2/SA2.jpg,pics2/SW3.jpg","","","","","","","true","1","","","heartS.png","","",""
"image-slider-2AFC","538","1349564","0.0-46.56-1.56","1883","","","","43","","","","","","","","sizeS.png","1210","43",""
"html-keyboard-response","539","1350318","0.0-46.56-2.56","null","","","","","","","null","","","","","","","",""
"image-selector-fb","540","1351853","0.0-46.57-0.57","1020","pics2/SA2.jpg,pics2/FR3.jpg","","","","","","","true","1","","","heartS.png","","",""
"image-slider-2AFC","541","1353788","0.0-46.57-1.57","1924","","","","65","","","","","","","","sizeS.png","1063","65",""
"html-keyboard-response","542","1354644","0.0-46.57-2.57","null","","","","","","","null","","","","","","","",""
"image-selector-fb","543","1356420","0.0-46.58-0.58","1262","pics2/FR2.jpg,pics2/SW2.jpg","","","","","","","true","1","","","heartS.png","","",""
"image-slider-2AFC","544","1358344","0.0-46.58-1.58","1914","","","","54","","","","","","","","sizeS.png","1230","54",""
"html-keyboard-response","545","1359151","0.0-46.58-2.58","null","","","","","","","null","","","","","","","",""
"image-selector-fb","546","1360780","0.0-46.59-0.59","1115","pics2/SW4.jpg,pics2/FR3.jpg","","","","","","","false","0","","","sizeS.png","","",""
"image-slider-2AFC","547","1362979","0.0-46.59-1.59","2195","","","","-63","","","","","","","","sizeS.png","1167","-63",""
"html-keyboard-response","548","1363734","0.0-46.59-2.59","null","","","","","","","null","","","","","","","",""
"image-selector-fb","549","1365748","0.0-46.60-0.60","1498","pics2/FR4.jpg,pics2/SW3.jpg","","","","","","","true","1","","","heartS.png","","",""
"image-slider-2AFC","550","1367747","0.0-46.60-1.60","1988","","","","63","","","","","","","","sizeS.png","1080","63",""
"html-keyboard-response","551","1368602","0.0-46.60-2.60","null","","","","","","","null","","","","","","","",""
"image-selector-fb","552","1370447","0.0-46.61-0.61","1330","pics2/SW2.jpg,pics2/FR1.jpg","","","","","","","false","0","","","heartS.png","","",""
"image-slider-2AFC","553","1372222","0.0-46.61-1.61","1768","","","","-55","","","","","","","","heartS.png","852","-55",""
"html-keyboard-response","554","1372978","0.0-46.61-2.61","null","","","","","","","null","","","","","","","",""
"image-selector-fb","555","1374901","0.0-46.62-0.62","1408","pics2/SW4.jpg,pics2/SW3.jpg","","","","","","","false","0","","","heartS.png","","",""
"image-slider-2AFC","556","1377220","0.0-46.62-1.62","2309","","","","-51","","","","","","","","sizeS.png","1457","-51",""
"html-keyboard-response","557","1377925","0.0-46.62-2.62","null","","","","","","","null","","","","","","","",""
"image-selector-fb","558","1379458","0.0-46.63-0.63","1015","pics2/FR4.jpg,pics2/SW2.jpg","","","","","","","false","0","","","heartS.png","","",""
"image-slider-2AFC","559","1381647","0.0-46.63-1.63","2180","","","","-61","","","","","","","","heartS.png","948","-61",""
"html-keyboard-response","560","1382353","0.0-46.63-2.63","null","","","","","","","null","","","","","","","",""
"image-selector-fb","561","1384118","0.0-46.64-0.64","1251","pics2/SW2.jpg,pics2/SW3.jpg","","","","","","","true","1","","","heartS.png","","",""
"image-slider-2AFC","562","1386563","0.0-46.64-1.64","2440","","","","71","","","","","","","","sizeS.png","1328","71",""
"html-keyboard-response","563","1387370","0.0-46.64-2.64","null","","","","","","","null","","","","","","","",""
"image-selector-fb","564","1390391","0.0-46.65-0.65","null","pics2/SW2.jpg,pics2/SW1.jpg","","","","","","","false","null","","","noS.png","","",""
"image-slider-2AFC","565","1392825","0.0-46.65-1.65","2423","","","","44","","","","","","","","heartS.png","1749","44",""
"html-keyboard-response","566","1393683","0.0-46.65-2.65","null","","","","","","","null","","","","","","","",""
"pavlovia","567","1393779","0.0-47.0","","","","","","","","","","","","","","","",""
"html-keyboard-response","568","1398786","0.0-48.0","null","<div style='width: 700px;'> <font size=6><b>SHORT BREAK</font></b><br><br><i> Please wait 5 seconds to continue</i></div> ","","","","","","null","","","","","","","",""
"pavlovia","569","1398798","0.0-49.0","","","","","","","","","","","","","","","",""
"html-button-response","570","1401702","0.0-50.0","2897","<div style='width: 700px;'> <font size=6><b>BLOCK 3</font></b><br><br>Press the button whenever you feel ready to start the third and final block</div>","0","","","","","","","","","","","","",""
"image-selector-fb","571","1403304","0.0-51.0-0.0","1091","pics2/SW4.jpg,pics2/SW2.jpg","","","","","","","false","0","","","sizeS.png","","",""
"image-slider-2AFC","572","1405367","0.0-51.0-1.0","2053","","","","-61","","","","","","","","heartS.png","1019","-61",""
"html-keyboard-response","573","1406222","0.0-51.0-2.0","null","","","","","","","null","","","","","","","",""
"image-selector-fb","574","1409245","0.0-51.1-0.1","null","pics2/FR2.jpg,pics2/SW1.jpg","","","","","","","false","null","","","noS.png","","",""
"image-slider-2AFC","575","1412372","0.0-51.1-1.1","3116","","","","45","","","","","","","","sizeS.png","2042","45",""
"html-keyboard-response","576","1413184","0.0-51.1-2.1","null","","","","","","","null","","","","","","","",""
"image-selector-fb","577","1414662","0.0-51.2-0.2","966","pics2/SW1.jpg,pics2/SA2.jpg","","","","","","","false","0","","","sizeS.png","","",""
"image-slider-2AFC","578","1416593","0.0-51.2-1.2","1920","","","","-48","","","","","","","","sizeS.png","1209","-48",""
"html-keyboard-response","579","1417401","0.0-51.2-2.2","null","","","","","","","null","","","","","","","",""
"image-selector-fb","580","1420187","0.0-51.3-0.3","2271","pics2/FR4.jpg,pics2/FR1.jpg","","","","","","","true","1","","","heartS.png","","",""
"image-slider-2AFC","581","1422717","0.0-51.3-1.3","2520","","","","-93","","","","","","","","heartS.png","1506","-93",""
"html-keyboard-response","582","1423523","0.0-51.3-2.3","null","","","","","","","null","","","","","","","",""
"image-selector-fb","583","1426542","0.0-51.4-0.4","null","pics2/SW5.jpg,pics2/SW4.jpg","","","","","","","false","null","","","noS.png","","",""
"image-slider-2AFC","584","1429644","0.0-51.4-1.4","3091","","","","-47","","","","","","","","heartS.png","2116","-47",""
"html-keyboard-response","585","1430450","0.0-51.4-2.4","null","","","","","","","null","","","","","","","",""
"image-selector-fb","586","1433472","0.0-51.5-0.5","null","pics2/FR1.jpg,pics2/SW4.jpg","","","","","","","false","null","","","noS.png","","",""
"image-slider-2AFC","587","1436353","0.0-51.5-1.5","2871","","","","-70","","","","","","","","sizeS.png","1895","-70",""
"html-keyboard-response","588","1437166","0.0-51.5-2.5","null","","","","","","","null","","","","","","","",""
"image-selector-fb","589","1440186","0.0-51.6-0.6","null","pics2/SW3.jpg,pics2/SA6.jpg","","","","","","","false","null","","","noS.png","","",""
"image-slider-2AFC","590","1442978","0.0-51.6-1.6","2781","","","","-47","","","","","","","","heartS.png","1913","-47",""
"html-keyboard-response","591","1443683","0.0-51.6-2.6","null","","","","","","","null","","","","","","","",""
"image-selector-fb","592","1445675","0.0-51.7-0.7","1476","pics2/SW5.jpg,pics2/SW4.jpg","","","","","","","false","0","","","heartS.png","","",""
"image-slider-2AFC","593","1447709","0.0-51.7-1.7","2024","","","","-58","","","","","","","","sizeS.png","1214","-58",""
"html-keyboard-response","594","1448564","0.0-51.7-2.7","null","","","","","","","null","","","","","","","",""
"image-selector-fb","595","1450114","0.0-51.8-0.8","1036","pics2/FR4.jpg,pics2/SW4.jpg","","","","","","","true","1","","","heartS.png","","",""
"image-slider-2AFC","596","1452490","0.0-51.8-1.8","2369","","","","49","","","","","","","","sizeS.png","1342","49",""
"html-keyboard-response","597","1453202","0.0-51.8-2.8","null","","","","","","","null","","","","","","","",""
"image-selector-fb","598","1456218","0.0-51.9-0.9","null","pics2/SW3.jpg,pics2/SW5.jpg","","","","","","","false","null","","","noS.png","","",""
"image-slider-2AFC","599","1460818","0.0-51.9-1.9","4590","","","","60","","","","","","","","sizeS.png","3495","60",""
"html-keyboard-response","600","1461678","0.0-51.9-2.9","null","","","","","","","null","","","","","","","",""
"image-selector-fb","601","1464699","0.0-51.10-0.10","null","pics2/SA6.jpg,pics2/FR3.jpg","","","","","","","false","null","","","noS.png","","",""
"image-slider-2AFC","602","1468911","0.0-51.10-1.10","4201","","","","74","","","","","","","","sizeS.png","2646","74",""
"html-keyboard-response","603","1469668","0.0-51.10-2.10","null","","","","","","","null","","","","","","","",""
"image-selector-fb","604","1474190","0.0-51.11-0.11","null","pics2/SW1.jpg,pics2/FR3.jpg","","","","","","","false","null","","","heartS.png","","",""
"image-slider-2AFC","605","1474194","0.0-51.11-1.11","null","","","","null","","","","","","","","heartS.png","","",""
"html-keyboard-response","606","1475049","0.0-51.11-2.11","null","","","","","","","null","","","","","","","",""
"image-selector-fb","607","1476093","0.0-51.12-0.12","527","pics2/SA6.jpg,pics2/SW2.jpg","","","","","","","false","0","","","heartS.png","","",""
"image-slider-2AFC","608","1478198","0.0-51.12-1.12","2094","","","","-55","","","","","","","","heartS.png","1274","-55",""
"html-keyboard-response","609","1478914","0.0-51.12-2.12","null","","","","","","","null","","","","","","","",""
"image-selector-fb","610","1481936","0.0-51.13-0.13","null","pics2/SW2.jpg,pics2/SW5.jpg","","","","","","","false","null","","","noS.png","","",""
"image-slider-2AFC","611","1485617","0.0-51.13-1.13","3672","","","","48","","","","","","","","sizeS.png","2852","48",""
"html-keyboard-response","612","1486475","0.0-51.13-2.13","null","","","","","","","null","","","","","","","",""
"image-selector-fb","613","1489490","0.0-51.14-0.14","null","pics2/FR2.jpg,pics2/SW4.jpg","","","","","","","false","null","","","noS.png","","",""
"image-slider-2AFC","614","1492014","0.0-51.14-1.14","2513","","","","59","","","","","","","","heartS.png","1626","59",""
"html-keyboard-response","615","1492719","0.0-51.14-2.14","null","","","","","","","null","","","","","","","",""
"image-selector-fb","616","1494674","0.0-51.15-0.15","1440","pics2/SA4.jpg,pics2/FR3.jpg","","","","","","","false","0","","","heartS.png","","",""
"image-slider-2AFC","617","1496786","0.0-51.15-1.15","2108","","","","-58","","","","","","","","heartS.png","1288","-58",""
"html-keyboard-response","618","1497641","0.0-51.15-2.15","null","","","","","","","null","","","","","","","",""
"image-selector-fb","619","1499546","0.0-51.16-0.16","1390","pics2/FR3.jpg,pics2/SA4.jpg","","","","","","","true","1","","","sizeS.png","","",""
"image-slider-2AFC","620","1501694","0.0-51.16-1.16","2137","","","","61","","","","","","","","sizeS.png","1357","61",""
"html-keyboard-response","621","1502500","0.0-51.16-2.16","null","","","","","","","null","","","","","","","",""
"image-selector-fb","622","1504317","0.0-51.17-0.17","1302","pics2/SW4.jpg,pics2/FR2.jpg","","","","","","","false","0","","","sizeS.png","","",""
"image-slider-2AFC","623","1506535","0.0-51.17-1.17","2208","","","","-42","","","","","","","","sizeS.png","1234","-42",""
"html-keyboard-response","624","1507242","0.0-51.17-2.17","null","","","","","","","null","","","","","","","",""
"image-selector-fb","625","1510267","0.0-51.18-0.18","null","pics2/SA6.jpg,pics2/SA4.jpg","","","","","","","false","null","","","noS.png","","",""
"image-slider-2AFC","626","1513443","0.0-51.18-1.18","3166","","","","44","","","","","","","","sizeS.png","2404","44",""
"html-keyboard-response","627","1514250","0.0-51.18-2.18","null","","","","","","","null","","","","","","","",""
"image-selector-fb","628","1515940","0.0-51.19-0.19","1173","pics2/FR2.jpg,pics2/SW4.jpg","","","","","","","true","1","","","heartS.png","","",""
"image-slider-2AFC","629","1517880","0.0-51.19-1.19","1930","","","","53","","","","","","","","heartS.png","1150","53",""
"html-keyboard-response","630","1518736","0.0-51.19-2.19","null","","","","","","","null","","","","","","","",""
"image-selector-fb","631","1521758","0.0-51.20-0.20","null","pics2/SW5.jpg,pics2/FR3.jpg","","","","","","","false","null","","","noS.png","","",""
"image-slider-2AFC","632","1524536","0.0-51.20-1.20","2766","","","","-62","","","","","","","","sizeS.png","1925","-62",""
"html-keyboard-response","633","1525243","0.0-51.20-2.20","null","","","","","","","null","","","","","","","",""
"image-selector-fb","634","1527588","0.0-51.21-0.21","1829","pics2/FR3.jpg,pics2/SW4.jpg","","","","","","","true","1","","","heartS.png","","",""
"image-slider-2AFC","635","1529599","0.0-51.21-1.21","2000","","","","59","","","","","","","","heartS.png","1091","59",""
"html-keyboard-response","636","1530417","0.0-51.21-2.21","null","","","","","","","null","","","","","","","",""
"image-selector-fb","637","1532006","0.0-51.22-0.22","1075","pics2/SW5.jpg,pics2/SW3.jpg","","","","","","","false","0","","","heartS.png","","",""
"image-slider-2AFC","638","1534079","0.0-51.22-1.22","2062","","","","-47","","","","","","","","sizeS.png","1063","-47",""
"html-keyboard-response","639","1534936","0.0-51.22-2.22","null","","","","","","","null","","","","","","","",""
"image-selector-fb","640","1537958","0.0-51.23-0.23","null","pics2/SW3.jpg,pics2/SA4.jpg","","","","","","","false","null","","","noS.png","","",""
"image-slider-2AFC","641","1540913","0.0-51.23-1.23","2945","","","","54","","","","","","","","heartS.png","2058","54",""
"html-keyboard-response","642","1541621","0.0-51.23-2.23","null","","","","","","","null","","","","","","","",""
"image-selector-fb","643","1544643","0.0-51.24-0.24","null","pics2/SA6.jpg,pics2/SW4.jpg","","","","","","","false","null","","","noS.png","","",""
"image-slider-2AFC","644","1547623","0.0-51.24-1.24","2970","","","","-56","","","","","","","","heartS.png","2207","-56",""
"html-keyboard-response","645","1548329","0.0-51.24-2.24","null","","","","","","","null","","","","","","","",""
"image-selector-fb","646","1551344","0.0-51.25-0.25","null","pics2/SW3.jpg,pics2/FR3.jpg","","","","","","","false","null","","","noS.png","","",""
"image-slider-2AFC","647","1554675","0.0-51.25-1.25","3319","","","","-47","","","","","","","","heartS.png","2372","-47",""
"html-keyboard-response","648","1555531","0.0-51.25-2.25","null","","","","","","","null","","","","","","","",""
"image-selector-fb","649","1557842","0.0-51.26-0.26","1797","pics2/SW1.jpg,pics2/FR4.jpg","","","","","","","false","0","","","sizeS.png","","",""
"image-slider-2AFC","650","1559729","0.0-51.26-1.26","1876","","","","-56","","","","","","","","heartS.png","1008","-56",""
"html-keyboard-response","651","1560484","0.0-51.26-2.26","null","","","","","","","null","","","","","","","",""
"image-selector-fb","652","1563095","0.0-51.27-0.27","2095","pics2/SW1.jpg,pics2/SW5.jpg","","","","","","","true","1","","","heartS.png","","",""
"image-slider-2AFC","653","1564941","0.0-51.27-1.27","1835","","","","52","","","","","","","","heartS.png","1006","52",""
"html-keyboard-response","654","1565647","0.0-51.27-2.27","null","","","","","","","null","","","","","","","",""
"image-selector-fb","655","1568670","0.0-51.28-0.28","null","pics2/FR1.jpg,pics2/FR4.jpg","","","","","","","false","null","","","noS.png","","",""
"image-slider-2AFC","656","1571956","0.0-51.28-1.28","3275","","","","61","","","","","","","","sizeS.png","2211","61",""
"html-keyboard-response","657","1572820","0.0-51.28-2.28","null","","","","","","","null","","","","","","","",""
"image-selector-fb","658","1575840","0.0-51.29-0.29","null","pics2/SW1.jpg,pics2/SA2.jpg","","","","","","","false","null","","","noS.png","","",""
"image-slider-2AFC","659","1579264","0.0-51.29-1.29","3413","","","","-40","","","","","","","","heartS.png","2564","-40",""
"html-keyboard-response","660","1580020","0.0-51.29-2.29","null","","","","","","","null","","","","","","","",""
"image-selector-fb","661","1583040","0.0-51.30-0.30","null","pics2/SW2.jpg,pics2/SW4.jpg","","","","","","","false","null","","","noS.png","","",""
"image-slider-2AFC","662","1586064","0.0-51.30-1.30","3012","","","","58","","","","","","","","sizeS.png","2058","58",""
"html-keyboard-response","663","1586920","0.0-51.30-2.30","null","","","","","","","null","","","","","","","",""
"image-selector-fb","664","1589941","0.0-51.31-0.31","null","pics2/FR2.jpg,pics2/FR4.jpg","","","","","","","false","null","","","noS.png","","",""
"image-slider-2AFC","665","1593253","0.0-51.31-1.31","3300","","","","39","","","","","","","","heartS.png","2686","39",""
"html-keyboard-response","666","1594074","0.0-51.31-2.31","null","","","","","","","null","","","","","","","",""
"image-selector-fb","667","1598589","0.0-51.32-0.32","null","pics2/SA6.jpg,pics2/FR3.jpg","","","","","","","false","null","","","heartS.png","","",""
"image-slider-2AFC","668","1598594","0.0-51.32-1.32","null","","","","null","","","","","","","","sizeS.png","","",""
"html-keyboard-response","669","1599398","0.0-51.32-2.32","null","","","","","","","null","","","","","","","",""
"image-selector-fb","670","1602420","0.0-51.33-0.33","null","pics2/SW3.jpg,pics2/SA2.jpg","","","","","","","false","null","","","noS.png","","",""
"image-slider-2AFC","671","1605319","0.0-51.33-1.33","2889","","","","-63","","","","","","","","sizeS.png","2090","-63",""
"html-keyboard-response","672","1606076","0.0-51.33-2.33","null","","","","","","","null","","","","","","","",""
"image-selector-fb","673","1608185","0.0-51.34-0.34","1594","pics2/SW3.jpg,pics2/SW2.jpg","","","","","","","false","0","","","sizeS.png","","",""
"image-slider-2AFC","674","1610354","0.0-51.34-1.34","2159","","","","-60","","","","","","","","sizeS.png","1213","-60",""
"html-keyboard-response","675","1611162","0.0-51.34-2.34","null","","","","","","","null","","","","","","","",""
"image-selector-fb","676","1613159","0.0-51.35-0.35","1471","pics2/SA2.jpg,pics2/SA6.jpg","","","","","","","false","0","","","heartS.png","","",""
"image-slider-2AFC","677","1615292","0.0-51.35-1.35","2122","","","","-58","","","","","","","","heartS.png","1097","-58",""
"html-keyboard-response","678","1616048","0.0-51.35-2.35","null","","","","","","","null","","","","","","","",""
"image-selector-fb","679","1617592","0.0-51.36-0.36","1029","pics2/FR1.jpg,pics2/SW5.jpg","","","","","","","true","1","","","sizeS.png","","",""
"image-slider-2AFC","680","1619721","0.0-51.36-1.36","2117","","","","75","","","","","","","","heartS.png","1201","75",""
"html-keyboard-response","681","1620478","0.0-51.36-2.36","null","","","","","","","null","","","","","","","",""
"image-selector-fb","682","1623500","0.0-51.37-0.37","null","pics2/SW3.jpg,pics2/SW2.jpg","","","","","","","false","null","","","noS.png","","",""
"image-slider-2AFC","683","1626736","0.0-51.37-1.37","3225","","","","-71","","","","","","","","heartS.png","2200","-71",""
"html-keyboard-response","684","1627493","0.0-51.37-2.37","null","","","","","","","null","","","","","","","",""
"image-selector-fb","685","1629113","0.0-51.38-0.38","1106","pics2/FR1.jpg,pics2/SW4.jpg","","","","","","","true","1","","","sizeS.png","","",""
"image-slider-2AFC","686","1630978","0.0-51.38-1.38","1857","","","","70","","","","","","","","heartS.png","959","70",""
"html-keyboard-response","687","1631734","0.0-51.38-2.38","null","","","","","","","null","","","","","","","",""
"image-selector-fb","688","1634757","0.0-51.39-0.39","null","pics2/FR2.jpg,pics2/SA4.jpg","","","","","","","false","null","","","noS.png","","",""
"image-slider-2AFC","689","1637788","0.0-51.39-1.39","3020","","","","61","","","","","","","","sizeS.png","2131","61",""
"html-keyboard-response","690","1638493","0.0-51.39-2.39","null","","","","","","","null","","","","","","","",""
"image-selector-fb","691","1640429","0.0-51.40-0.40","1412","pics2/SW3.jpg,pics2/SW5.jpg","","","","","","","true","1","","","sizeS.png","","",""
"image-slider-2AFC","692","1642481","0.0-51.40-1.40","2039","","","","45","","","","","","","","heartS.png","1102","45",""
"html-keyboard-response","693","1643339","0.0-51.40-2.40","null","","","","","","","null","","","","","","","",""
"image-selector-fb","694","1644908","0.0-51.41-0.41","1057","pics2/SW3.jpg,pics2/FR4.jpg","","","","","","","true","1","","","sizeS.png","","",""
"image-slider-2AFC","695","1647075","0.0-51.41-1.41","2156","","","","53","","","","","","","","heartS.png","1289","53",""
"html-keyboard-response","696","1647832","0.0-51.41-2.41","null","","","","","","","null","","","","","","","",""
"image-selector-fb","697","1650853","0.0-51.42-0.42","null","pics2/FR3.jpg,pics2/SA2.jpg","","","","","","","false","null","","","noS.png","","",""
"image-slider-2AFC","698","1654423","0.0-51.42-1.42","3558","","","","-53","","","","","","","","heartS.png","2581","-53",""
"html-keyboard-response","699","1655130","0.0-51.42-2.42","null","","","","","","","null","","","","","","","",""
"image-selector-fb","700","1658151","0.0-51.43-0.43","null","pics2/SW3.jpg,pics2/SW4.jpg","","","","","","","false","null","","","noS.png","","",""
"image-slider-2AFC","701","1661107","0.0-51.43-1.43","2945","","","","-47","","","","","","","","sizeS.png","2164","-47",""
"html-keyboard-response","702","1661863","0.0-51.43-2.43","null","","","","","","","null","","","","","","","",""
"image-selector-fb","703","1663631","0.0-51.44-0.44","1258","pics2/SA4.jpg,pics2/SA6.jpg","","","","","","","false","0","","","sizeS.png","","",""
"image-slider-2AFC","704","1665416","0.0-51.44-1.44","1773","","","","-49","","","","","","","","sizeS.png","972","-49",""
"html-keyboard-response","705","1666172","0.0-51.44-2.44","null","","","","","","","null","","","","","","","",""
"image-selector-fb","706","1667628","0.0-51.45-0.45","941","pics2/FR2.jpg,pics2/FR4.jpg","","","","","","","true","1","","","sizeS.png","","",""
"image-slider-2AFC","707","1669501","0.0-51.45-1.45","1862","","","","45","","","","","","","","heartS.png","1100","45",""
"html-keyboard-response","708","1670306","0.0-51.45-2.45","null","","","","","","","null","","","","","","","",""
"image-selector-fb","709","1672507","0.0-51.46-0.46","1684","pics2/FR4.jpg,pics2/SA4.jpg","","","","","","","true","1","","","heartS.png","","",""
"image-slider-2AFC","710","1674292","0.0-51.46-1.46","1776","","","","58","","","","","","","","heartS.png","1015","58",""
