"trial_type","trial_index","time_elapsed","internal_node_id","rt","stimulus","button_pressed","success","response","cat","value","key_press","correct","image_click","first_click_rt","first_click_val","symbol","all_click_rt","all_click_val","view_history"
"pavlovia","0","9","0.0-0.0","","","","","","","","","","","","","","","",""
"html-button-response","1","12737","0.0-1.0","12724","<div style='width: 700px; font-size: 150%'><font size='40'>  Welcome to our study!</font><br><br><br> <small> Our experiment is about <i>decision making</i>. You will choose and rate different food items, such as these: <br><br> <div><img src='food_combo2.png', height = '400px'></img></div>","0","","","","","","","","","","","","",""
"html-button-response","2","145824","0.0-2.0","133083","<div style='width: 700px; font-size: 150%'><br><br><br><small> <u><i>This is a multi-part study.</i></u><br><br> In the first part you will rate 24 food items twice.<br><br><div><img src=""rat1.png"" style=""width: 25%""></img></div><br>In the second part (longest) you will make repeated choices and judgements concerning the food items.<br><br><div><img src=""mainx.png"" style=""width: 50%""></img></div><br>In the third and final part, you will rate the items again and answer few short questionnaires.<br><br><div><img src=""rat2.png"" style=""width: 50%""></img></div><br><br>","0","","","","","","","","","","","","",""
"fullscreen","3","154660","0.0-3.0","","","","true","","","","","","","","","","","",""
"html-button-response","4","203535","0.0-4.0","48873","<div style='width: 900px; font-size: 150%;' <font size='20%'> In the first part of the task you will use the mouse to rate food items on <i>2 scales</i> </font></div><br><br><div style='width: 900px'><div style='float: left; width: 50%; margin-right:2.5em'><img src='heartS.png'></img><p class='small' style='text-align: justify'>When you see the heart cue you will rate food items in terms of how much like them/would like to eat them <i>right now</i>. You will rate them on a continuous scale from left (strong dislike) to right (strong liking). Before submitting your rating, try imagining how the item tastes and how much you desire it.<br><br></p></div><div ><img src='sizeS.png'></img><p class='small' style='text-align: justify'>When you see the size cue, you will rate the same food items in terms of their size. The scale goes from left (tiny) to right (very large). You should assess picture size <i><u>relative</i></u> to the white background. <b>Remember:</b> rate the size of the picture, <u>not</u> the size of the item in real life. </p></div><div style='width: 900px'><br><br><b><i>Notice:</b> by starting the rating you agree that your sumbission might be rejected at an early stage and the experiment might end, if your size ratings are not at least modestly related to objective sizes, or if you repeat the same value ratings too many times. If you don't agree, please exit by closing the browser window. </i><br><br><br>","0","","","","","","","","","","","","",""
"html-button-response","5","215114","0.0-5.0","11577","<div><img src='heartS.png'></img></div><br><div style='text-align: justify; width: 700px'>Using the mouse, rate the <b><i>likeness</b></i> of the food items (how much you like them/would like to eat them <i>right now</i>). Far right-end of the scale indicates an item you <i>like a lot</i>. Far left-end indicates an item you <i>dislike a lot</i>. Think about each answer.   <ul><li>Try <b><i>not</b></i> to give identical rating to different items.</li><li>Use the whole scale, and <b><i>not</b></i> just the extremes</ul></div><br>","0","","","","","","","","","","","","",""
"image-slider-response","6","229809","0.0-6.0-0.0-0.0","14689","pics2/FR6.jpg","","","71","FR","","","","","","","","","",""
"image-slider-response","7","241970","0.0-6.0-0.0-0.1","11945","pics2/VE6.jpg","","","50","VE","","","","","","","","","",""
"image-slider-response","8","248330","0.0-6.0-0.0-0.2","6153","pics2/VE1.jpg","","","55","VE","","","","","","","","","",""
"image-slider-response","9","258046","0.0-6.0-0.0-0.3","9509","pics2/SA2.jpg","","","65","SA","","","","","","","","","",""
"image-slider-response","10","264255","0.0-6.0-0.0-0.4","6001","pics2/VE2.jpg","","","66","VE","","","","","","","","","",""
"image-slider-response","11","270147","0.0-6.0-0.0-0.5","5682","pics2/SA6.jpg","","","79","SA","","","","","","","","","",""
"image-slider-response","12","273921","0.0-6.0-0.0-0.6","3562","pics2/SW6.jpg","","","89","SW","","","","","","","","","",""
"image-slider-response","13","279885","0.0-6.0-0.0-0.7","5756","pics2/FR4.jpg","","","95","FR","","","","","","","","","",""
"image-slider-response","14","287683","0.0-6.0-0.0-0.8","7589","pics2/SA3.jpg","","","97","SA","","","","","","","","","",""
"image-slider-response","15","291054","0.0-6.0-0.0-0.9","3164","pics2/FR3.jpg","","","96","FR","","","","","","","","","",""
"image-slider-response","16","294237","0.0-6.0-0.0-0.10","2974","pics2/FR1.jpg","","","100","FR","","","","","","","","","",""
"image-slider-response","17","298405","0.0-6.0-0.0-0.11","3962","pics2/VE4.jpg","","","50","VE","","","","","","","","","",""
"image-slider-response","18","302517","0.0-6.0-0.0-0.12","3903","pics2/FR5.jpg","","","86","FR","","","","","","","","","",""
"image-slider-response","19","309085","0.0-6.0-0.0-0.13","6357","pics2/VE5.jpg","","","99","VE","","","","","","","","","",""
"image-slider-response","20","313301","0.0-6.0-0.0-0.14","4007","pics2/SA1.jpg","","","100","SA","","","","","","","","","",""
"image-slider-response","21","318054","0.0-6.0-0.0-0.15","4549","pics2/VE3.jpg","","","73","VE","","","","","","","","","",""
"image-slider-response","22","320864","0.0-6.0-0.0-0.16","2594","pics2/SW1.jpg","","","100","SW","","","","","","","","","",""
"image-slider-response","23","327067","0.0-6.0-0.0-0.17","5995","pics2/SW2.jpg","","","67","SW","","","","","","","","","",""
"image-slider-response","24","330854","0.0-6.0-0.0-0.18","3577","pics2/SW5.jpg","","","84","SW","","","","","","","","","",""
"image-slider-response","25","337581","0.0-6.0-0.0-0.19","6518","pics2/SW4.jpg","","","95","SW","","","","","","","","","",""
"image-slider-response","26","341692","0.0-6.0-0.0-0.20","3906","pics2/SA5.jpg","","","86","SA","","","","","","","","","",""
"image-slider-response","27","349044","0.0-6.0-0.0-0.21","7145","pics2/SW3.jpg","","","94","SW","","","","","","","","","",""
"image-slider-response","28","352198","0.0-6.0-0.0-0.22","2933","pics2/SA4.jpg","","","100","SA","","","","","","","","","",""
"image-slider-response","29","355978","0.0-6.0-0.0-0.23","3564","pics2/FR2.jpg","","","100","FR","","","","","","","","","",""
"html-button-response","30","357747","0.0-7.0","1566","<div style='width: 900px;'> <font size = 6><b> End of the first rating</b><br><br>","0","","","","","","","","","","","","",""
"html-button-response","31","359478","0.0-9.0","1730","<div ><img src='sizeS.png'></img></div><br><div style='text-align: justify; width: 700px'> Using the mouse, rate the <b><i>size</b></i> of the food items <b><i> relative to the white background.</b></i> Right-end of the scale indicates a <i>very large item</i>, which covers a large portion of the white rectangle. Left-end indicates a <i>very tiny</i> item which covers a tiny portion of the white rectangle.<br><br><i><u>Remember</i></u>: everything that is not the white background also contributes to item size (e.g. packing, plates, ect.)<br><br> Please keep in mind that if the accuracy of ratings do not allign well with actual sizes, the experiment will end.  As a result it will be consider incomplete and therefore no payment would be made. Good luck!<br><br></div><br>","0","","","","","","","","","","","","",""
"html-button-response","32","365852","0.0-10.0","6374","<div ><img src='sizeS.png'></img></div><br><b><font size=6>Examples of items that you might encounter</b><br><div style='width: 750px;'><div style='width: 33.33%; float:left'><br><br><br><i>Large Item</i><br><br><img src='large.jpg', width=200px></img></div><div style='float:right'><br><br><br><i>Small Item</i><br><br><img src='small.jpg', width=200px></img></div><div ><br><br><br><i>Medium Item</i><br><br><img src='med.jpg', width=200px></img></div></div><br><br>","0","","","","","","","","","","","","",""
"image-slider-response","33","386885","0.0-11.0-0.0-0.0","21031","pics2/FR4.jpg","","","44","null","","","","","","","","","",""
"image-slider-response","34","512796","0.0-11.0-0.0-0.1","125704","pics2/FR6.jpg","","","50","null","","","","","","","","","",""
"image-slider-response","35","526630","0.0-11.0-0.0-0.2","13625","pics2/SA6.jpg","","","61","null","","","","","","","","","",""
"image-slider-response","36","551793","0.0-11.0-0.0-0.3","24947","pics2/VE3.jpg","","","46","null","","","","","","","","","",""
"image-slider-response","37","570423","0.0-11.0-0.0-0.4","18415","pics2/SA3.jpg","","","60","null","","","","","","","","","",""
"image-slider-response","38","575646","0.0-11.0-0.0-0.5","5018","pics2/SW2.jpg","","","96","null","","","","","","","","","",""
"image-slider-response","39","583746","0.0-11.0-0.0-0.6","7879","pics2/SW5.jpg","","","54","null","","","","","","","","","",""
"image-slider-response","40","590235","0.0-11.0-0.0-0.7","6283","pics2/VE1.jpg","","","26","null","","","","","","","","","",""
"image-slider-response","41","594338","0.0-11.0-0.0-0.8","3893","pics2/SA5.jpg","","","16","null","","","","","","","","","",""
"image-slider-response","42","608977","0.0-11.0-0.0-0.9","14429","pics2/SW3.jpg","","","84","null","","","","","","","","","",""
"image-slider-response","43","614186","0.0-11.0-0.0-0.10","5001","pics2/SA4.jpg","","","2","null","","","","","","","","","",""
"image-slider-response","44","621114","0.0-11.0-0.0-0.11","6718","pics2/FR1.jpg","","","53","null","","","","","","","","","",""
"image-slider-response","45","625994","0.0-11.0-0.0-0.12","4664","pics2/VE4.jpg","","","14","null","","","","","","","","","",""
"image-slider-response","46","630298","0.0-11.0-0.0-0.13","4093","pics2/SW1.jpg","","","87","null","","","","","","","","","",""
"image-slider-response","47","635343","0.0-11.0-0.0-0.14","4837","pics2/FR2.jpg","","","50","null","","","","","","","","","",""
"image-slider-response","48","638254","0.0-11.0-0.0-0.15","2705","pics2/SW4.jpg","","","50","null","","","","","","","","","",""
"image-slider-response","49","648839","0.0-11.0-0.0-0.16","10378","pics2/VE6.jpg","","","70","null","","","","","","","","","",""
"image-slider-response","50","650981","0.0-11.0-0.0-0.17","1926","pics2/SW6.jpg","","","50","null","","","","","","","","","",""
"image-slider-response","51","655465","0.0-11.0-0.0-0.18","4273","pics2/VE5.jpg","","","29","null","","","","","","","","","",""
"image-slider-response","52","660991","0.0-11.0-0.0-0.19","5307","pics2/FR3.jpg","","","50","null","","","","","","","","","",""
"image-slider-response","53","665769","0.0-11.0-0.0-0.20","4571","pics2/VE2.jpg","","","33","null","","","","","","","","","",""
"image-slider-response","54","668098","0.0-11.0-0.0-0.21","2114","pics2/FR5.jpg","","","50","null","","","","","","","","","",""
"image-slider-response","55","674335","0.0-11.0-0.0-0.22","6020","pics2/SA2.jpg","","","66","null","","","","","","","","","",""
"image-slider-response","56","679028","0.0-11.0-0.0-0.23","4479","pics2/SA1.jpg","","","35","null","","","","","","","","","",""
"html-button-response","57","680437","0.0-12.0","1190","<div style='width: 900px;'> <font size = 6><b> End of the second rating</b><br><br>","0","","","","","","","","","","","","",""
"html-button-response","58","686917","0.0-13.0","6479","<div style='width: 900px;'>Now please rate the items for the second time. <br><br>This is not a memory test - you don't need to be consistent with your previous ratings. Just as before, try to make accurate judgements.<br><br>","0","","","","","","","","","","","","",""
"html-button-response","59","688362","0.0-14.0","1443","<div><img src='heartS.png'></img></div><br><div style='text-align: justify; width: 700px'>Using the mouse, rate the <b><i>likeness</b></i> of the food items (how much you like them/would like to eat them <i>right now</i>). Far right-end of the scale indicates an item you <i>like a lot</i>. Far left-end indicates an item you <i>dislike a lot</i>. Think about each answer.   <ul><li>Try <b><i>not</b></i> to give identical rating to different items.</li><li>Use the whole scale, and <b><i>not</b></i> just the extremes</ul></div><br>","0","","","","","","","","","","","","",""
"image-slider-response","60","696518","0.0-15.0-0.0-0.0","8154","pics2/SA5.jpg","","","86","SA","","","","","","","","","",""
"image-slider-response","61","702211","0.0-15.0-0.0-0.1","5480","pics2/SA6.jpg","","","73","SA","","","","","","","","","",""
"image-slider-response","62","705293","0.0-15.0-0.0-0.2","2873","pics2/SW6.jpg","","","96","SW","","","","","","","","","",""
"image-slider-response","63","708455","0.0-15.0-0.0-0.3","2957","pics2/SW3.jpg","","","98","SW","","","","","","","","","",""
"image-slider-response","64","711582","0.0-15.0-0.0-0.4","2919","pics2/FR6.jpg","","","92","FR","","","","","","","","","",""
"image-slider-response","65","714736","0.0-15.0-0.0-0.5","2946","pics2/SA4.jpg","","","100","SA","","","","","","","","","",""
"image-slider-response","66","718056","0.0-15.0-0.0-0.6","3105","pics2/FR4.jpg","","","96","FR","","","","","","","","","",""
"image-slider-response","67","721412","0.0-15.0-0.0-0.7","3147","pics2/VE3.jpg","","","73","VE","","","","","","","","","",""
"image-slider-response","68","724337","0.0-15.0-0.0-0.8","2718","pics2/FR1.jpg","","","97","FR","","","","","","","","","",""
"image-slider-response","69","727794","0.0-15.0-0.0-0.9","3245","pics2/VE5.jpg","","","80","VE","","","","","","","","","",""
"image-slider-response","70","730804","0.0-15.0-0.0-0.10","2804","pics2/FR3.jpg","","","98","FR","","","","","","","","","",""
"image-slider-response","71","734297","0.0-15.0-0.0-0.11","3274","pics2/VE4.jpg","","","50","VE","","","","","","","","","",""
"image-slider-response","72","740750","0.0-15.0-0.0-0.12","6247","pics2/SA1.jpg","","","95","SA","","","","","","","","","",""
"image-slider-response","73","750515","0.0-15.0-0.0-0.13","9551","pics2/VE6.jpg","","","54","VE","","","","","","","","","",""
"image-slider-response","74","754245","0.0-15.0-0.0-0.14","3517","pics2/VE1.jpg","","","67","VE","","","","","","","","","",""
"image-slider-response","75","757098","0.0-15.0-0.0-0.15","2641","pics2/SW1.jpg","","","100","SW","","","","","","","","","",""
"image-slider-response","76","761072","0.0-15.0-0.0-0.16","3766","pics2/VE2.jpg","","","75","VE","","","","","","","","","",""
"image-slider-response","77","764341","0.0-15.0-0.0-0.17","3057","pics2/SA3.jpg","","","98","SA","","","","","","","","","",""
"image-slider-response","78","768646","0.0-15.0-0.0-0.18","4094","pics2/SW5.jpg","","","94","SW","","","","","","","","","",""
"image-slider-response","79","772174","0.0-15.0-0.0-0.19","3318","pics2/FR5.jpg","","","88","FR","","","","","","","","","",""
"image-slider-response","80","775401","0.0-15.0-0.0-0.20","3020","pics2/SW4.jpg","","","100","SW","","","","","","","","","",""
"image-slider-response","81","778685","0.0-15.0-0.0-0.21","3073","pics2/SW2.jpg","","","81","SW","","","","","","","","","",""
"image-slider-response","82","781336","0.0-15.0-0.0-0.22","2437","pics2/SA2.jpg","","","65","SA","","","","","","","","","",""
"image-slider-response","83","784642","0.0-15.0-0.0-0.23","3088","pics2/FR2.jpg","","","89","FR","","","","","","","","","",""
"call-function","84","784882","0.0-16.0","","","","","","","","","","","","","","","",""
"call-function","85","784890","0.0-17.0","","","","","","","","","","","","","","","",""
"html-button-response","86","786568","0.0-18.0","1677","<div style='width: 900px;'> <font size = 6><b> End of the first rating</b><br><br>","0","","","","","","","","","","","","",""
"html-button-response","87","788142","0.0-19.0","1573","<div ><img src='sizeS.png'></img></div><br><div style='text-align: justify; width: 700px'> Using the mouse, rate the <b><i>size</b></i> of the food items <b><i> relative to the white background.</b></i> Right-end of the scale indicates a <i>very large item</i>, which covers a large portion of the white rectangle. Left-end indicates a <i>very tiny</i> item which covers a tiny portion of the white rectangle.<br><br><i><u>Remember</i></u>: everything that is not the white background also contributes to item size (e.g. packing, plates, ect.)<br><br> Please keep in mind that if the accuracy of ratings do not allign well with actual sizes, the experiment will end.  As a result it will be consider incomplete and therefore no payment would be made. Good luck!<br><br></div><br>","0","","","","","","","","","","","","",""
"image-slider-response","88","791038","0.0-20.0-0.0-0.0","2894","pics2/SW4.jpg","","","50","null","","","","","","","","","",""
"image-slider-response","89","796701","0.0-20.0-0.0-0.1","5456","pics2/SA5.jpg","","","17","null","","","","","","","","","",""
"image-slider-response","90","799877","0.0-20.0-0.0-0.2","2965","pics2/SW1.jpg","","","82","null","","","","","","","","","",""
"image-slider-response","91","803851","0.0-20.0-0.0-0.3","3767","pics2/FR6.jpg","","","46","null","","","","","","","","","",""
"image-slider-response","92","807049","0.0-20.0-0.0-0.4","2985","pics2/VE6.jpg","","","60","null","","","","","","","","","",""
"image-slider-response","93","815063","0.0-20.0-0.0-0.5","7798","pics2/SA3.jpg","","","58","null","","","","","","","","","",""
"image-slider-response","94","818283","0.0-20.0-0.0-0.6","3006","pics2/SA4.jpg","","","13","null","","","","","","","","","",""
"image-slider-response","95","823557","0.0-20.0-0.0-0.7","5054","pics2/SA6.jpg","","","67","null","","","","","","","","","",""
"image-slider-response","96","827818","0.0-20.0-0.0-0.8","4048","pics2/SW6.jpg","","","62","null","","","","","","","","","",""
"image-slider-response","97","830793","0.0-20.0-0.0-0.9","2761","pics2/VE2.jpg","","","37","null","","","","","","","","","",""
"image-slider-response","98","834085","0.0-20.0-0.0-0.10","3079","pics2/FR4.jpg","","","50","null","","","","","","","","","",""
"image-slider-response","99","837111","0.0-20.0-0.0-0.11","2808","pics2/SA2.jpg","","","66","null","","","","","","","","","",""
"image-slider-response","100","840581","0.0-20.0-0.0-0.12","3259","pics2/VE4.jpg","","","21","null","","","","","","","","","",""
"image-slider-response","101","844397","0.0-20.0-0.0-0.13","3602","pics2/VE5.jpg","","","27","null","","","","","","","","","",""
"image-slider-response","102","846093","0.0-20.0-0.0-0.14","1489","pics2/FR2.jpg","","","50","null","","","","","","","","","",""
"image-slider-response","103","849887","0.0-20.0-0.0-0.15","3588","pics2/SW2.jpg","","","80","null","","","","","","","","","",""
"image-slider-response","104","852754","0.0-20.0-0.0-0.16","2661","pics2/VE1.jpg","","","28","null","","","","","","","","","",""
"image-slider-response","105","855392","0.0-20.0-0.0-0.17","2427","pics2/FR1.jpg","","","59","null","","","","","","","","","",""
"image-slider-response","106","859000","0.0-20.0-0.0-0.18","3395","pics2/SW3.jpg","","","74","null","","","","","","","","","",""
"image-slider-response","107","867817","0.0-20.0-0.0-0.19","8594","pics2/SW5.jpg","","","59","null","","","","","","","","","",""
"image-slider-response","108","870735","0.0-20.0-0.0-0.20","2704","pics2/VE3.jpg","","","45","null","","","","","","","","","",""
"image-slider-response","109","872524","0.0-20.0-0.0-0.21","1582","pics2/FR5.jpg","","","50","null","","","","","","","","","",""
"image-slider-response","110","876879","0.0-20.0-0.0-0.22","4149","pics2/SA1.jpg","","","35","null","","","","","","","","","",""
"image-slider-response","111","878761","0.0-20.0-0.0-0.23","1665","pics2/FR3.jpg","","","50","null","","","","","","","","","",""
"call-function","112","878986","0.0-21.0","","","","","","","","","","","","","","","",""
"html-button-response","113","880213","0.0-22.0","1226","<div style='width: 900px;'> <font size = 6><b> End of the second rating</b><br><br>","0","","","","","","","","","","","","",""
"pavlovia","114","880220","0.0-23.0","","","","","","","","","","","","","","","",""
"html-keyboard-response","115","885224","0.0-24.0","null","<div style='width: 700px;'> <font size=6><b>SHORT BREAK</font></b><br><br><i> Please wait 5 seconds to continue</i></div> ","","","","","","null","","","","","","","",""
"pavlovia","116","885227","0.0-25.0","","","","","","","","","","","","","","","",""
"html-button-response","117","933167","0.0-26.0","47937","<div style='width: 700px;'>In the main part of the study, you will be choosing between 2 items. When it's time to choose,  this symbol will appear: <br><br><img src='chooseS.png'></img><br><br>Below, a cue will signify the type of choice: </div><br><div style='width: 700px;'><div style='float: left; width: 50%'><img src='heartS.png'></img><p class='small'>Heart cue means you should choose the item you <b><i>prefer</b></i> more.</p></div><div class='float: right; width:50%'><img src='sizeS.png'></img><p class='small'>Size cue means you should choose the <b><i>larger</b></i> item. </p></div></div><br><div style='width: 700px;'>When you click, a green square will appear around the item you chose.<br></div><div><br>","0","","","","","","","","","","","","",""
"image-selector-fb-tut","118","954072","0.0-27.0","19895","0232.jpg,0123.jpg","","","","","","","false","0","","","","","",""
"image-selector-fb-tut","119","957682","0.0-28.0","2603","0232.jpg,0123.jpg","","","","","","","true","1","","","","","",""
"html-button-response","120","978806","0.0-29.0","21122","<div style='width: 900px;'>Your choices should be both <b><i>fast and accurate</b></i>. <br><br>You will have <i>4 seconds</i> to make each choice, which should be enough consider the options and click on one of the items.<br><br>","0","","","","","","","","","","","","",""
"html-button-response","121","987187","0.0-30.0","8379","<div style='width: 900px;'>Additionally, on some choice trials you will see the <b><i>no-choice cue</b></i>: <br><br><img src='noS.png'></img> <br><br>This cue means you can't make any choice. You can examine the items, but  can't click on any of them. Just wait patiently for the cue to dissapear.<br><br>","0","","","","","","","","","","","","",""
"image-selector-fb-tut","122","989199","0.0-31.0","null","0232.jpg,0123.jpg","","","","","","","false","null","","","","","",""
"html-button-response","123","1038371","0.0-32.0","49171","<div style='width: 900px;'>After each choice the items will remain on the screen and you will see this symbol: <br><br><img src='judgeS.png'></img> <br><br>This means you should rate<b> the magnitude of the difference</b> between the items using a scale: </div><br><div style='width: 900px; '><div style='float: left; width: 50%; margin-right: 2.5em; align-self:left'><img src='heartS.png'></img><p class='small' style = 'text-align: justify;'>Heart cue means you should rate <b>how much you prefer</b> one of the items over the other. Moving the scale indicator to the left means you prefer the left one; moving it to the right - right one. The more you prefer one of them, the more towards that side you should move the scale indicator. </p></div><div class='float: right; width: 50%; margin-left: 2.5em;'><img src='sizeS.png'></img><p class='small' style='text-align: justify'>Size cue means you should rate <b>how much larger</b> is one of the items over the other. Moving the scale indicator to the left means you think the left is larger; moving it to the right - right one. The greater the difference in size, the more towards that side you should move the scale indicator.</div><br>","0","","","","","","","","","","","","",""
"image-slider-2AFC-tut","124","1047223","0.0-33.0","8850","","","","90","","","","","","7564","90","","","",""
"image-slider-2AFC-tut","125","1052693","0.0-34.0","5467","","","","88","","","","","","3728","88","","","",""
"html-button-response","126","1063737","0.0-35.0","11043","<br><br><font size = 36><b> Examples </b></font><br><br><i> 1) I would like to eat some croissants a <b>lot more</b> than doritos right now:</i><br><img src='ex1.PNG', width='62%'></img><br><br><br><i> 2) I would like to eat some doritos a <b>bit more</b> than croissants right now, but just slightly:</i><br><img src='ex2.PNG' width='62%'></img>","0","","","","","","","","","","","","",""
"html-button-response","127","1068114","0.0-36.0","4375","<div style='width: 900px;'><i>Now you know everything you need to do the task!</i> <br><br>Let's start by doing a <b>short training</b>, so you'll get used to how it works. </div><br>","0","","","","","","","","","","","","",""
"image-selector-fb","128","1071125","0.0-37.0-0.0","null","pics2/VE3.jpg,pics2/FR5.jpg","","","","","","","false","null","","","noS.png","","",""
"image-slider-2AFC","129","1076144","0.0-37.0-1.0","null","","","","null","","","","","","","","sizeS.png","","",""
"html-keyboard-response","130","1076955","0.0-37.0-2.0","null","","","","","","","null","","","","","","","",""
"image-selector-fb","131","1079984","0.0-37.1-0.1","null","pics2/FR5.jpg,pics2/VE1.jpg","","","","","","","false","null","","","noS.png","","",""
"image-slider-2AFC","132","1084748","0.0-37.1-1.1","4759","","","","-48","","","","","","","","heartS.png","3430","-48",""
"html-keyboard-response","133","1085560","0.0-37.1-2.1","null","","","","","","","null","","","","","","","",""
"image-selector-fb","134","1088334","0.0-37.2-0.2","2259","pics2/SW5.jpg,pics2/VE2.jpg","","","","","","","false","0","","","heartS.png","","",""
"image-slider-2AFC","135","1093344","0.0-37.2-1.2","null","","","","null","","","","","","","","sizeS.png","4774","-39",""
"html-keyboard-response","136","1094208","0.0-37.2-2.2","null","","","","","","","null","","","","","","","",""
"image-selector-fb","137","1097912","0.0-37.3-0.3","3195","pics2/VE6.jpg,pics2/SA6.jpg","","","","","","","true","1","","","heartS.png","","",""
"image-slider-2AFC","138","1102072","0.0-37.3-1.3","4156","","","","-54","","","","","","","","sizeS.png","3272","-54",""
"html-keyboard-response","139","1102936","0.0-37.3-2.3","null","","","","","","","null","","","","","","","",""
"image-selector-fb","140","1106766","0.0-37.4-0.4","3321","pics2/VE6.jpg,pics2/FR5.jpg","","","","","","","true","1","","","heartS.png","","",""
"image-slider-2AFC","141","1110723","0.0-37.4-1.4","3955","","","","-48","","","","","","","","heartS.png","2957","-48",""
"html-keyboard-response","142","1111438","0.0-37.4-2.4","null","","","","","","","null","","","","","","","",""
"image-selector-fb","143","1114461","0.0-37.5-0.5","null","pics2/VE2.jpg,pics2/SW2.jpg","","","","","","","false","null","","","noS.png","","",""
"image-slider-2AFC","144","1119468","0.0-37.5-1.5","null","","","","null","","","","","","","","heartS.png","3452","47",""
"html-keyboard-response","145","1120174","0.0-37.5-2.5","null","","","","","","","null","","","","","","","",""
"image-selector-fb","146","1123188","0.0-37.6-0.6","null","pics2/VE3.jpg,pics2/FR6.jpg","","","","","","","false","null","","","noS.png","","",""
"image-slider-2AFC","147","1126890","0.0-37.6-1.6","3698","","","","89","","","","","","","","heartS.png","2887","89",""
"html-keyboard-response","148","1127602","0.0-37.6-2.6","null","","","","","","","null","","","","","","","",""
"image-selector-fb","149","1130173","0.0-37.7-0.7","2062","pics2/VE6.jpg,pics2/FR6.jpg","","","","","","","true","1","","","heartS.png","","",""
"image-slider-2AFC","150","1133427","0.0-37.7-1.7","3251","","","","-69","","","","","","","","sizeS.png","2266","-69",""
"html-keyboard-response","151","1134242","0.0-37.7-2.7","null","","","","","","","null","","","","","","","",""
"image-selector-fb","152","1136545","0.0-37.8-0.8","1789","pics2/SA5.jpg,pics2/VE3.jpg","","","","","","","false","0","","","sizeS.png","","",""
"image-slider-2AFC","153","1139665","0.0-37.8-1.8","3116","","","","60","","","","","","","","sizeS.png","2326","60",""
"html-keyboard-response","154","1140427","0.0-37.8-2.8","null","","","","","","","null","","","","","","","",""
"image-selector-fb","155","1143437","0.0-37.9-0.9","null","pics2/SA6.jpg,pics2/VE2.jpg","","","","","","","false","null","","","noS.png","","",""
"image-slider-2AFC","156","1148445","0.0-37.9-1.9","null","","","","null","","","","","","","","heartS.png","","",""
"html-keyboard-response","157","1149252","0.0-37.9-2.9","null","","","","","","","null","","","","","","","",""
"image-selector-fb","158","1152262","0.0-37.10-0.10","null","pics2/VE1.jpg,pics2/SW2.jpg","","","","","","","false","null","","","noS.png","","",""
"image-slider-2AFC","159","1156170","0.0-37.10-1.10","3905","","","","21","","","","","","","","heartS.png","3323","21",""
"html-keyboard-response","160","1156878","0.0-37.10-2.10","null","","","","","","","null","","","","","","","",""
"image-selector-fb","161","1158923","0.0-37.11-0.11","1537","pics2/SA2.jpg,pics2/VE1.jpg","","","","","","","true","1","","","sizeS.png","","",""
"image-slider-2AFC","162","1163930","0.0-37.11-1.11","null","","","","null","","","","","","","","heartS.png","4933","-70",""
"html-keyboard-response","163","1164640","0.0-37.11-2.11","null","","","","","","","null","","","","","","","",""
"html-button-response","164","1175016","0.0-38.0","10373","<i><font size=10>Good job!</font></i> <br><br>Before we begin, you have a chance to review the rules, in case something was not clear.<br><br>","0","","","","","","","","","","","","",""
"instructions","165","1185966","0.0-39.0","10949","","","","","","","","","","","","","","","[{""page_index"":0,""viewing_time"":6968},{""page_index"":1,""viewing_time"":1962},{""page_index"":2,""viewing_time"":2018}]"
"html-button-response","166","11263770","0.0-40.0","10077799","<div style='width: 900px;'> <font size='40'>Great! Now you're ready to begin</font><br><br>The main part of the experiment will consist of <u>3 blocks</u>. Each block consists of 66 decisions and judgements. You will have time for a short break between blocks.<br><br><br><i><u>Do your best to respond within the time limit.</u></i><br><br><i> Press the button to start the experiment<br><br></i>","0","","","","","","","","","","","","",""
"image-selector-fb","167","11266789","0.0-41.0-0.0","null","pics2/SA1.jpg,pics2/FR1.jpg","","","","","","","false","null","","","noS.png","","",""
"image-slider-2AFC","168","11271796","0.0-41.0-1.0","null","","","","null","","","","","","","","sizeS.png","4281,4456","-46,-38",""
"html-keyboard-response","169","11272517","0.0-41.0-2.0","null","","","","","","","null","","","","","","","",""
"image-selector-fb","170","11276390","0.0-41.1-0.1","3361","pics2/SW3.jpg,pics2/SW4.jpg","","","","","","","true","1","","","sizeS.png","","",""
"image-slider-2AFC","171","11279197","0.0-41.1-1.1","2806","","","","8","","","","","","","","sizeS.png","2293","8",""
"html-keyboard-response","172","11279957","0.0-41.1-2.1","null","","","","","","","null","","","","","","","",""
"image-selector-fb","173","11282974","0.0-41.2-0.2","null","pics2/SW6.jpg,pics2/FR3.jpg","","","","","","","false","null","","","noS.png","","",""
"image-slider-2AFC","174","11287977","0.0-41.2-1.2","null","","","","null","","","","","","","","sizeS.png","4829","73",""
"html-keyboard-response","175","11288740","0.0-41.2-2.2","null","","","","","","","null","","","","","","","",""
"image-selector-fb","176","11291746","0.0-41.3-0.3","null","pics2/SW4.jpg,pics2/FR2.jpg","","","","","","","false","null","","","noS.png","","",""
"image-slider-2AFC","177","11296750","0.0-41.3-1.3","null","","","","null","","","","","","","","heartS.png","4453","67",""
"html-keyboard-response","178","11297568","0.0-41.3-2.3","null","","","","","","","null","","","","","","","",""
"image-selector-fb","179","11301227","0.0-41.4-0.4","3150","pics2/SA4.jpg,pics2/FR4.jpg","","","","","","","true","1","","","sizeS.png","","",""
"image-slider-2AFC","180","11303362","0.0-41.4-1.4","2133","","","","6","","","","","","","","heartS.png","1599","6",""
"html-keyboard-response","181","11304091","0.0-41.4-2.4","null","","","","","","","null","","","","","","","",""
"image-selector-fb","182","11307108","0.0-41.5-0.5","null","pics2/SW3.jpg,pics2/SA4.jpg","","","","","","","false","null","","","noS.png","","",""
"image-slider-2AFC","183","11311354","0.0-41.5-1.5","4244","","","","94","","","","","","","","heartS.png","3318","94",""
"html-keyboard-response","184","11312067","0.0-41.5-2.5","null","","","","","","","null","","","","","","","",""
"image-selector-fb","185","11314801","0.0-41.6-0.6","2218","pics2/SW1.jpg,pics2/FR3.jpg","","","","","","","false","0","","","sizeS.png","","",""
"image-slider-2AFC","186","11319804","0.0-41.6-1.6","null","","","","null","","","","","","","","heartS.png","3966","-32",""
"html-keyboard-response","187","11320668","0.0-41.6-2.6","null","","","","","","","null","","","","","","","",""
"image-selector-fb","188","11323686","0.0-41.7-0.7","null","pics2/SW4.jpg,pics2/FR1.jpg","","","","","","","false","null","","","noS.png","","",""
"image-slider-2AFC","189","11328412","0.0-41.7-1.7","4723","","","","74","","","","","","","","sizeS.png","3680","74",""
"html-keyboard-response","190","11329180","0.0-41.7-2.7","null","","","","","","","null","","","","","","","",""
"image-selector-fb","191","11332196","0.0-41.8-0.8","null","pics2/SW4.jpg,pics2/SW1.jpg","","","","","","","false","null","","","noS.png","","",""
"image-slider-2AFC","192","11336491","0.0-41.8-1.8","4293","","","","27","","","","","","","","heartS.png","3642","27",""
"html-keyboard-response","193","11337261","0.0-41.8-2.8","null","","","","","","","null","","","","","","","",""
"image-selector-fb","194","11340280","0.0-41.9-0.9","null","pics2/SW6.jpg,pics2/SA3.jpg","","","","","","","false","null","","","noS.png","","",""
"image-slider-2AFC","195","11345288","0.0-41.9-1.9","null","","","","null","","","","","","","","sizeS.png","4078","64",""
"html-keyboard-response","196","11346102","0.0-41.9-2.9","null","","","","","","","null","","","","","","","",""
"image-selector-fb","197","11350612","0.0-41.10-0.10","null","pics2/SW1.jpg,pics2/SW3.jpg","","","","","","","false","null","","","sizeS.png","","",""
"image-slider-2AFC","198","11350613","0.0-41.10-1.10","null","","","","null","","","","","","","","sizeS.png","","",""
"html-keyboard-response","199","11351319","0.0-41.10-2.10","null","","","","","","","null","","","","","","","",""
"image-selector-fb","200","11354333","0.0-41.11-0.11","null","pics2/VE5.jpg,pics2/FR4.jpg","","","","","","","false","null","","","noS.png","","",""
"image-slider-2AFC","201","11358717","0.0-41.11-1.11","4380","","","","32","","","","","","","","heartS.png","3345","32",""
"html-keyboard-response","202","11359526","0.0-41.11-2.11","null","","","","","","","null","","","","","","","",""
"image-selector-fb","203","11362532","0.0-41.12-0.12","2494","pics2/SW3.jpg,pics2/SW1.jpg","","","","","","","true","1","","","heartS.png","","",""
"image-slider-2AFC","204","11366680","0.0-41.12-1.12","4145","","","","33","","","","","","","","sizeS.png","2965","33",""
"html-keyboard-response","205","11367496","0.0-41.12-2.12","null","","","","","","","null","","","","","","","",""
"image-selector-fb","206","11370672","0.0-41.13-0.13","2671","pics2/SW1.jpg,pics2/SA3.jpg","","","","","","","false","0","","","sizeS.png","","",""
"image-slider-2AFC","207","11374263","0.0-41.13-1.13","3586","","","","-37","","","","","","","","heartS.png","2654","-37",""
"html-keyboard-response","208","11375032","0.0-41.13-2.13","null","","","","","","","null","","","","","","","",""
"image-selector-fb","209","11378261","0.0-41.14-0.14","2717","pics2/SA1.jpg,pics2/FR3.jpg","","","","","","","false","0","","","sizeS.png","","",""
"image-slider-2AFC","210","11382510","0.0-41.14-1.14","4245","","","","-18","","","","","","","","sizeS.png","2928","-18",""
"html-keyboard-response","211","11383278","0.0-41.14-2.14","null","","","","","","","null","","","","","","","",""
"image-selector-fb","212","11386304","0.0-41.15-0.15","null","pics2/SW3.jpg,pics2/SW4.jpg","","","","","","","false","null","","","noS.png","","",""
"image-slider-2AFC","213","11391310","0.0-41.15-1.15","null","","","","null","","","","","","","","sizeS.png","","",""
"html-keyboard-response","214","11392167","0.0-41.15-2.15","null","","","","","","","null","","","","","","","",""
"image-selector-fb","215","11396688","0.0-41.16-0.16","null","pics2/SW4.jpg,pics2/FR4.jpg","","","","","","","false","null","","","sizeS.png","","",""
"image-slider-2AFC","216","11396689","0.0-41.16-1.16","null","","","","null","","","","","","","","heartS.png","","",""
"html-keyboard-response","217","11397558","0.0-41.16-2.16","null","","","","","","","null","","","","","","","",""
"image-selector-fb","218","11402066","0.0-41.17-0.17","null","pics2/VE5.jpg,pics2/FR2.jpg","","","","","","","false","null","","","sizeS.png","","",""
"image-slider-2AFC","219","11402068","0.0-41.17-1.17","null","","","","null","","","","","","","","sizeS.png","","",""
"html-keyboard-response","220","11402926","0.0-41.17-2.17","null","","","","","","","null","","","","","","","",""
"image-selector-fb","221","11405682","0.0-41.18-0.18","2245","pics2/FR1.jpg,pics2/SW1.jpg","","","","","","","false","0","","","heartS.png","","",""
"image-slider-2AFC","222","11409076","0.0-41.18-1.18","3391","","","","-22","","","","","","","","heartS.png","2226","-22",""
"html-keyboard-response","223","11409793","0.0-41.18-2.18","null","","","","","","","null","","","","","","","",""
"image-selector-fb","224","11412805","0.0-41.19-0.19","null","pics2/SW1.jpg,pics2/SA3.jpg","","","","","","","false","null","","","noS.png","","",""
"image-slider-2AFC","225","11416359","0.0-41.19-1.19","3551","","","","-25","","","","","","","","sizeS.png","2864","-25",""
"html-keyboard-response","226","11417128","0.0-41.19-2.19","null","","","","","","","null","","","","","","","",""
"image-selector-fb","227","11420640","0.0-41.20-0.20","3000","pics2/FR2.jpg,pics2/SW4.jpg","","","","","","","true","1","","","heartS.png","","",""
"image-slider-2AFC","228","11423903","0.0-41.20-1.20","3260","","","","5","","","","","","","","heartS.png","2225","5",""
"html-keyboard-response","229","11424722","0.0-41.20-2.20","null","","","","","","","null","","","","","","","",""
"image-selector-fb","230","11428446","0.0-41.21-0.21","3217","pics2/SW6.jpg,pics2/SW1.jpg","","","","","","","true","1","","","heartS.png","","",""
"image-slider-2AFC","231","11432481","0.0-41.21-1.21","4031","","","","64","","","","","","","","sizeS.png","3039","64",""
"html-keyboard-response","232","11433193","0.0-41.21-2.21","null","","","","","","","null","","","","","","","",""
"image-selector-fb","233","11435681","0.0-41.22-0.22","1977","pics2/SA4.jpg,pics2/VE5.jpg","","","","","","","false","0","","","heartS.png","","",""
"image-slider-2AFC","234","11439988","0.0-41.22-1.22","4305","","","","-42","","","","","","","","heartS.png","1801,3176","-15,-42",""
"html-keyboard-response","235","11440804","0.0-41.22-2.22","null","","","","","","","null","","","","","","","",""
"image-selector-fb","236","11444106","0.0-41.23-0.23","2795","pics2/SW1.jpg,pics2/FR1.jpg","","","","","","","true","1","","","sizeS.png","","",""
"image-slider-2AFC","237","11446852","0.0-41.23-1.23","2743","","","","9","","","","","","","","sizeS.png","1911","9",""
"html-keyboard-response","238","11447616","0.0-41.23-2.23","null","","","","","","","null","","","","","","","",""
"image-selector-fb","239","11450632","0.0-41.24-0.24","null","pics2/FR2.jpg,pics2/SW6.jpg","","","","","","","false","null","","","noS.png","","",""
"image-slider-2AFC","240","11454969","0.0-41.24-1.24","4333","","","","-36","","","","","","","","sizeS.png","3023","-36",""
"html-keyboard-response","241","11455798","0.0-41.24-2.24","null","","","","","","","null","","","","","","","",""
"image-selector-fb","242","11458823","0.0-41.25-0.25","null","pics2/SW3.jpg,pics2/FR1.jpg","","","","","","","false","null","","","noS.png","","",""
"image-slider-2AFC","243","11463114","0.0-41.25-1.25","4288","","","","12","","","","","","","","heartS.png","3449","12",""
"html-keyboard-response","244","11463883","0.0-41.25-2.25","null","","","","","","","null","","","","","","","",""
"image-selector-fb","245","11467002","0.0-41.26-0.26","2608","pics2/FR2.jpg,pics2/SA3.jpg","","","","","","","false","0","","","heartS.png","","",""
"image-slider-2AFC","246","11470700","0.0-41.26-1.26","3695","","","","-67","","","","","","","","heartS.png","1661,2928","-7,-67",""
"html-keyboard-response","247","11471523","0.0-41.26-2.26","null","","","","","","","null","","","","","","","",""
"image-selector-fb","248","11474542","0.0-41.27-0.27","null","pics2/SA1.jpg,pics2/SW4.jpg","","","","","","","false","null","","","noS.png","","",""
"image-slider-2AFC","249","11478983","0.0-41.27-1.27","4436","","","","50","","","","","","","","heartS.png","3646","50",""
"html-keyboard-response","250","11479788","0.0-41.27-2.27","null","","","","","","","null","","","","","","","",""
"image-selector-fb","251","11482815","0.0-41.28-0.28","null","pics2/SW1.jpg,pics2/FR2.jpg","","","","","","","false","null","","","noS.png","","",""
"image-slider-2AFC","252","11486693","0.0-41.28-1.28","3875","","","","-43","","","","","","","","sizeS.png","2514","-43",""
"html-keyboard-response","253","11487564","0.0-41.28-2.28","null","","","","","","","null","","","","","","","",""
"image-selector-fb","254","11490959","0.0-41.29-0.29","2876","pics2/FR2.jpg,pics2/FR4.jpg","","","","","","","false","0","","","sizeS.png","","",""
"image-slider-2AFC","255","11493702","0.0-41.29-1.29","2740","","","","-45","","","","","","","","sizeS.png","1937","-45",""
"html-keyboard-response","256","11494522","0.0-41.29-2.29","null","","","","","","","null","","","","","","","",""
"image-selector-fb","257","11498789","0.0-41.30-0.30","3761","pics2/FR2.jpg,pics2/FR1.jpg","","","","","","","false","0","","","heartS.png","","",""
"image-slider-2AFC","258","11500957","0.0-41.30-1.30","2164","","","","-8","","","","","","","","sizeS.png","1680","-8",""
"html-keyboard-response","259","11501830","0.0-41.30-2.30","null","","","","","","","null","","","","","","","",""
"image-selector-fb","260","11504839","0.0-41.31-0.31","null","pics2/VE5.jpg,pics2/FR2.jpg","","","","","","","false","null","","","noS.png","","",""
"image-slider-2AFC","261","11508277","0.0-41.31-1.31","3435","","","","14","","","","","","","","sizeS.png","2755","14",""
"html-keyboard-response","262","11509040","0.0-41.31-2.31","null","","","","","","","null","","","","","","","",""
"image-selector-fb","263","11511707","0.0-41.32-0.32","2159","pics2/FR3.jpg,pics2/SW4.jpg","","","","","","","false","0","","","heartS.png","","",""
"image-slider-2AFC","264","11514213","0.0-41.32-1.32","2503","","","","-10","","","","","","","","heartS.png","1757","-10",""
"html-keyboard-response","265","11515024","0.0-41.32-2.32","null","","","","","","","null","","","","","","","",""
"image-selector-fb","266","11517818","0.0-41.33-0.33","2286","pics2/FR4.jpg,pics2/FR2.jpg","","","","","","","true","1","","","heartS.png","","",""
"image-slider-2AFC","267","11520353","0.0-41.33-1.33","2531","","","","4","","","","","","","","heartS.png","1931","4",""
"html-keyboard-response","268","11521217","0.0-41.33-2.33","null","","","","","","","null","","","","","","","",""
"image-selector-fb","269","11524234","0.0-41.34-0.34","null","pics2/SW4.jpg,pics2/SA3.jpg","","","","","","","false","null","","","noS.png","","",""
"image-slider-2AFC","270","11529243","0.0-41.34-1.34","null","","","","null","","","","","","","","heartS.png","","",""
"html-keyboard-response","271","11529953","0.0-41.34-2.34","null","","","","","","","null","","","","","","","",""
"image-selector-fb","272","11532579","0.0-41.35-0.35","2118","pics2/FR2.jpg,pics2/SW6.jpg","","","","","","","false","0","","","heartS.png","","",""
"image-slider-2AFC","273","11534695","0.0-41.35-1.35","2112","","","","-10","","","","","","","","heartS.png","1620","-10",""
"html-keyboard-response","274","11535406","0.0-41.35-2.35","null","","","","","","","null","","","","","","","",""
"image-selector-fb","275","11538426","0.0-41.36-0.36","null","pics2/FR1.jpg,pics2/FR4.jpg","","","","","","","false","null","","","noS.png","","",""
"image-slider-2AFC","276","11541290","0.0-41.36-1.36","2860","","","","-5","","","","","","","","heartS.png","2187","-5",""
"html-keyboard-response","277","11542058","0.0-41.36-2.36","null","","","","","","","null","","","","","","","",""
"image-selector-fb","278","11545078","0.0-41.37-0.37","null","pics2/SA1.jpg,pics2/FR3.jpg","","","","","","","false","null","","","noS.png","","",""
"image-slider-2AFC","279","11548196","0.0-41.37-1.37","3115","","","","24","","","","","","","","heartS.png","2521","24",""
"html-keyboard-response","280","11549057","0.0-41.37-2.37","null","","","","","","","null","","","","","","","",""
"image-selector-fb","281","11552414","0.0-41.38-0.38","2842","pics2/FR4.jpg,pics2/SW3.jpg","","","","","","","false","0","","","heartS.png","","",""
"image-slider-2AFC","282","11554538","0.0-41.38-1.38","2121","","","","-22","","","","","","","","heartS.png","1519","-22",""
"html-keyboard-response","283","11555301","0.0-41.38-2.38","null","","","","","","","null","","","","","","","",""
"image-selector-fb","284","11558630","0.0-41.39-0.39","2817","pics2/VE5.jpg,pics2/FR3.jpg","","","","","","","false","0","","","sizeS.png","","",""
"image-slider-2AFC","285","11562169","0.0-41.39-1.39","3534","","","","-8","","","","","","","","heartS.png","2825","-8",""
"html-keyboard-response","286","11562932","0.0-41.39-2.39","null","","","","","","","null","","","","","","","",""
"image-selector-fb","287","11566977","0.0-41.40-0.40","3535","pics2/SW6.jpg,pics2/SW4.jpg","","","","","","","false","0","","","sizeS.png","","",""
"image-slider-2AFC","288","11569483","0.0-41.40-1.40","2502","","","","-3","","","","","","","","sizeS.png","2004","-3",""
"html-keyboard-response","289","11570351","0.0-41.40-2.40","null","","","","","","","null","","","","","","","",""
"image-selector-fb","290","11574861","0.0-41.41-0.41","null","pics2/SW4.jpg,pics2/SW1.jpg","","","","","","","false","null","","","heartS.png","","",""
"image-slider-2AFC","291","11574862","0.0-41.41-1.41","null","","","","null","","","","","","","","sizeS.png","","",""
"html-keyboard-response","292","11575675","0.0-41.41-2.41","null","","","","","","","null","","","","","","","",""
"image-selector-fb","293","11578693","0.0-41.42-0.42","null","pics2/VE5.jpg,pics2/SA4.jpg","","","","","","","false","null","","","noS.png","","",""
"image-slider-2AFC","294","11581593","0.0-41.42-1.42","2897","","","","51","","","","","","","","heartS.png","2137","51",""
"html-keyboard-response","295","11582359","0.0-41.42-2.42","null","","","","","","","null","","","","","","","",""
"image-selector-fb","296","11585018","0.0-41.43-0.43","2149","pics2/FR2.jpg,pics2/SA4.jpg","","","","","","","false","0","","","sizeS.png","","",""
"image-slider-2AFC","297","11589240","0.0-41.43-1.43","4218","","","","-9","","","","","","","","heartS.png","1988,3523","-14,-9",""
"html-keyboard-response","298","11589997","0.0-41.43-2.43","null","","","","","","","null","","","","","","","",""
"image-selector-fb","299","11593433","0.0-41.44-0.44","2925","pics2/SA3.jpg,pics2/FR3.jpg","","","","","","","false","0","","","sizeS.png","","",""
"image-slider-2AFC","300","11597400","0.0-41.44-1.44","3963","","","","43","","","","","","","","heartS.png","1480,3051","91,43",""
"html-keyboard-response","301","11598270","0.0-41.44-2.44","null","","","","","","","null","","","","","","","",""
"image-selector-fb","302","11600615","0.0-41.45-0.45","1835","pics2/SA4.jpg,pics2/SW4.jpg","","","","","","","false","0","","","heartS.png","","",""
"image-slider-2AFC","303","11603387","0.0-41.45-1.45","2769","","","","-8","","","","","","","","sizeS.png","2228","-8",""
"html-keyboard-response","304","11604097","0.0-41.45-2.45","null","","","","","","","null","","","","","","","",""
"image-selector-fb","305","11608402","0.0-41.46-0.46","3798","pics2/SW6.jpg,pics2/SA4.jpg","","","","","","","false","0","","","sizeS.png","","",""
"image-slider-2AFC","306","11611135","0.0-41.46-1.46","2729","","","","-3","","","","","","","","sizeS.png","2027","-3",""
"html-keyboard-response","307","11611908","0.0-41.46-2.46","null","","","","","","","null","","","","","","","",""
"image-selector-fb","308","11615375","0.0-41.47-0.47","2960","pics2/FR2.jpg,pics2/SW1.jpg","","","","","","","false","0","","","heartS.png","","",""
"image-slider-2AFC","309","11617356","0.0-41.47-1.47","1975","","","","-11","","","","","","","","heartS.png","1526","-11",""
"html-keyboard-response","310","11618124","0.0-41.47-2.47","null","","","","","","","null","","","","","","","",""
"image-selector-fb","311","11620745","0.0-41.48-0.48","2109","pics2/SW1.jpg,pics2/SW4.jpg","","","","","","","false","0","","","sizeS.png","","",""
"image-slider-2AFC","312","11625154","0.0-41.48-1.48","4405","","","","-19","","","","","","","","heartS.png","1805,3862","20,-19",""
"html-keyboard-response","313","11625915","0.0-41.48-2.48","null","","","","","","","null","","","","","","","",""
"image-selector-fb","314","11628943","0.0-41.49-0.49","null","pics2/FR1.jpg,pics2/SA4.jpg","","","","","","","false","null","","","noS.png","","",""
"image-slider-2AFC","315","11633955","0.0-41.49-1.49","null","","","","null","","","","","","","","heartS.png","","",""
"html-keyboard-response","316","11634765","0.0-41.49-2.49","null","","","","","","","null","","","","","","","",""
"image-selector-fb","317","11637781","0.0-41.50-0.50","null","pics2/VE5.jpg,pics2/FR3.jpg","","","","","","","false","null","","","noS.png","","",""
"image-slider-2AFC","318","11640704","0.0-41.50-1.50","2920","","","","10","","","","","","","","sizeS.png","2159","10",""
"html-keyboard-response","319","11641476","0.0-41.50-2.50","null","","","","","","","null","","","","","","","",""
"image-selector-fb","320","11643818","0.0-41.51-0.51","1832","pics2/SA1.jpg,pics2/FR4.jpg","","","","","","","false","0","","","sizeS.png","","",""
"image-slider-2AFC","321","11646344","0.0-41.51-1.51","2524","","","","40","","","","","","","","heartS.png","1655","40",""
"html-keyboard-response","322","11647056","0.0-41.51-2.51","null","","","","","","","null","","","","","","","",""
"image-selector-fb","323","11650076","0.0-41.52-0.52","null","pics2/SA4.jpg,pics2/FR2.jpg","","","","","","","false","null","","","noS.png","","",""
"image-slider-2AFC","324","11653310","0.0-41.52-1.52","3228","","","","-31","","","","","","","","heartS.png","2353","-31",""
"html-keyboard-response","325","11654165","0.0-41.52-2.52","null","","","","","","","null","","","","","","","",""
"image-selector-fb","326","11657178","0.0-41.53-0.53","null","pics2/VE5.jpg,pics2/SA3.jpg","","","","","","","false","null","","","noS.png","","",""
"image-slider-2AFC","327","11660312","0.0-41.53-1.53","3130","","","","28","","","","","","","","sizeS.png","2297","28",""
"html-keyboard-response","328","11661079","0.0-41.53-2.53","null","","","","","","","null","","","","","","","",""
"image-selector-fb","329","11663202","0.0-41.54-0.54","1611","pics2/SA3.jpg,pics2/SW1.jpg","","","","","","","true","1","","","heartS.png","","",""
"image-slider-2AFC","330","11666668","0.0-41.54-1.54","3463","","","","1","","","","","","","","heartS.png","2790","1",""
"html-keyboard-response","331","11667428","0.0-41.54-2.54","null","","","","","","","null","","","","","","","",""
"image-selector-fb","332","11670448","0.0-41.55-0.55","null","pics2/SW3.jpg,pics2/FR4.jpg","","","","","","","false","null","","","noS.png","","",""
"image-slider-2AFC","333","11673596","0.0-41.55-1.55","3145","","","","1","","","","","","","","heartS.png","2660","1",""
"html-keyboard-response","334","11674467","0.0-41.55-2.55","null","","","","","","","null","","","","","","","",""
"image-selector-fb","335","11677488","0.0-41.56-0.56","null","pics2/SW1.jpg,pics2/SA4.jpg","","","","","","","false","null","","","noS.png","","",""
"image-slider-2AFC","336","11679324","0.0-41.56-1.56","1833","","","","95","","","","","","","","heartS.png","1036","95",""
"html-keyboard-response","337","11680078","0.0-41.56-2.56","null","","","","","","","null","","","","","","","",""
"image-selector-fb","338","11683988","0.0-41.57-0.57","3399","pics2/VE5.jpg,pics2/SA3.jpg","","","","","","","true","1","","","sizeS.png","","",""
"image-slider-2AFC","339","11687057","0.0-41.57-1.57","3066","","","","-6","","","","","","","","heartS.png","2312","-6",""
"html-keyboard-response","340","11687771","0.0-41.57-2.57","null","","","","","","","null","","","","","","","",""
"image-selector-fb","341","11691041","0.0-41.58-0.58","2758","pics2/FR3.jpg,pics2/FR2.jpg","","","","","","","true","1","","","sizeS.png","","",""
"image-slider-2AFC","342","11693907","0.0-41.58-1.58","2862","","","","13","","","","","","","","sizeS.png","1848","13",""
"html-keyboard-response","343","11694615","0.0-41.58-2.58","null","","","","","","","null","","","","","","","",""
"image-selector-fb","344","11699075","0.0-41.59-0.59","3952","pics2/FR4.jpg,pics2/SW4.jpg","","","","","","","true","1","","","heartS.png","","",""
"image-slider-2AFC","345","11701944","0.0-41.59-1.59","2865","","","","7","","","","","","","","sizeS.png","2351","7",""
"html-keyboard-response","346","11702767","0.0-41.59-2.59","null","","","","","","","null","","","","","","","",""
"image-selector-fb","347","11705583","0.0-41.60-0.60","2302","pics2/SW4.jpg,pics2/SW3.jpg","","","","","","","true","1","","","heartS.png","","",""
"image-slider-2AFC","348","11707519","0.0-41.60-1.60","1933","","","","7","","","","","","","","heartS.png","1339","7",""
"html-keyboard-response","349","11708233","0.0-41.60-2.60","null","","","","","","","null","","","","","","","",""
"image-selector-fb","350","11709915","0.0-41.61-0.61","1165","pics2/FR1.jpg,pics2/FR2.jpg","","","","","","","false","0","","","sizeS.png","","",""
"image-slider-2AFC","351","11711806","0.0-41.61-1.61","1887","","","","-2","","","","","","","","sizeS.png","1438","-2",""
"html-keyboard-response","352","11712518","0.0-41.61-2.61","null","","","","","","","null","","","","","","","",""
"image-selector-fb","353","11715545","0.0-41.62-0.62","null","pics2/SA1.jpg,pics2/SW1.jpg","","","","","","","false","null","","","noS.png","","",""
"image-slider-2AFC","354","11719124","0.0-41.62-1.62","3576","","","","-1","","","","","","","","heartS.png","2976","-1",""
"html-keyboard-response","355","11719929","0.0-41.62-2.62","null","","","","","","","null","","","","","","","",""
"image-selector-fb","356","11722063","0.0-41.63-0.63","1625","pics2/SA4.jpg,pics2/SW1.jpg","","","","","","","false","0","","","heartS.png","","",""
"image-slider-2AFC","357","11727069","0.0-41.63-1.63","null","","","","null","","","","","","","","sizeS.png","3002,4370","37,44",""
"html-keyboard-response","358","11727831","0.0-41.63-2.63","null","","","","","","","null","","","","","","","",""
"image-selector-fb","359","11730828","0.0-41.64-0.64","2484","pics2/SW1.jpg,pics2/FR2.jpg","","","","","","","false","0","","","sizeS.png","","",""
"image-slider-2AFC","360","11733351","0.0-41.64-1.64","2520","","","","-21","","","","","","","","sizeS.png","1811","-21",""
"html-keyboard-response","361","11734065","0.0-41.64-2.64","null","","","","","","","null","","","","","","","",""
"image-selector-fb","362","11737090","0.0-41.65-0.65","null","pics2/FR1.jpg,pics2/SA3.jpg","","","","","","","false","null","","","noS.png","","",""
"image-slider-2AFC","363","11739912","0.0-41.65-1.65","2818","","","","-56","","","","","","","","sizeS.png","1928","-56",""
"html-keyboard-response","364","11740674","0.0-41.65-2.65","null","","","","","","","null","","","","","","","",""
"pavlovia","365","11740714","0.0-42.0","","","","","","","","","","","","","","","",""
"html-keyboard-response","366","11745730","0.0-43.0","null","<div style='width: 700px;'> <font size=6><b>SHORT BREAK</font></b><br><br><i> Please wait 5 seconds to continue</i></div> ","","","","","","null","","","","","","","",""
"pavlovia","367","11745733","0.0-44.0","","","","","","","","","","","","","","","",""
"html-button-response","368","11776898","0.0-45.0","31163","<div style='width: 700px;'> <font size=6><b>BLOCK 2</font></b><br><br>Press the button whenever you feel ready to start the second block (there are 3 in total)</div>","0","","","","","","","","","","","","",""
"image-selector-fb","369","11779918","0.0-46.0-0.0","null","pics2/FR2.jpg,pics2/FR4.jpg","","","","","","","false","null","","","noS.png","","",""
"image-slider-2AFC","370","11783471","0.0-46.0-1.0","3550","","","","-64","","","","","","","","sizeS.png","2725","-64",""
"html-keyboard-response","371","11784234","0.0-46.0-2.0","null","","","","","","","null","","","","","","","",""
"image-selector-fb","372","11787439","0.0-46.1-0.1","2693","pics2/FR3.jpg,pics2/SW6.jpg","","","","","","","false","0","","","heartS.png","","",""
"image-slider-2AFC","373","11789741","0.0-46.1-1.1","2299","","","","-3","","","","","","","","heartS.png","1778","-3",""
"html-keyboard-response","374","11790501","0.0-46.1-2.1","null","","","","","","","null","","","","","","","",""
"image-selector-fb","375","11793820","0.0-46.2-0.2","2799","pics2/SA3.jpg,pics2/SA1.jpg","","","","","","","false","0","","","sizeS.png","","",""
"image-slider-2AFC","376","11798003","0.0-46.2-1.2","4178","","","","38","","","","","","","","sizeS.png","2577,3642","-9,38",""
"html-keyboard-response","377","11798770","0.0-46.2-2.2","null","","","","","","","null","","","","","","","",""
"image-selector-fb","378","11800733","0.0-46.3-0.3","1452","pics2/FR1.jpg,pics2/SA3.jpg","","","","","","","false","0","","","heartS.png","","",""
"image-slider-2AFC","379","11803100","0.0-46.3-1.3","2363","","","","-32","","","","","","","","heartS.png","1690","-32",""
"html-keyboard-response","380","11803915","0.0-46.3-2.3","null","","","","","","","null","","","","","","","",""
"image-selector-fb","381","11807565","0.0-46.4-0.4","3142","pics2/FR3.jpg,pics2/SW1.jpg","","","","","","","true","1","","","heartS.png","","",""
"image-slider-2AFC","382","11810189","0.0-46.4-1.4","2621","","","","16","","","","","","","","heartS.png","1245","16",""
"html-keyboard-response","383","11810902","0.0-46.4-2.4","null","","","","","","","null","","","","","","","",""
"image-selector-fb","384","11813920","0.0-46.5-0.5","null","pics2/FR1.jpg,pics2/FR2.jpg","","","","","","","false","null","","","noS.png","","",""
"image-slider-2AFC","385","11817249","0.0-46.5-1.5","3324","","","","-44","","","","","","","","sizeS.png","2760","-44",""
"html-keyboard-response","386","11818112","0.0-46.5-2.5","null","","","","","","","null","","","","","","","",""
"image-selector-fb","387","11821126","0.0-46.6-0.6","null","pics2/VE5.jpg,pics2/SW3.jpg","","","","","","","false","null","","","noS.png","","",""
"image-slider-2AFC","388","11824423","0.0-46.6-1.6","3295","","","","36","","","","","","","","sizeS.png","2536","36",""
"html-keyboard-response","389","11825144","0.0-46.6-2.6","null","","","","","","","null","","","","","","","",""
"image-selector-fb","390","11828154","0.0-46.7-0.7","null","pics2/SA1.jpg,pics2/SA3.jpg","","","","","","","false","null","","","noS.png","","",""
"image-slider-2AFC","391","11831156","0.0-46.7-1.7","2999","","","","28","","","","","","","","heartS.png","2255","28",""
"html-keyboard-response","392","11832029","0.0-46.7-2.7","null","","","","","","","null","","","","","","","",""
"image-selector-fb","393","11834762","0.0-46.8-0.8","2222","pics2/SA1.jpg,pics2/FR2.jpg","","","","","","","false","0","","","sizeS.png","","",""
"image-slider-2AFC","394","11839004","0.0-46.8-1.8","4240","","","","27","","","","","","","","heartS.png","3465","27",""
"html-keyboard-response","395","11839806","0.0-46.8-2.8","null","","","","","","","null","","","","","","","",""
"image-selector-fb","396","11842822","0.0-46.9-0.9","2499","pics2/VE5.jpg,pics2/SW3.jpg","","","","","","","true","1","","","sizeS.png","","",""
"image-slider-2AFC","397","11846608","0.0-46.9-1.9","3783","","","","26","","","","","","","","sizeS.png","3145","26",""
"html-keyboard-response","398","11847437","0.0-46.9-2.9","null","","","","","","","null","","","","","","","",""
"image-selector-fb","399","11849481","0.0-46.10-0.10","1534","pics2/FR4.jpg,pics2/SA4.jpg","","","","","","","true","1","","","heartS.png","","",""
"image-slider-2AFC","400","11851705","0.0-46.10-1.10","2221","","","","31","","","","","","","","sizeS.png","1272","31",""
"html-keyboard-response","401","11852518","0.0-46.10-2.10","null","","","","","","","null","","","","","","","",""
"image-selector-fb","402","11855543","0.0-46.11-0.11","null","pics2/SW3.jpg,pics2/SA1.jpg","","","","","","","false","null","","","noS.png","","",""
"image-slider-2AFC","403","11858793","0.0-46.11-1.11","3247","","","","-8","","","","","","","","heartS.png","2697","-8",""
"html-keyboard-response","404","11859605","0.0-46.11-2.11","null","","","","","","","null","","","","","","","",""
"image-selector-fb","405","11862444","0.0-46.12-0.12","2327","pics2/SW6.jpg,pics2/FR1.jpg","","","","","","","true","1","","","sizeS.png","","",""
"image-slider-2AFC","406","11865390","0.0-46.12-1.12","2942","","","","24","","","","","","","","heartS.png","2219","24",""
"html-keyboard-response","407","11866162","0.0-46.12-2.12","null","","","","","","","null","","","","","","","",""
"image-selector-fb","408","11869646","0.0-46.13-0.13","2968","pics2/FR1.jpg,pics2/FR3.jpg","","","","","","","false","0","","","sizeS.png","","",""
"image-slider-2AFC","409","11873456","0.0-46.13-1.13","3808","","","","-28","","","","","","","","heartS.png","2780","-28",""
"html-keyboard-response","410","11874268","0.0-46.13-2.13","null","","","","","","","null","","","","","","","",""
"image-selector-fb","411","11877283","0.0-46.14-0.14","null","pics2/SW1.jpg,pics2/FR4.jpg","","","","","","","false","null","","","noS.png","","",""
"image-slider-2AFC","412","11880379","0.0-46.14-1.14","3092","","","","-26","","","","","","","","heartS.png","2484","-26",""
"html-keyboard-response","413","11881193","0.0-46.14-2.14","null","","","","","","","null","","","","","","","",""
"image-selector-fb","414","11884811","0.0-46.15-0.15","3107","pics2/SA3.jpg,pics2/SW3.jpg","","","","","","","true","1","","","heartS.png","","",""
"image-slider-2AFC","415","11887591","0.0-46.15-1.15","2776","","","","61","","","","","","","","sizeS.png","2023","61",""
"html-keyboard-response","416","11888408","0.0-46.15-2.15","null","","","","","","","null","","","","","","","",""
"image-selector-fb","417","11890498","0.0-46.16-0.16","1582","pics2/VE5.jpg,pics2/FR1.jpg","","","","","","","true","1","","","sizeS.png","","",""
"image-slider-2AFC","418","11892746","0.0-46.16-1.16","2244","","","","67","","","","","","","","sizeS.png","1376","67",""
"html-keyboard-response","419","11893475","0.0-46.16-2.16","null","","","","","","","null","","","","","","","",""
"image-selector-fb","420","11896496","0.0-46.17-0.17","null","pics2/VE5.jpg,pics2/FR1.jpg","","","","","","","false","null","","","noS.png","","",""
"image-slider-2AFC","421","11900528","0.0-46.17-1.17","4028","","","","32","","","","","","","","heartS.png","3406","32",""
"html-keyboard-response","422","11901237","0.0-46.17-2.17","null","","","","","","","null","","","","","","","",""
"image-selector-fb","423","11904261","0.0-46.18-0.18","null","pics2/SA4.jpg,pics2/SW6.jpg","","","","","","","false","null","","","noS.png","","",""
"image-slider-2AFC","424","11909271","0.0-46.18-1.18","null","","","","null","","","","","","","","sizeS.png","","",""
"html-keyboard-response","425","11909977","0.0-46.18-2.18","null","","","","","","","null","","","","","","","",""
"image-selector-fb","426","11913099","0.0-46.19-0.19","2618","pics2/SW1.jpg,pics2/VE5.jpg","","","","","","","false","0","","","sizeS.png","","",""
"image-slider-2AFC","427","11915299","0.0-46.19-1.19","2197","","","","-22","","","","","","","","sizeS.png","1379","-22",""
"html-keyboard-response","428","11916063","0.0-46.19-2.19","null","","","","","","","null","","","","","","","",""
"image-selector-fb","429","11919084","0.0-46.20-0.20","null","pics2/SA4.jpg,pics2/FR3.jpg","","","","","","","false","null","","","noS.png","","",""
"image-slider-2AFC","430","11921923","0.0-46.20-1.20","2836","","","","47","","","","","","","","heartS.png","2140","47",""
"html-keyboard-response","431","11922805","0.0-46.20-2.20","null","","","","","","","null","","","","","","","",""
"image-selector-fb","432","11925295","0.0-46.21-0.21","1982","pics2/FR1.jpg,pics2/SW4.jpg","","","","","","","false","0","","","sizeS.png","","",""
"image-slider-2AFC","433","11928867","0.0-46.21-1.21","3568","","","","-30","","","","","","","","heartS.png","1657,1725,1729,2939","1,1,-1,-30",""
"html-keyboard-response","434","11929673","0.0-46.21-2.21","null","","","","","","","null","","","","","","","",""
"image-selector-fb","435","11932099","0.0-46.22-0.22","1921","pics2/FR4.jpg,pics2/SW6.jpg","","","","","","","true","1","","","heartS.png","","",""
"image-slider-2AFC","436","11934443","0.0-46.22-1.22","2340","","","","22","","","","","","","","sizeS.png","1616","22",""
"html-keyboard-response","437","11935154","0.0-46.22-2.22","null","","","","","","","null","","","","","","","",""
"image-selector-fb","438","11939154","0.0-46.23-0.23","3492","pics2/SW1.jpg,pics2/FR4.jpg","","","","","","","false","0","","","sizeS.png","","",""
"image-slider-2AFC","439","11941675","0.0-46.23-1.23","2517","","","","-56","","","","","","","","sizeS.png","1439","-56",""
"html-keyboard-response","440","11942437","0.0-46.23-2.23","null","","","","","","","null","","","","","","","",""
"image-selector-fb","441","11945698","0.0-46.24-0.24","2755","pics2/VE5.jpg,pics2/SW6.jpg","","","","","","","true","1","","","sizeS.png","","",""
"image-slider-2AFC","442","11950199","0.0-46.24-1.24","4496","","","","42","","","","","","","","heartS.png","3627","42",""
"html-keyboard-response","443","11950916","0.0-46.24-2.24","null","","","","","","","null","","","","","","","",""
"image-selector-fb","444","11955425","0.0-46.25-0.25","null","pics2/SW3.jpg,pics2/VE5.jpg","","","","","","","false","null","","","heartS.png","","",""
"image-slider-2AFC","445","11955427","0.0-46.25-1.25","null","","","","null","","","","","","","","heartS.png","","",""
"html-keyboard-response","446","11956131","0.0-46.25-2.25","null","","","","","","","null","","","","","","","",""
"image-selector-fb","447","11958274","0.0-46.26-0.26","1637","pics2/SA1.jpg,pics2/FR1.jpg","","","","","","","true","1","","","heartS.png","","",""
"image-slider-2AFC","448","11962472","0.0-46.26-1.26","4194","","","","66","","","","","","","","heartS.png","3042","66",""
"html-keyboard-response","449","11963336","0.0-46.26-2.26","null","","","","","","","null","","","","","","","",""
"image-selector-fb","450","11966361","0.0-46.27-0.27","null","pics2/SW3.jpg,pics2/SA3.jpg","","","","","","","false","null","","","noS.png","","",""
"image-slider-2AFC","451","11969205","0.0-46.27-1.27","2841","","","","-43","","","","","","","","sizeS.png","1457","-43",""
"html-keyboard-response","452","11970076","0.0-46.27-2.27","null","","","","","","","null","","","","","","","",""
"image-selector-fb","453","11973099","0.0-46.28-0.28","null","pics2/FR2.jpg,pics2/SA3.jpg","","","","","","","false","null","","","noS.png","","",""
"image-slider-2AFC","454","11975540","0.0-46.28-1.28","2437","","","","-38","","","","","","","","heartS.png","1756","-38",""
"html-keyboard-response","455","11976302","0.0-46.28-2.28","null","","","","","","","null","","","","","","","",""
"image-selector-fb","456","11978437","0.0-46.29-0.29","1624","pics2/SA3.jpg,pics2/VE5.jpg","","","","","","","false","0","","","heartS.png","","",""
"image-slider-2AFC","457","11981115","0.0-46.29-1.29","2676","","","","53","","","","","","","","sizeS.png","1828","53",""
"html-keyboard-response","458","11981927","0.0-46.29-2.29","null","","","","","","","null","","","","","","","",""
"image-selector-fb","459","11984956","0.0-46.30-0.30","null","pics2/SA1.jpg,pics2/FR4.jpg","","","","","","","false","null","","","noS.png","","",""
"image-slider-2AFC","460","11987972","0.0-46.30-1.30","3014","","","","-52","","","","","","","","sizeS.png","2102","-52",""
"html-keyboard-response","461","11988686","0.0-46.30-2.30","null","","","","","","","null","","","","","","","",""
"image-selector-fb","462","11991717","0.0-46.31-0.31","2519","pics2/SW4.jpg,pics2/FR2.jpg","","","","","","","true","1","","","sizeS.png","","",""
"image-slider-2AFC","463","11995272","0.0-46.31-1.31","3551","","","","-25","","","","","","","","heartS.png","2653","-25",""
"html-keyboard-response","464","11996036","0.0-46.31-2.31","null","","","","","","","null","","","","","","","",""
"image-selector-fb","465","11999572","0.0-46.32-0.32","3026","pics2/SW1.jpg,pics2/SA4.jpg","","","","","","","false","0","","","sizeS.png","","",""
"image-slider-2AFC","466","12002839","0.0-46.32-1.32","3265","","","","56","","","","","","","","heartS.png","2150","56",""
"html-keyboard-response","467","12003697","0.0-46.32-2.32","null","","","","","","","null","","","","","","","",""
"image-selector-fb","468","12005776","0.0-46.33-0.33","1571","pics2/SA1.jpg,pics2/SA3.jpg","","","","","","","false","0","","","heartS.png","","",""
"image-slider-2AFC","469","12008625","0.0-46.33-1.33","2844","","","","-80","","","","","","","","sizeS.png","1853","-80",""
"html-keyboard-response","470","12009482","0.0-46.33-2.33","null","","","","","","","null","","","","","","","",""
"image-selector-fb","471","12011554","0.0-46.34-0.34","1559","pics2/FR2.jpg,pics2/VE5.jpg","","","","","","","false","0","","","heartS.png","","",""
"image-slider-2AFC","472","12014505","0.0-46.34-1.34","2948","","","","67","","","","","","","","sizeS.png","1862","67",""
"html-keyboard-response","473","12015267","0.0-46.34-2.34","null","","","","","","","null","","","","","","","",""
"image-selector-fb","474","12017250","0.0-46.35-0.35","1473","pics2/VE5.jpg,pics2/SW1.jpg","","","","","","","true","1","","","heartS.png","","",""
"image-slider-2AFC","475","12021384","0.0-46.35-1.35","4131","","","","50","","","","","","","","heartS.png","3328","50",""
"html-keyboard-response","476","12022258","0.0-46.35-2.35","null","","","","","","","null","","","","","","","",""
"image-selector-fb","477","12024539","0.0-46.36-0.36","1774","pics2/SA3.jpg,pics2/FR1.jpg","","","","","","","true","1","","","sizeS.png","","",""
"image-slider-2AFC","478","12027047","0.0-46.36-1.36","2504","","","","89","","","","","","","","sizeS.png","1635","89",""
"html-keyboard-response","479","12027810","0.0-46.36-2.36","null","","","","","","","null","","","","","","","",""
"image-selector-fb","480","12030830","0.0-46.37-0.37","null","pics2/SW3.jpg,pics2/FR3.jpg","","","","","","","false","null","","","noS.png","","",""
"image-slider-2AFC","481","12035361","0.0-46.37-1.37","4527","","","","72","","","","","","","","sizeS.png","3239","72",""
"html-keyboard-response","482","12036081","0.0-46.37-2.37","null","","","","","","","null","","","","","","","",""
"image-selector-fb","483","12039539","0.0-46.38-0.38","2947","pics2/FR2.jpg,pics2/FR3.jpg","","","","","","","false","0","","","heartS.png","","",""
"image-slider-2AFC","484","12041668","0.0-46.38-1.38","2124","","","","-46","","","","","","","","heartS.png","1393","-46",""
"html-keyboard-response","485","12042487","0.0-46.38-2.38","null","","","","","","","null","","","","","","","",""
"image-selector-fb","486","12046138","0.0-46.39-0.39","3145","pics2/SW6.jpg,pics2/SA1.jpg","","","","","","","true","1","","","sizeS.png","","",""
"image-slider-2AFC","487","12048474","0.0-46.39-1.39","2333","","","","-52","","","","","","","","heartS.png","1507","-52",""
"html-keyboard-response","488","12049188","0.0-46.39-2.39","null","","","","","","","null","","","","","","","",""
"image-selector-fb","489","12051699","0.0-46.40-0.40","2006","pics2/SA3.jpg,pics2/FR4.jpg","","","","","","","false","0","","","sizeS.png","","",""
"image-slider-2AFC","490","12053898","0.0-46.40-1.40","2194","","","","-36","","","","","","","","sizeS.png","1427","-36",""
"html-keyboard-response","491","12054710","0.0-46.40-2.40","null","","","","","","","null","","","","","","","",""
"image-selector-fb","492","12057058","0.0-46.41-0.41","1842","pics2/SW6.jpg,pics2/SW3.jpg","","","","","","","true","1","","","sizeS.png","","",""
"image-slider-2AFC","493","12060879","0.0-46.41-1.41","3816","","","","-2","","","","","","","","heartS.png","3418","-2",""
"html-keyboard-response","494","12061593","0.0-46.41-2.41","null","","","","","","","null","","","","","","","",""
"image-selector-fb","495","12063573","0.0-46.42-0.42","1470","pics2/FR1.jpg,pics2/VE5.jpg","","","","","","","false","0","","","heartS.png","","",""
"image-slider-2AFC","496","12065970","0.0-46.42-1.42","2393","","","","-33","","","","","","","","sizeS.png","1234","-33",""
"html-keyboard-response","497","12066837","0.0-46.42-2.42","null","","","","","","","null","","","","","","","",""
"image-selector-fb","498","12069861","0.0-46.43-0.43","null","pics2/VE5.jpg,pics2/SW6.jpg","","","","","","","false","null","","","noS.png","","",""
"image-slider-2AFC","499","12072523","0.0-46.43-1.43","2659","","","","15","","","","","","","","heartS.png","1964","15",""
"html-keyboard-response","500","12073287","0.0-46.43-2.43","null","","","","","","","null","","","","","","","",""
"image-selector-fb","501","12075676","0.0-46.44-0.44","1876","pics2/FR3.jpg,pics2/SW3.jpg","","","","","","","false","0","","","heartS.png","","",""
"image-slider-2AFC","502","12078432","0.0-46.44-1.44","2751","","","","85","","","","","","","","sizeS.png","1846","85",""
"html-keyboard-response","503","12079294","0.0-46.44-2.44","null","","","","","","","null","","","","","","","",""
"image-selector-fb","504","12082322","0.0-46.45-0.45","null","pics2/FR1.jpg,pics2/SW6.jpg","","","","","","","false","null","","","noS.png","","",""
"image-slider-2AFC","505","12084565","0.0-46.45-1.45","2239","","","","16","","","","","","","","heartS.png","1689","16",""
"html-keyboard-response","506","12085276","0.0-46.45-2.45","null","","","","","","","null","","","","","","","",""
"image-selector-fb","507","12087760","0.0-46.46-0.46","1979","pics2/SA3.jpg,pics2/FR2.jpg","","","","","","","true","1","","","sizeS.png","","",""
"image-slider-2AFC","508","12090648","0.0-46.46-1.46","2884","","","","3","","","","","","","","sizeS.png","2378","3",""
"html-keyboard-response","509","12091366","0.0-46.46-2.46","null","","","","","","","null","","","","","","","",""
"image-selector-fb","510","12093971","0.0-46.47-0.47","2095","pics2/FR3.jpg,pics2/SA3.jpg","","","","","","","true","1","","","heartS.png","","",""
"image-slider-2AFC","511","12097687","0.0-46.47-1.47","3713","","","","-1","","","","","","","","heartS.png","2017","-1",""
"html-keyboard-response","512","12098455","0.0-46.47-2.47","null","","","","","","","null","","","","","","","",""
"image-selector-fb","513","12101476","0.0-46.48-0.48","null","pics2/FR1.jpg,pics2/FR3.jpg","","","","","","","false","null","","","noS.png","","",""
"image-slider-2AFC","514","12103813","0.0-46.48-1.48","2334","","","","-78","","","","","","","","sizeS.png","1595","-78",""
"html-keyboard-response","515","12104542","0.0-46.48-2.48","null","","","","","","","null","","","","","","","",""
"image-selector-fb","516","12107427","0.0-46.49-0.49","2373","pics2/SW6.jpg,pics2/FR4.jpg","","","","","","","false","0","","","sizeS.png","","",""
"image-slider-2AFC","517","12110382","0.0-46.49-1.49","2951","","","","30","","","","","","","","heartS.png","2328","30",""
"html-keyboard-response","518","12111154","0.0-46.49-2.49","null","","","","","","","null","","","","","","","",""
"image-selector-fb","519","12114183","0.0-46.50-0.50","2517","pics2/FR2.jpg,pics2/SA1.jpg","","","","","","","false","0","","","heartS.png","","",""
"image-slider-2AFC","520","12117007","0.0-46.50-1.50","2821","","","","100","","","","","","","","sizeS.png","1865","100",""
"html-keyboard-response","521","12117730","0.0-46.50-2.50","null","","","","","","","null","","","","","","","",""
"image-selector-fb","522","12119966","0.0-46.51-0.51","1729","pics2/SW4.jpg,pics2/VE5.jpg","","","","","","","false","0","","","heartS.png","","",""
"image-slider-2AFC","523","12121679","0.0-46.51-1.51","1708","","","","-26","","","","","","","","heartS.png","1165","-26",""
"html-keyboard-response","524","12122491","0.0-46.51-2.51","null","","","","","","","null","","","","","","","",""
"image-selector-fb","525","12125293","0.0-46.52-0.52","2291","pics2/SW1.jpg,pics2/SA1.jpg","","","","","","","false","0","","","sizeS.png","","",""
"image-slider-2AFC","526","12127725","0.0-46.52-1.52","2430","","","","-1","","","","","","","","sizeS.png","1945","-1",""
"html-keyboard-response","527","12128432","0.0-46.52-2.52","null","","","","","","","null","","","","","","","",""
"image-selector-fb","528","12131495","0.0-46.53-0.53","2555","pics2/SA1.jpg,pics2/SW3.jpg","","","","","","","true","1","","","heartS.png","","",""
"image-slider-2AFC","529","12133388","0.0-46.53-1.53","1890","","","","15","","","","","","","","heartS.png","1318","15",""
"html-keyboard-response","530","12134244","0.0-46.53-2.53","null","","","","","","","null","","","","","","","",""
"image-selector-fb","531","12137084","0.0-46.54-0.54","2334","pics2/SW4.jpg,pics2/SA1.jpg","","","","","","","true","1","","","sizeS.png","","",""
"image-slider-2AFC","532","12139551","0.0-46.54-1.54","2463","","","","19","","","","","","","","heartS.png","1703","19",""
"html-keyboard-response","533","12140370","0.0-46.54-2.54","null","","","","","","","null","","","","","","","",""
"image-selector-fb","534","12143396","0.0-46.55-0.55","null","pics2/SA1.jpg,pics2/SA4.jpg","","","","","","","false","null","","","noS.png","","",""
"image-slider-2AFC","535","12146437","0.0-46.55-1.55","3038","","","","-100","","","","","","","","sizeS.png","1994","-100",""
"html-keyboard-response","536","12147311","0.0-46.55-2.55","null","","","","","","","null","","","","","","","",""
"image-selector-fb","537","12149538","0.0-46.56-0.56","1723","pics2/SA4.jpg,pics2/FR3.jpg","","","","","","","false","0","","","heartS.png","","",""
"image-slider-2AFC","538","12153990","0.0-46.56-1.56","4449","","","","2","","","","","","","","sizeS.png","3905","2",""
"html-keyboard-response","539","12154701","0.0-46.56-2.56","null","","","","","","","null","","","","","","","",""
"image-selector-fb","540","12157480","0.0-46.57-0.57","2270","pics2/FR3.jpg,pics2/FR1.jpg","","","","","","","true","1","","","heartS.png","","",""
"image-slider-2AFC","541","12159936","0.0-46.57-1.57","2452","","","","71","","","","","","","","sizeS.png","1691","71",""
"html-keyboard-response","542","12160750","0.0-46.57-2.57","null","","","","","","","null","","","","","","","",""
"image-selector-fb","543","12163234","0.0-46.58-0.58","1970","pics2/SA1.jpg,pics2/SW6.jpg","","","","","","","true","1","","","heartS.png","","",""
"image-slider-2AFC","544","12165337","0.0-46.58-1.58","2100","","","","-80","","","","","","","","sizeS.png","1108","-80",""
"html-keyboard-response","545","12166105","0.0-46.58-2.58","null","","","","","","","null","","","","","","","",""
"image-selector-fb","546","12169091","0.0-46.59-0.59","2474","pics2/SW4.jpg,pics2/FR1.jpg","","","","","","","false","0","","","heartS.png","","",""
"image-slider-2AFC","547","12172486","0.0-46.59-1.59","3390","","","","-78","","","","","","","","heartS.png","2558","-78",""
"html-keyboard-response","548","12173297","0.0-46.59-2.59","null","","","","","","","null","","","","","","","",""
"image-selector-fb","549","12176319","0.0-46.60-0.60","null","pics2/SA4.jpg,pics2/FR4.jpg","","","","","","","false","null","","","noS.png","","",""
"image-slider-2AFC","550","12180719","0.0-46.60-1.60","4394","","","","-14","","","","","","","","sizeS.png","3127","-14",""
"html-keyboard-response","551","12181479","0.0-46.60-2.60","null","","","","","","","null","","","","","","","",""
"image-selector-fb","552","12183219","0.0-46.61-0.61","1220","pics2/FR4.jpg,pics2/SA3.jpg","","","","","","","false","0","","","heartS.png","","",""
"image-slider-2AFC","553","12186953","0.0-46.61-1.61","3731","","","","-62","","","","","","","","sizeS.png","1341","-62",""
"html-keyboard-response","554","12187713","0.0-46.61-2.61","null","","","","","","","null","","","","","","","",""
"image-selector-fb","555","12190737","0.0-46.62-0.62","null","pics2/SW1.jpg,pics2/FR3.jpg","","","","","","","false","null","","","noS.png","","",""
"image-slider-2AFC","556","12193608","0.0-46.62-1.62","2867","","","","-85","","","","","","","","sizeS.png","1614","-85",""
"html-keyboard-response","557","12194321","0.0-46.62-2.62","null","","","","","","","null","","","","","","","",""
"image-selector-fb","558","12197351","0.0-46.63-0.63","null","pics2/FR1.jpg,pics2/SW1.jpg","","","","","","","false","null","","","noS.png","","",""
"image-slider-2AFC","559","12200713","0.0-46.63-1.63","3360","","","","65","","","","","","","","sizeS.png","2505","65",""
"html-keyboard-response","560","12201533","0.0-46.63-2.63","null","","","","","","","null","","","","","","","",""
"image-selector-fb","561","12203874","0.0-46.64-0.64","1835","pics2/SW3.jpg,pics2/FR4.jpg","","","","","","","false","0","","","sizeS.png","","",""
"image-slider-2AFC","562","12206159","0.0-46.64-1.64","2281","","","","-9","","","","","","","","heartS.png","1811","-9",""
"html-keyboard-response","563","12206877","0.0-46.64-2.64","null","","","","","","","null","","","","","","","",""
"image-selector-fb","564","12210146","0.0-46.65-0.65","2763","pics2/FR4.jpg,pics2/SA1.jpg","","","","","","","false","0","","","heartS.png","","",""
"image-slider-2AFC","565","12213705","0.0-46.65-1.65","3555","","","","-19","","","","","","","","heartS.png","1534,2656","-3,-19",""
"html-keyboard-response","566","12214586","0.0-46.65-2.65","null","","","","","","","null","","","","","","","",""
"pavlovia","567","12214639","0.0-47.0","","","","","","","","","","","","","","","",""
"html-keyboard-response","568","12219652","0.0-48.0","null","<div style='width: 700px;'> <font size=6><b>SHORT BREAK</font></b><br><br><i> Please wait 5 seconds to continue</i></div> ","","","","","","null","","","","","","","",""
"pavlovia","569","12219655","0.0-49.0","","","","","","","","","","","","","","","",""
"html-button-response","570","12294680","0.0-50.0","75022","<div style='width: 700px;'> <font size=6><b>BLOCK 3</font></b><br><br>Press the button whenever you feel ready to start the third and final block</div>","0","","","","","","","","","","","","",""
"image-selector-fb","571","12299198","0.0-51.0-0.0","null","pics2/SA4.jpg,pics2/SW3.jpg","","","","","","","false","null","","","heartS.png","","",""
"image-slider-2AFC","572","12299200","0.0-51.0-1.0","null","","","","null","","","","","","","","heartS.png","","",""
"html-keyboard-response","573","12300013","0.0-51.0-2.0","null","","","","","","","null","","","","","","","",""
"image-selector-fb","574","12304522","0.0-51.1-0.1","null","pics2/SA1.jpg,pics2/SW1.jpg","","","","","","","false","null","","","heartS.png","","",""
"image-slider-2AFC","575","12304523","0.0-51.1-1.1","null","","","","null","","","","","","","","sizeS.png","","",""
"html-keyboard-response","576","12305294","0.0-51.1-2.1","null","","","","","","","null","","","","","","","",""
"image-selector-fb","577","12308193","0.0-51.2-0.2","2393","pics2/FR2.jpg,pics2/SW3.jpg","","","","","","","true","1","","","heartS.png","","",""
"image-slider-2AFC","578","12310602","0.0-51.2-1.2","2405","","","","93","","","","","","","","sizeS.png","1725","93",""
"html-keyboard-response","579","12311371","0.0-51.2-2.2","null","","","","","","","null","","","","","","","",""
"image-selector-fb","580","12313438","0.0-51.3-0.3","1553","pics2/VE5.jpg,pics2/SA1.jpg","","","","","","","true","1","","","sizeS.png","","",""
"image-slider-2AFC","581","12315693","0.0-51.3-1.3","2251","","","","55","","","","","","","","sizeS.png","1491","55",""
"html-keyboard-response","582","12316463","0.0-51.3-2.3","null","","","","","","","null","","","","","","","",""
"image-selector-fb","583","12319491","0.0-51.4-0.4","null","pics2/SW4.jpg,pics2/FR4.jpg","","","","","","","false","null","","","noS.png","","",""
"image-slider-2AFC","584","12323101","0.0-51.4-1.4","3606","","","","-75","","","","","","","","sizeS.png","2477","-75",""
"html-keyboard-response","585","12323915","0.0-51.4-2.4","null","","","","","","","null","","","","","","","",""
"image-selector-fb","586","12326070","0.0-51.5-0.5","1645","pics2/SA1.jpg,pics2/SW4.jpg","","","","","","","true","1","","","heartS.png","","",""
"image-slider-2AFC","587","12328047","0.0-51.5-1.5","1974","","","","-52","","","","","","","","sizeS.png","1322","-52",""
"html-keyboard-response","588","12328917","0.0-51.5-2.5","null","","","","","","","null","","","","","","","",""
"image-selector-fb","589","12330571","0.0-51.6-0.6","1146","pics2/VE5.jpg,pics2/SA4.jpg","","","","","","","true","1","","","sizeS.png","","",""
"image-slider-2AFC","590","12332827","0.0-51.6-1.6","2252","","","","89","","","","","","","","heartS.png","1390","89",""
"html-keyboard-response","591","12333647","0.0-51.6-2.6","null","","","","","","","null","","","","","","","",""
"image-selector-fb","592","12336664","0.0-51.7-0.7","null","pics2/SW1.jpg,pics2/SW6.jpg","","","","","","","false","null","","","noS.png","","",""
"image-slider-2AFC","593","12340283","0.0-51.7-1.7","3616","","","","-4","","","","","","","","heartS.png","3023","-4",""
"html-keyboard-response","594","12341166","0.0-51.7-2.7","null","","","","","","","null","","","","","","","",""
"image-selector-fb","595","12343784","0.0-51.8-0.8","2097","pics2/SW1.jpg,pics2/SW6.jpg","","","","","","","false","0","","","sizeS.png","","",""
"image-slider-2AFC","596","12348473","0.0-51.8-1.8","4685","","","","-53","","","","","","","","heartS.png","3477","-53",""
"html-keyboard-response","597","12349180","0.0-51.8-2.8","null","","","","","","","null","","","","","","","",""
"image-selector-fb","598","12352209","0.0-51.9-0.9","null","pics2/FR3.jpg,pics2/FR4.jpg","","","","","","","false","null","","","noS.png","","",""
"image-slider-2AFC","599","12354737","0.0-51.9-1.9","2525","","","","65","","","","","","","","heartS.png","1931","65",""
"html-keyboard-response","600","12355552","0.0-51.9-2.9","null","","","","","","","null","","","","","","","",""
"image-selector-fb","601","12357946","0.0-51.10-0.10","1884","pics2/SA4.jpg,pics2/SA1.jpg","","","","","","","false","0","","","heartS.png","","",""
"image-slider-2AFC","602","12359872","0.0-51.10-1.10","1924","","","","-94","","","","","","","","heartS.png","1091","-94",""
"html-keyboard-response","603","12360633","0.0-51.10-2.10","null","","","","","","","null","","","","","","","",""
"image-selector-fb","604","12362951","0.0-51.11-0.11","1799","pics2/SW4.jpg,pics2/SA4.jpg","","","","","","","false","0","","","sizeS.png","","",""
"image-slider-2AFC","605","12365564","0.0-51.11-1.11","2610","","","","-8","","","","","","","","sizeS.png","1407","-8",""
"html-keyboard-response","606","12366333","0.0-51.11-2.11","null","","","","","","","null","","","","","","","",""
"image-selector-fb","607","12369343","0.0-51.12-0.12","null","pics2/SW4.jpg,pics2/FR3.jpg","","","","","","","false","null","","","noS.png","","",""
"image-slider-2AFC","608","12371923","0.0-51.12-1.12","2575","","","","50","","","","","","","","heartS.png","1771","50",""
"html-keyboard-response","609","12372787","0.0-51.12-2.12","null","","","","","","","null","","","","","","","",""
"image-selector-fb","610","12377309","0.0-51.13-0.13","null","pics2/SA3.jpg,pics2/SW6.jpg","","","","","","","false","null","","","heartS.png","","",""
"image-slider-2AFC","611","12377311","0.0-51.13-1.13","null","","","","null","","","","","","","","heartS.png","","",""
"html-keyboard-response","612","12378114","0.0-51.13-2.13","null","","","","","","","null","","","","","","","",""
"image-selector-fb","613","12379835","0.0-51.14-0.14","1208","pics2/SA4.jpg,pics2/SA3.jpg","","","","","","","false","0","","","heartS.png","","",""
"image-slider-2AFC","614","12382743","0.0-51.14-1.14","2904","","","","-76","","","","","","","","sizeS.png","1862","-76",""
"html-keyboard-response","615","12383610","0.0-51.14-2.14","null","","","","","","","null","","","","","","","",""
"image-selector-fb","616","12386136","0.0-51.15-0.15","2020","pics2/FR1.jpg,pics2/SA4.jpg","","","","","","","true","1","","","sizeS.png","","",""
"image-slider-2AFC","617","12389449","0.0-51.15-1.15","3310","","","","53","","","","","","","","heartS.png","2564","53",""
"html-keyboard-response","618","12390318","0.0-51.15-2.15","null","","","","","","","null","","","","","","","",""
"image-selector-fb","619","12392030","0.0-51.16-0.16","1205","pics2/FR4.jpg,pics2/SW1.jpg","","","","","","","true","1","","","heartS.png","","",""
"image-slider-2AFC","620","12394808","0.0-51.16-1.16","2775","","","","85","","","","","","","","sizeS.png","1545","85",""
"html-keyboard-response","621","12395630","0.0-51.16-2.16","null","","","","","","","null","","","","","","","",""
"image-selector-fb","622","12398094","0.0-51.17-0.17","1949","pics2/SW3.jpg,pics2/FR1.jpg","","","","","","","false","0","","","sizeS.png","","",""
"image-slider-2AFC","623","12401212","0.0-51.17-1.17","3114","","","","89","","","","","","","","heartS.png","1703","89",""
"html-keyboard-response","624","12401922","0.0-51.17-2.17","null","","","","","","","null","","","","","","","",""
"image-selector-fb","625","12404448","0.0-51.18-0.18","2013","pics2/FR4.jpg,pics2/FR3.jpg","","","","","","","false","0","","","heartS.png","","",""
"image-slider-2AFC","626","12408229","0.0-51.18-1.18","3777","","","","18","","","","","","","","sizeS.png","2242","18",""
"html-keyboard-response","627","12408944","0.0-51.18-2.18","null","","","","","","","null","","","","","","","",""
"image-selector-fb","628","12411468","0.0-51.19-0.19","2005","pics2/SW6.jpg,pics2/SA3.jpg","","","","","","","false","0","","","sizeS.png","","",""
"image-slider-2AFC","629","12414328","0.0-51.19-1.19","2857","","","","-2","","","","","","","","sizeS.png","2161","-2",""
"html-keyboard-response","630","12415155","0.0-51.19-2.19","null","","","","","","","null","","","","","","","",""
"image-selector-fb","631","12419072","0.0-51.20-0.20","3406","pics2/FR1.jpg,pics2/SW6.jpg","","","","","","","false","0","","","heartS.png","","",""
"image-slider-2AFC","632","12421396","0.0-51.20-1.20","2321","","","","-7","","","","","","","","heartS.png","1772","-7",""
"html-keyboard-response","633","12422107","0.0-51.20-2.20","null","","","","","","","null","","","","","","","",""
"image-selector-fb","634","12425991","0.0-51.21-0.21","3371","pics2/SA3.jpg,pics2/SA4.jpg","","","","","","","true","1","","","sizeS.png","","",""
"image-slider-2AFC","635","12427856","0.0-51.21-1.21","1862","","","","13","","","","","","","","heartS.png","1341","13",""
"html-keyboard-response","636","12428571","0.0-51.21-2.21","null","","","","","","","null","","","","","","","",""
"image-selector-fb","637","12431279","0.0-51.22-0.22","2193","pics2/SW3.jpg,pics2/FR3.jpg","","","","","","","false","0","","","sizeS.png","","",""
"image-slider-2AFC","638","12433512","0.0-51.22-1.22","2231","","","","-41","","","","","","","","sizeS.png","1434","-41",""
"html-keyboard-response","639","12434383","0.0-51.22-2.22","null","","","","","","","null","","","","","","","",""
"image-selector-fb","640","12437398","0.0-51.23-0.23","null","pics2/VE5.jpg,pics2/SW1.jpg","","","","","","","false","null","","","noS.png","","",""
"image-slider-2AFC","641","12440789","0.0-51.23-1.23","3389","","","","73","","","","","","","","sizeS.png","2542","73",""
"html-keyboard-response","642","12441613","0.0-51.23-2.23","null","","","","","","","null","","","","","","","",""
"image-selector-fb","643","12443982","0.0-51.24-0.24","1861","pics2/FR3.jpg,pics2/SA1.jpg","","","","","","","false","0","","","heartS.png","","",""
"image-slider-2AFC","644","12446743","0.0-51.24-1.24","2757","","","","39","","","","","","","","sizeS.png","2077","39",""
"html-keyboard-response","645","12447461","0.0-51.24-2.24","null","","","","","","","null","","","","","","","",""
"image-selector-fb","646","12450169","0.0-51.25-0.25","2203","pics2/SA3.jpg,pics2/SW4.jpg","","","","","","","true","1","","","sizeS.png","","",""
"image-slider-2AFC","647","12452398","0.0-51.25-1.25","2227","","","","64","","","","","","","","heartS.png","1430","64",""
"html-keyboard-response","648","12453210","0.0-51.25-2.25","null","","","","","","","null","","","","","","","",""
"image-selector-fb","649","12455088","0.0-51.26-0.26","1372","pics2/SA4.jpg,pics2/FR2.jpg","","","","","","","false","0","","","heartS.png","","",""
"image-slider-2AFC","650","12460092","0.0-51.26-1.26","null","","","","null","","","","","","","","heartS.png","","",""
"html-keyboard-response","651","12460909","0.0-51.26-2.26","null","","","","","","","null","","","","","","","",""
"image-selector-fb","652","12463922","0.0-51.27-0.27","null","pics2/SW3.jpg,pics2/FR2.jpg","","","","","","","false","null","","","noS.png","","",""
"image-slider-2AFC","653","12466542","0.0-51.27-1.27","2615","","","","-53","","","","","","","","sizeS.png","2029","-53",""
"html-keyboard-response","654","12467300","0.0-51.27-2.27","null","","","","","","","null","","","","","","","",""
"image-selector-fb","655","12470540","0.0-51.28-0.28","2729","pics2/SW6.jpg,pics2/FR3.jpg","","","","","","","false","0","","","sizeS.png","","",""
"image-slider-2AFC","656","12473392","0.0-51.28-1.28","2850","","","","-3","","","","","","","","sizeS.png","2068","-3",""
"html-keyboard-response","657","12474113","0.0-51.28-2.28","null","","","","","","","null","","","","","","","",""
"image-selector-fb","658","12477140","0.0-51.29-0.29","2513","pics2/SW3.jpg,pics2/SA4.jpg","","","","","","","false","0","","","sizeS.png","","",""
"image-slider-2AFC","659","12479172","0.0-51.29-1.29","2028","","","","-29","","","","","","","","sizeS.png","1181","-29",""
"html-keyboard-response","660","12479883","0.0-51.29-2.29","null","","","","","","","null","","","","","","","",""
"image-selector-fb","661","12483593","0.0-51.30-0.30","3203","pics2/FR3.jpg,pics2/SA4.jpg","","","","","","","false","0","","","sizeS.png","","",""
"image-slider-2AFC","662","12486552","0.0-51.30-1.30","2955","","","","61","","","","","","","","heartS.png","2151","61",""
"html-keyboard-response","663","12487326","0.0-51.30-2.30","null","","","","","","","null","","","","","","","",""
"image-selector-fb","664","12489420","0.0-51.31-0.31","1585","pics2/SW3.jpg,pics2/SA1.jpg","","","","","","","false","0","","","sizeS.png","","",""
"image-slider-2AFC","665","12493925","0.0-51.31-1.31","4500","","","","-39","","","","","","","","heartS.png","1552,3487","-99,-39",""
"html-keyboard-response","666","12494729","0.0-51.31-2.31","null","","","","","","","null","","","","","","","",""
"image-selector-fb","667","12497762","0.0-51.32-0.32","null","pics2/SW3.jpg,pics2/SW6.jpg","","","","","","","false","null","","","noS.png","","",""
"image-slider-2AFC","668","12500978","0.0-51.32-1.32","3213","","","","-26","","","","","","","","heartS.png","2417","-26",""
"html-keyboard-response","669","12501693","0.0-51.32-2.32","null","","","","","","","null","","","","","","","",""
"image-selector-fb","670","12504708","0.0-51.33-0.33","2505","pics2/FR3.jpg,pics2/FR4.jpg","","","","","","","false","0","","","sizeS.png","","",""
"image-slider-2AFC","671","12506808","0.0-51.33-1.33","2098","","","","-4","","","","","","","","sizeS.png","1613","-4",""
"html-keyboard-response","672","12507679","0.0-51.33-2.33","null","","","","","","","null","","","","","","","",""
"image-selector-fb","673","12510686","0.0-51.34-0.34","2500","pics2/VE5.jpg,pics2/SW4.jpg","","","","","","","true","1","","","sizeS.png","","",""
"image-slider-2AFC","674","12513884","0.0-51.34-1.34","3195","","","","21","","","","","","","","heartS.png","2383","21",""
"html-keyboard-response","675","12514746","0.0-51.34-2.34","null","","","","","","","null","","","","","","","",""
"image-selector-fb","676","12517759","0.0-51.35-0.35","null","pics2/SW4.jpg,pics2/SA4.jpg","","","","","","","false","null","","","noS.png","","",""
"image-slider-2AFC","677","12521539","0.0-51.35-1.35","3776","","","","50","","","","","","","","sizeS.png","2617","50",""
"html-keyboard-response","678","12522299","0.0-51.35-2.35","null","","","","","","","null","","","","","","","",""
"image-selector-fb","679","12524490","0.0-51.36-0.36","1684","pics2/VE5.jpg,pics2/FR4.jpg","","","","","","","false","0","","","sizeS.png","","",""
"image-slider-2AFC","680","12527876","0.0-51.36-1.36","3381","","","","-17","","","","","","","","sizeS.png","2150","-17",""
"html-keyboard-response","681","12528651","0.0-51.36-2.36","null","","","","","","","null","","","","","","","",""
"image-selector-fb","682","12531674","0.0-51.37-0.37","null","pics2/SA1.jpg,pics2/FR2.jpg","","","","","","","false","null","","","noS.png","","",""
"image-slider-2AFC","683","12535183","0.0-51.37-1.37","3504","","","","43","","","","","","","","heartS.png","2911","43",""
"html-keyboard-response","684","12535951","0.0-51.37-2.37","null","","","","","","","null","","","","","","","",""
"image-selector-fb","685","12538992","0.0-51.38-0.38","2531","pics2/SW3.jpg,pics2/SA3.jpg","","","","","","","false","0","","","sizeS.png","","",""
"image-slider-2AFC","686","12541244","0.0-51.38-1.38","2249","","","","-20","","","","","","","","sizeS.png","1698","-20",""
"html-keyboard-response","687","12542063","0.0-51.38-2.38","null","","","","","","","null","","","","","","","",""
"image-selector-fb","688","12545091","0.0-51.39-0.39","null","pics2/SA4.jpg,pics2/SA3.jpg","","","","","","","false","null","","","noS.png","","",""
"image-slider-2AFC","689","12547349","0.0-51.39-1.39","2255","","","","-52","","","","","","","","heartS.png","1501","-52",""
"html-keyboard-response","690","12548227","0.0-51.39-2.39","null","","","","","","","null","","","","","","","",""
"image-selector-fb","691","12551278","0.0-51.40-0.40","2536","pics2/SW3.jpg,pics2/FR2.jpg","","","","","","","false","0","","","sizeS.png","","",""
"image-slider-2AFC","692","12553614","0.0-51.40-1.40","2331","","","","-38","","","","","","","","heartS.png","1506","-38",""
"html-keyboard-response","693","12554379","0.0-51.40-2.40","null","","","","","","","null","","","","","","","",""
"image-selector-fb","694","12558058","0.0-51.41-0.41","3170","pics2/SW6.jpg,pics2/FR2.jpg","","","","","","","true","1","","","sizeS.png","","",""
"image-slider-2AFC","695","12560653","0.0-51.41-1.41","2592","","","","18","","","","","","","","heartS.png","2071","18",""
"html-keyboard-response","696","12561423","0.0-51.41-2.41","null","","","","","","","null","","","","","","","",""
"image-selector-fb","697","12563757","0.0-51.42-0.42","1827","pics2/SA4.jpg,pics2/FR1.jpg","","","","","","","false","0","","","heartS.png","","",""
"image-slider-2AFC","698","12566201","0.0-51.42-1.42","2441","","","","-23","","","","","","","","heartS.png","1695","-23",""
"html-keyboard-response","699","12566969","0.0-51.42-2.42","null","","","","","","","null","","","","","","","",""
"image-selector-fb","700","12569290","0.0-51.43-0.43","1815","pics2/FR4.jpg,pics2/VE5.jpg","","","","","","","false","0","","","heartS.png","","",""
"image-slider-2AFC","701","12572097","0.0-51.43-1.43","2803","","","","-45","","","","","","","","heartS.png","1862","-45",""
"html-keyboard-response","702","12572868","0.0-51.43-2.43","null","","","","","","","null","","","","","","","",""
"image-selector-fb","703","12576824","0.0-51.44-0.44","3447","pics2/FR1.jpg,pics2/SW3.jpg","","","","","","","true","1","","","heartS.png","","",""
