"trial_type","trial_index","time_elapsed","internal_node_id","rt","stimulus","button_pressed","success","response","cat","value","key_press","correct","image_click","first_click_rt","first_click_val","symbol","all_click_rt","all_click_val","view_history"
"pavlovia","0","8","0.0-0.0","","","","","","","","","","","","","","","",""
"html-button-response","1","13133","0.0-1.0","13121","<div style='width: 700px; font-size: 150%'><font size='40'>  Welcome to our study!</font><br><br><br> <small> Our experiment is about <i>decision making</i>. You will choose and rate different food items, such as these: <br><br> <div><img src='food_combo2.png', height = '400px'></img></div>","0","","","","","","","","","","","","",""
"html-button-response","2","21388","0.0-2.0","8254","<div style='width: 700px; font-size: 150%'><br><br><br><small> <u><i>This is a multi-part study.</i></u><br><br> In the first part you will rate 24 food items twice.<br><br><div><img src=""rat1.png"" style=""width: 25%""></img></div><br>In the second part (longest) you will make repeated choices and judgements concerning the food items.<br><br><div><img src=""mainx.png"" style=""width: 50%""></img></div><br>In the third and final part, you will rate the items again and answer few short questionnaires.<br><br><div><img src=""rat2.png"" style=""width: 50%""></img></div><br><br>","0","","","","","","","","","","","","",""
"fullscreen","3","25837","0.0-3.0","","","","true","","","","","","","","","","","",""
"html-button-response","4","42788","0.0-4.0","16949","<div style='width: 900px; font-size: 150%;' <font size='20%'> In the first part of the task you will use the mouse to rate food items on <i>2 scales</i> </font></div><br><br><div style='width: 900px'><div style='float: left; width: 50%; margin-right:2.5em'><img src='heartS.png'></img><p class='small' style='text-align: justify'>When you see the heart cue you will rate food items in terms of how much like them/would like to eat them <i>right now</i>. You will rate them on a continuous scale from left (strong dislike) to right (strong liking). Before submitting your rating, try imagining how the item tastes and how much you desire it.<br><br></p></div><div ><img src='sizeS.png'></img><p class='small' style='text-align: justify'>When you see the size cue, you will rate the same food items in terms of their size. The scale goes from left (tiny) to right (very large). You should assess picture size <i><u>relative</i></u> to the white background. <b>Remember:</b> rate the size of the picture, <u>not</u> the size of the item in real life. </p></div><div style='width: 900px'><br><br><b><i>Notice:</b> by starting the rating you agree that your sumbission might be rejected at an early stage and the experiment might end, if your size ratings are not at least modestly related to objective sizes, or if you repeat the same value ratings too many times. If you don't agree, please exit by closing the browser window. </i><br><br><br>","0","","","","","","","","","","","","",""
"html-button-response","5","46899","0.0-5.0","4110","<div><img src='heartS.png'></img></div><br><div style='text-align: justify; width: 700px'>Using the mouse, rate the <b><i>likeness</b></i> of the food items (how much you like them/would like to eat them <i>right now</i>). Far right-end of the scale indicates an item you <i>like a lot</i>. Far left-end indicates an item you <i>dislike a lot</i>. Think about each answer.   <ul><li>Try <b><i>not</b></i> to give identical rating to different items.</li><li>Use the whole scale, and <b><i>not</b></i> just the extremes</ul></div><br>","0","","","","","","","","","","","","",""
"image-slider-response","6","51411","0.0-6.0-0.0-0.0","4509","pics2/FR5.jpg","","","25","FR","","","","","","","","","",""
"image-slider-response","7","53795","0.0-6.0-0.0-0.1","2171","pics2/SW1.jpg","","","65","SW","","","","","","","","","",""
"image-slider-response","8","56227","0.0-6.0-0.0-0.2","2204","pics2/FR4.jpg","","","80","FR","","","","","","","","","",""
"image-slider-response","9","59218","0.0-6.0-0.0-0.3","2782","pics2/VE1.jpg","","","81","VE","","","","","","","","","",""
"image-slider-response","10","61962","0.0-6.0-0.0-0.4","2542","pics2/SA6.jpg","","","74","SA","","","","","","","","","",""
"image-slider-response","11","64650","0.0-6.0-0.0-0.5","2472","pics2/VE4.jpg","","","99","VE","","","","","","","","","",""
"image-slider-response","12","66818","0.0-6.0-0.0-0.6","1963","pics2/FR3.jpg","","","65","FR","","","","","","","","","",""
"image-slider-response","13","69754","0.0-6.0-0.0-0.7","2723","pics2/FR6.jpg","","","55","FR","","","","","","","","","",""
"image-slider-response","14","75218","0.0-6.0-0.0-0.8","5261","pics2/SW2.jpg","","","50","SW","","","","","","","","","",""
"image-slider-response","15","77650","0.0-6.0-0.0-0.9","2226","pics2/SA4.jpg","","","82","SA","","","","","","","","","",""
"image-slider-response","16","80041","0.0-6.0-0.0-0.10","2183","pics2/SW6.jpg","","","39","SW","","","","","","","","","",""
"image-slider-response","17","83090","0.0-6.0-0.0-0.11","2845","pics2/SA5.jpg","","","3","SA","","","","","","","","","",""
"image-slider-response","18","85473","0.0-6.0-0.0-0.12","2177","pics2/VE3.jpg","","","17","VE","","","","","","","","","",""
"image-slider-response","19","87906","0.0-6.0-0.0-0.13","2219","pics2/FR1.jpg","","","40","FR","","","","","","","","","",""
"image-slider-response","20","91122","0.0-6.0-0.0-0.14","3007","pics2/SA2.jpg","","","67","SA","","","","","","","","","",""
"image-slider-response","21","93514","0.0-6.0-0.0-0.15","2182","pics2/SA3.jpg","","","90","SA","","","","","","","","","",""
"image-slider-response","22","96146","0.0-6.0-0.0-0.16","2421","pics2/VE5.jpg","","","77","VE","","","","","","","","","",""
"image-slider-response","23","99129","0.0-6.0-0.0-0.17","2766","pics2/SA1.jpg","","","17","SA","","","","","","","","","",""
"image-slider-response","24","101513","0.0-6.0-0.0-0.18","2168","pics2/FR2.jpg","","","43","FR","","","","","","","","","",""
"image-slider-response","25","103938","0.0-6.0-0.0-0.19","2206","pics2/VE2.jpg","","","21","VE","","","","","","","","","",""
"image-slider-response","26","106426","0.0-6.0-0.0-0.20","2276","pics2/VE6.jpg","","","5","VE","","","","","","","","","",""
"image-slider-response","27","109217","0.0-6.0-0.0-0.21","2575","pics2/SW4.jpg","","","19","SW","","","","","","","","","",""
"image-slider-response","28","111945","0.0-6.0-0.0-0.22","2503","pics2/SW3.jpg","","","2","SW","","","","","","","","","",""
"image-slider-response","29","114538","0.0-6.0-0.0-0.23","2376","pics2/SW5.jpg","","","0","SW","","","","","","","","","",""
"html-button-response","30","116227","0.0-7.0","1485","<div style='width: 900px;'> <font size = 6><b> End of the first rating</b><br><br>","0","","","","","","","","","","","","",""
"html-button-response","31","124384","0.0-9.0","8155","<div ><img src='sizeS.png'></img></div><br><div style='text-align: justify; width: 700px'> Using the mouse, rate the <b><i>size</b></i> of the food items <b><i> relative to the white background.</b></i> Right-end of the scale indicates a <i>very large item</i>, which covers a large portion of the white rectangle. Left-end indicates a <i>very tiny</i> item which covers a tiny portion of the white rectangle.<br><br><i><u>Remember</i></u>: everything that is not the white background also contributes to item size (e.g. packing, plates, ect.)<br><br> Please keep in mind that if the accuracy of ratings do not allign well with actual sizes, the experiment will end.  As a result it will be consider incomplete and therefore no payment would be made. Good luck!<br><br></div><br>","0","","","","","","","","","","","","",""
"html-button-response","32","127664","0.0-10.0","3278","<div ><img src='sizeS.png'></img></div><br><b><font size=6>Examples of items that you might encounter</b><br><div style='width: 750px;'><div style='width: 33.33%; float:left'><br><br><br><i>Large Item</i><br><br><img src='large.jpg', width=200px></img></div><div style='float:right'><br><br><br><i>Small Item</i><br><br><img src='small.jpg', width=200px></img></div><div ><br><br><br><i>Medium Item</i><br><br><img src='med.jpg', width=200px></img></div></div><br><br>","0","","","","","","","","","","","","",""
"image-slider-response","33","131152","0.0-11.0-0.0-0.0","3487","pics2/SW3.jpg","","","82","null","","","","","","","","","",""
"image-slider-response","34","135368","0.0-11.0-0.0-0.1","4001","pics2/SW5.jpg","","","73","null","","","","","","","","","",""
"image-slider-response","35","137920","0.0-11.0-0.0-0.2","2335","pics2/SW1.jpg","","","88","null","","","","","","","","","",""
"image-slider-response","36","140248","0.0-11.0-0.0-0.3","2113","pics2/VE6.jpg","","","57","null","","","","","","","","","",""
"image-slider-response","37","142288","0.0-11.0-0.0-0.4","1809","pics2/VE5.jpg","","","55","null","","","","","","","","","",""
"image-slider-response","38","144320","0.0-11.0-0.0-0.5","1826","pics2/VE4.jpg","","","50","null","","","","","","","","","",""
"image-slider-response","39","146672","0.0-11.0-0.0-0.6","2137","pics2/FR4.jpg","","","64","null","","","","","","","","","",""
"image-slider-response","40","148784","0.0-11.0-0.0-0.7","1896","pics2/SW4.jpg","","","58","null","","","","","","","","","",""
"image-slider-response","41","150872","0.0-11.0-0.0-0.8","1874","pics2/SA2.jpg","","","43","null","","","","","","","","","",""
"image-slider-response","42","152744","0.0-11.0-0.0-0.9","1654","pics2/SW6.jpg","","","37","null","","","","","","","","","",""
"image-slider-response","43","154952","0.0-11.0-0.0-0.10","1995","pics2/SA6.jpg","","","52","null","","","","","","","","","",""
"image-slider-response","44","157016","0.0-11.0-0.0-0.11","1847","pics2/FR3.jpg","","","65","null","","","","","","","","","",""
"image-slider-response","45","159496","0.0-11.0-0.0-0.12","2273","pics2/FR2.jpg","","","76","null","","","","","","","","","",""
"image-slider-response","46","161720","0.0-11.0-0.0-0.13","2018","pics2/SA1.jpg","","","83","null","","","","","","","","","",""
"image-slider-response","47","163880","0.0-11.0-0.0-0.14","1955","pics2/FR1.jpg","","","75","null","","","","","","","","","",""
"image-slider-response","48","165864","0.0-11.0-0.0-0.15","1776","pics2/SA3.jpg","","","55","null","","","","","","","","","",""
"image-slider-response","49","168120","0.0-11.0-0.0-0.16","2045","pics2/VE2.jpg","","","58","null","","","","","","","","","",""
"image-slider-response","50","169968","0.0-11.0-0.0-0.17","1616","pics2/FR5.jpg","","","43","null","","","","","","","","","",""
"image-slider-response","51","171976","0.0-11.0-0.0-0.18","1797","pics2/VE3.jpg","","","61","null","","","","","","","","","",""
"image-slider-response","52","174584","0.0-11.0-0.0-0.19","2406","pics2/SW2.jpg","","","80","null","","","","","","","","","",""
"image-slider-response","53","176776","0.0-11.0-0.0-0.20","1977","pics2/FR6.jpg","","","34","null","","","","","","","","","",""
"image-slider-response","54","178833","0.0-11.0-0.0-0.21","1845","pics2/SA5.jpg","","","24","null","","","","","","","","","",""
"image-slider-response","55","180905","0.0-11.0-0.0-0.22","1860","pics2/VE1.jpg","","","57","null","","","","","","","","","",""
"image-slider-response","56","183609","0.0-11.0-0.0-0.23","2478","pics2/SA4.jpg","","","31","null","","","","","","","","","",""
"html-button-response","57","185257","0.0-12.0","1439","<div style='width: 900px;'> <font size = 6><b> End of the second rating</b><br><br>","0","","","","","","","","","","","","",""
"html-button-response","58","187657","0.0-13.0","2400","<div style='width: 900px;'>Now please rate the items for the second time. <br><br>This is not a memory test - you don't need to be consistent with your previous ratings. Just as before, try to make accurate judgements.<br><br>","0","","","","","","","","","","","","",""
"html-button-response","59","190193","0.0-14.0","2534","<div><img src='heartS.png'></img></div><br><div style='text-align: justify; width: 700px'>Using the mouse, rate the <b><i>likeness</b></i> of the food items (how much you like them/would like to eat them <i>right now</i>). Far right-end of the scale indicates an item you <i>like a lot</i>. Far left-end indicates an item you <i>dislike a lot</i>. Think about each answer.   <ul><li>Try <b><i>not</b></i> to give identical rating to different items.</li><li>Use the whole scale, and <b><i>not</b></i> just the extremes</ul></div><br>","0","","","","","","","","","","","","",""
"image-slider-response","60","192593","0.0-15.0-0.0-0.0","2397","pics2/SW4.jpg","","","37","SW","","","","","","","","","",""
"image-slider-response","61","194625","0.0-15.0-0.0-0.1","1826","pics2/FR3.jpg","","","61","FR","","","","","","","","","",""
"image-slider-response","62","197240","0.0-15.0-0.0-0.2","2407","pics2/FR6.jpg","","","48","FR","","","","","","","","","",""
"image-slider-response","63","199393","0.0-15.0-0.0-0.3","1948","pics2/FR1.jpg","","","61","FR","","","","","","","","","",""
"image-slider-response","64","201633","0.0-15.0-0.0-0.4","2031","pics2/VE3.jpg","","","33","VE","","","","","","","","","",""
"image-slider-response","65","204033","0.0-15.0-0.0-0.5","2183","pics2/SW3.jpg","","","2","SW","","","","","","","","","",""
"image-slider-response","66","206073","0.0-15.0-0.0-0.6","1814","pics2/VE6.jpg","","","39","VE","","","","","","","","","",""
"image-slider-response","67","208177","0.0-15.0-0.0-0.7","1890","pics2/SA3.jpg","","","73","SA","","","","","","","","","",""
"image-slider-response","68","210241","0.0-15.0-0.0-0.8","1848","pics2/SW2.jpg","","","38","SW","","","","","","","","","",""
"image-slider-response","69","212225","0.0-15.0-0.0-0.9","1768","pics2/SW6.jpg","","","29","SW","","","","","","","","","",""
"image-slider-response","70","214841","0.0-15.0-0.0-0.10","2411","pics2/VE2.jpg","","","37","VE","","","","","","","","","",""
"image-slider-response","71","216969","0.0-15.0-0.0-0.11","1917","pics2/FR2.jpg","","","66","FR","","","","","","","","","",""
"image-slider-response","72","219113","0.0-15.0-0.0-0.12","1930","pics2/VE1.jpg","","","82","VE","","","","","","","","","",""
"image-slider-response","73","221105","0.0-15.0-0.0-0.13","1781","pics2/SA4.jpg","","","58","SA","","","","","","","","","",""
"image-slider-response","74","223137","0.0-15.0-0.0-0.14","1827","pics2/VE5.jpg","","","85","VE","","","","","","","","","",""
"image-slider-response","75","225337","0.0-15.0-0.0-0.15","1993","pics2/SW5.jpg","","","14","SW","","","","","","","","","",""
"image-slider-response","76","227785","0.0-15.0-0.0-0.16","2234","pics2/SA1.jpg","","","23","SA","","","","","","","","","",""
"image-slider-response","77","230081","0.0-15.0-0.0-0.17","2083","pics2/SA5.jpg","","","3","SA","","","","","","","","","",""
"image-slider-response","78","232217","0.0-15.0-0.0-0.18","1924","pics2/SW1.jpg","","","71","SW","","","","","","","","","",""
"image-slider-response","79","234256","0.0-15.0-0.0-0.19","1826","pics2/FR4.jpg","","","75","FR","","","","","","","","","",""
"image-slider-response","80","236577","0.0-15.0-0.0-0.20","2112","pics2/SA6.jpg","","","65","SA","","","","","","","","","",""
"image-slider-response","81","239049","0.0-15.0-0.0-0.21","2268","pics2/VE4.jpg","","","93","VE","","","","","","","","","",""
"image-slider-response","82","241337","0.0-15.0-0.0-0.22","2082","pics2/FR5.jpg","","","30","FR","","","","","","","","","",""
"image-slider-response","83","243433","0.0-15.0-0.0-0.23","1891","pics2/SA2.jpg","","","81","SA","","","","","","","","","",""
"call-function","84","243651","0.0-16.0","","","","","","","","","","","","","","","",""
"call-function","85","243658","0.0-17.0","","","","","","","","","","","","","","","",""
"html-button-response","86","244826","0.0-18.0","1167","<div style='width: 900px;'> <font size = 6><b> End of the first rating</b><br><br>","0","","","","","","","","","","","","",""
"html-button-response","87","246874","0.0-19.0","2047","<div ><img src='sizeS.png'></img></div><br><div style='text-align: justify; width: 700px'> Using the mouse, rate the <b><i>size</b></i> of the food items <b><i> relative to the white background.</b></i> Right-end of the scale indicates a <i>very large item</i>, which covers a large portion of the white rectangle. Left-end indicates a <i>very tiny</i> item which covers a tiny portion of the white rectangle.<br><br><i><u>Remember</i></u>: everything that is not the white background also contributes to item size (e.g. packing, plates, ect.)<br><br> Please keep in mind that if the accuracy of ratings do not allign well with actual sizes, the experiment will end.  As a result it will be consider incomplete and therefore no payment would be made. Good luck!<br><br></div><br>","0","","","","","","","","","","","","",""
"image-slider-response","88","249018","0.0-20.0-0.0-0.0","2142","pics2/SA6.jpg","","","56","null","","","","","","","","","",""
"image-slider-response","89","250881","0.0-20.0-0.0-0.1","1659","pics2/SA2.jpg","","","58","null","","","","","","","","","",""
"image-slider-response","90","253114","0.0-20.0-0.0-0.2","2028","pics2/FR4.jpg","","","82","null","","","","","","","","","",""
"image-slider-response","91","255234","0.0-20.0-0.0-0.3","1914","pics2/SW2.jpg","","","89","null","","","","","","","","","",""
"image-slider-response","92","257297","0.0-20.0-0.0-0.4","1852","pics2/SA4.jpg","","","42","null","","","","","","","","","",""
"image-slider-response","93","259161","0.0-20.0-0.0-0.5","1631","pics2/FR5.jpg","","","63","null","","","","","","","","","",""
"image-slider-response","94","261273","0.0-20.0-0.0-0.6","1898","pics2/SA3.jpg","","","66","null","","","","","","","","","",""
"image-slider-response","95","263322","0.0-20.0-0.0-0.7","1835","pics2/SW5.jpg","","","59","null","","","","","","","","","",""
"image-slider-response","96","265473","0.0-20.0-0.0-0.8","1937","pics2/FR3.jpg","","","77","null","","","","","","","","","",""
"image-slider-response","97","267657","0.0-20.0-0.0-0.9","1967","pics2/VE3.jpg","","","80","null","","","","","","","","","",""
"image-slider-response","98","269537","0.0-20.0-0.0-0.10","1666","pics2/FR6.jpg","","","41","null","","","","","","","","","",""
"image-slider-response","99","271409","0.0-20.0-0.0-0.11","1664","pics2/VE2.jpg","","","67","null","","","","","","","","","",""
"image-slider-response","100","273601","0.0-20.0-0.0-0.12","1976","pics2/SW3.jpg","","","61","null","","","","","","","","","",""
"image-slider-response","101","275529","0.0-20.0-0.0-0.13","1724","pics2/SA5.jpg","","","37","null","","","","","","","","","",""
"image-slider-response","102","277433","0.0-20.0-0.0-0.14","1701","pics2/VE5.jpg","","","53","null","","","","","","","","","",""
"image-slider-response","103","279417","0.0-20.0-0.0-0.15","1767","pics2/SW6.jpg","","","42","null","","","","","","","","","",""
"image-slider-response","104","281553","0.0-20.0-0.0-0.16","1933","pics2/SW4.jpg","","","58","null","","","","","","","","","",""
"image-slider-response","105","283297","0.0-20.0-0.0-0.17","1541","pics2/FR1.jpg","","","75","null","","","","","","","","","",""
"image-slider-response","106","285625","0.0-20.0-0.0-0.18","2117","pics2/FR2.jpg","","","86","null","","","","","","","","","",""
"image-slider-response","107","287697","0.0-20.0-0.0-0.19","1868","pics2/SA1.jpg","","","89","null","","","","","","","","","",""
"image-slider-response","108","289569","0.0-20.0-0.0-0.20","1654","pics2/VE6.jpg","","","54","null","","","","","","","","","",""
"image-slider-response","109","291906","0.0-20.0-0.0-0.21","2124","pics2/VE4.jpg","","","83","null","","","","","","","","","",""
"image-slider-response","110","294353","0.0-20.0-0.0-0.22","2244","pics2/SW1.jpg","","","97","null","","","","","","","","","",""
"image-slider-response","111","296681","0.0-20.0-0.0-0.23","2126","pics2/VE1.jpg","","","91","null","","","","","","","","","",""
"call-function","112","296898","0.0-21.0","","","","","","","","","","","","","","","",""
"html-button-response","113","298129","0.0-22.0","1231","<div style='width: 900px;'> <font size = 6><b> End of the second rating</b><br><br>","0","","","","","","","","","","","","",""
"pavlovia","114","298137","0.0-23.0","","","","","","","","","","","","","","","",""
"html-keyboard-response","115","303150","0.0-24.0","null","<div style='width: 700px;'> <font size=6><b>SHORT BREAK</font></b><br><br><i> Please wait 5 seconds to continue</i></div> ","","","","","","null","","","","","","","",""
"pavlovia","116","303152","0.0-25.0","","","","","","","","","","","","","","","",""
"html-button-response","117","328203","0.0-26.0","25050","<div style='width: 700px;'>In the main part of the study, you will be choosing between 2 items. When it's time to choose,  this symbol will appear: <br><br><img src='chooseS.png'></img><br><br>Below, a cue will signify the type of choice: </div><br><div style='width: 700px;'><div style='float: left; width: 50%'><img src='heartS.png'></img><p class='small'>Heart cue means you should choose the item you <b><i>prefer</b></i> more.</p></div><div class='float: right; width:50%'><img src='sizeS.png'></img><p class='small'>Size cue means you should choose the <b><i>larger</b></i> item. </p></div></div><br><div style='width: 700px;'>When you click, a green square will appear around the item you chose.<br></div><div><br>","0","","","","","","","","","","","","",""
"image-selector-fb-tut","118","332094","0.0-27.0","2886","0232.jpg,0123.jpg","","","","","","","false","0","","","","","",""
"image-selector-fb-tut","119","335000","0.0-28.0","1890","0232.jpg,0123.jpg","","","","","","","false","0","","","","","",""
"html-button-response","120","336715","0.0-29.0","1714","<div style='width: 900px;'>Your choices should be both <b><i>fast and accurate</b></i>. <br><br>You will have <i>4 seconds</i> to make each choice, which should be enough consider the options and click on one of the items.<br><br>","0","","","","","","","","","","","","",""
"html-button-response","121","339147","0.0-30.0","2431","<div style='width: 900px;'>Additionally, on some choice trials you will see the <b><i>no-choice cue</b></i>: <br><br><img src='noS.png'></img> <br><br>This cue means you can't make any choice. You can examine the items, but  can't click on any of them. Just wait patiently for the cue to dissapear.<br><br>","0","","","","","","","","","","","","",""
"image-selector-fb-tut","122","341152","0.0-31.0","null","0232.jpg,0123.jpg","","","","","","","false","null","","","","","",""
"html-button-response","123","343268","0.0-32.0","2114","<div style='width: 900px;'>After each choice the items will remain on the screen and you will see this symbol: <br><br><img src='judgeS.png'></img> <br><br>This means you should rate<b> the magnitude of the difference</b> between the items using a scale: </div><br><div style='width: 900px; '><div style='float: left; width: 50%; margin-right: 2.5em; align-self:left'><img src='heartS.png'></img><p class='small' style = 'text-align: justify;'>Heart cue means you should rate <b>how much you prefer</b> one of the items over the other. Moving the scale indicator to the left means you prefer the left one; moving it to the right - right one. The more you prefer one of them, the more towards that side you should move the scale indicator. </p></div><div class='float: right; width: 50%; margin-left: 2.5em;'><img src='sizeS.png'></img><p class='small' style='text-align: justify'>Size cue means you should rate <b>how much larger</b> is one of the items over the other. Moving the scale indicator to the left means you think the left is larger; moving it to the right - right one. The greater the difference in size, the more towards that side you should move the scale indicator.</div><br>","0","","","","","","","","","","","","",""
"image-slider-2AFC-tut","124","349291","0.0-33.0","6022","","","","19","","","","","","5085","19","","","",""
"image-slider-2AFC-tut","125","353387","0.0-34.0","4094","","","","19","","","","","","3286","19","","","",""
"html-button-response","126","362275","0.0-35.0","8888","<br><br><font size = 36><b> Examples </b></font><br><br><i> 1) I would like to eat some croissants a <b>lot more</b> than doritos right now:</i><br><img src='ex1.PNG', width='62%'></img><br><br><br><i> 2) I would like to eat some doritos a <b>bit more</b> than croissants right now, but just slightly:</i><br><img src='ex2.PNG' width='62%'></img>","0","","","","","","","","","","","","",""
"html-button-response","127","364131","0.0-36.0","1855","<div style='width: 900px;'><i>Now you know everything you need to do the task!</i> <br><br>Let's start by doing a <b>short training</b>, so you'll get used to how it works. </div><br>","0","","","","","","","","","","","","",""
"image-selector-fb","128","368618","0.0-37.0-0.0","3980","pics2/VE6.jpg,pics2/SW4.jpg","","","","","","","true","1","","","sizeS.png","","",""
"image-slider-2AFC","129","373626","0.0-37.0-1.0","null","","","","null","","","","","","","","heartS.png","4719","59",""
"html-keyboard-response","130","374387","0.0-37.0-2.0","null","","","","","","","null","","","","","","","",""
"image-selector-fb","131","377404","0.0-37.1-0.1","null","pics2/SW2.jpg,pics2/FR5.jpg","","","","","","","false","null","","","noS.png","","",""
"image-slider-2AFC","132","380812","0.0-37.1-1.1","3406","","","","-48","","","","","","","","heartS.png","2414","-48",""
"html-keyboard-response","133","381544","0.0-37.1-2.1","null","","","","","","","null","","","","","","","",""
"image-selector-fb","134","384281","0.0-37.2-0.2","2232","pics2/FR1.jpg,pics2/VE3.jpg","","","","","","","false","0","","","heartS.png","","",""
"image-slider-2AFC","135","387643","0.0-37.2-1.2","3360","","","","-47","","","","","","","","heartS.png","2544","-47",""
"html-keyboard-response","136","388450","0.0-37.2-2.2","null","","","","","","","null","","","","","","","",""
"image-selector-fb","137","390447","0.0-37.3-0.3","1488","pics2/VE6.jpg,pics2/VE3.jpg","","","","","","","true","1","","","sizeS.png","","",""
"image-slider-2AFC","138","392947","0.0-37.3-1.3","2497","","","","42","","","","","","","","sizeS.png","1761","42",""
"html-keyboard-response","139","393725","0.0-37.3-2.3","null","","","","","","","null","","","","","","","",""
"image-selector-fb","140","396759","0.0-37.4-0.4","null","pics2/SW2.jpg,pics2/VE3.jpg","","","","","","","false","null","","","noS.png","","",""
"image-slider-2AFC","141","399739","0.0-37.4-1.4","2977","","","","-40","","","","","","","","heartS.png","2098","-40",""
"html-keyboard-response","142","400594","0.0-37.4-2.4","null","","","","","","","null","","","","","","","",""
"image-selector-fb","143","403611","0.0-37.5-0.5","null","pics2/FR5.jpg,pics2/SA1.jpg","","","","","","","false","null","","","noS.png","","",""
"image-slider-2AFC","144","407747","0.0-37.5-1.5","4134","","","","76","","","","","","","","sizeS.png","2295,3414","40,76",""
"html-keyboard-response","145","408616","0.0-37.5-2.5","null","","","","","","","null","","","","","","","",""
"image-selector-fb","146","411741","0.0-37.6-0.6","2616","pics2/VE6.jpg,pics2/SW6.jpg","","","","","","","false","0","","","sizeS.png","","",""
"image-slider-2AFC","147","414811","0.0-37.6-1.6","3068","","","","32","","","","","","","","sizeS.png","2197","32",""
"html-keyboard-response","148","415672","0.0-37.6-2.6","null","","","","","","","null","","","","","","","",""
"image-selector-fb","149","418691","0.0-37.7-0.7","null","pics2/SA1.jpg,pics2/SW6.jpg","","","","","","","false","null","","","noS.png","","",""
"image-slider-2AFC","150","422074","0.0-37.7-1.7","3382","","","","-73","","","","","","","","sizeS.png","2375","-73",""
"html-keyboard-response","151","422836","0.0-37.7-2.7","null","","","","","","","null","","","","","","","",""
"image-selector-fb","152","424893","0.0-37.8-0.8","1549","pics2/VE6.jpg,pics2/FR1.jpg","","","","","","","true","1","","","sizeS.png","","",""
"image-slider-2AFC","153","427610","0.0-37.8-1.8","2716","","","","74","","","","","","","","heartS.png","2037","74",""
"html-keyboard-response","154","428376","0.0-37.8-2.8","null","","","","","","","null","","","","","","","",""
"image-selector-fb","155","431868","0.0-37.9-0.9","2986","pics2/VE6.jpg,pics2/SW3.jpg","","","","","","","true","1","","","sizeS.png","","",""
"image-slider-2AFC","156","435003","0.0-37.9-1.9","3131","","","","-21","","","","","","","","sizeS.png","2507","-21",""
"html-keyboard-response","157","435899","0.0-37.9-2.9","null","","","","","","","null","","","","","","","",""
"image-selector-fb","158","438932","0.0-37.10-0.10","null","pics2/SA5.jpg,pics2/VE3.jpg","","","","","","","false","null","","","noS.png","","",""
"image-slider-2AFC","159","442122","0.0-37.10-1.10","3188","","","","58","","","","","","","","sizeS.png","2492","58",""
"html-keyboard-response","160","442994","0.0-37.10-2.10","null","","","","","","","null","","","","","","","",""
"image-selector-fb","161","445252","0.0-37.11-0.11","1751","pics2/VE2.jpg,pics2/SA5.jpg","","","","","","","false","0","","","heartS.png","","",""
"image-slider-2AFC","162","447995","0.0-37.11-1.11","2741","","","","-49","","","","","","","","heartS.png","2045","-49",""
"html-keyboard-response","163","448813","0.0-37.11-2.11","null","","","","","","","null","","","","","","","",""
"html-button-response","164","452051","0.0-38.0","3237","<i><font size=10>Good job!</font></i> <br><br>Before we begin, you have a chance to review the rules, in case something was not clear.<br><br>","0","","","","","","","","","","","","",""
"instructions","165","456299","0.0-39.0","4247","","","","","","","","","","","","","","","[{""page_index"":0,""viewing_time"":1999},{""page_index"":1,""viewing_time"":1167},{""page_index"":2,""viewing_time"":1080}]"
"html-button-response","166","460251","0.0-40.0","3950","<div style='width: 900px;'> <font size='40'>Great! Now you're ready to begin</font><br><br>The main part of the experiment will consist of <u>3 blocks</u>. Each block consists of 66 decisions and judgements. You will have time for a short break between blocks.<br><br><br><i><u>Do your best to respond within the time limit.</u></i><br><br><i> Press the button to start the experiment<br><br></i>","0","","","","","","","","","","","","",""
"image-selector-fb","167","462193","0.0-41.0-0.0","1421","pics2/SW1.jpg,pics2/FR2.jpg","","","","","","","false","0","","","heartS.png","","",""
"image-slider-2AFC","168","464755","0.0-41.0-1.0","2559","","","","-46","","","","","","","","heartS.png","1855","-46",""
"html-keyboard-response","169","465477","0.0-41.0-2.0","null","","","","","","","null","","","","","","","",""
"image-selector-fb","170","468495","0.0-41.1-0.1","null","pics2/FR3.jpg,pics2/SA2.jpg","","","","","","","false","null","","","noS.png","","",""
"image-slider-2AFC","171","472306","0.0-41.1-1.1","3810","","","","-42","","","","","","","","sizeS.png","3026","-42",""
"html-keyboard-response","172","473192","0.0-41.1-2.1","null","","","","","","","null","","","","","","","",""
"image-selector-fb","173","475152","0.0-41.2-0.2","1457","pics2/VE1.jpg,pics2/FR4.jpg","","","","","","","true","1","","","heartS.png","","",""
"image-slider-2AFC","174","477899","0.0-41.2-1.2","2744","","","","44","","","","","","","","sizeS.png","1928","44",""
"html-keyboard-response","175","478615","0.0-41.2-2.2","null","","","","","","","null","","","","","","","",""
"image-selector-fb","176","481274","0.0-41.3-0.3","2153","pics2/FR2.jpg,pics2/VE1.jpg","","","","","","","false","0","","","sizeS.png","","",""
"image-slider-2AFC","177","484075","0.0-41.3-1.3","2798","","","","-22","","","","","","","","sizeS.png","2206","-22",""
"html-keyboard-response","178","484844","0.0-41.3-2.3","null","","","","","","","null","","","","","","","",""
"image-selector-fb","179","487868","0.0-41.4-0.4","null","pics2/SA3.jpg,pics2/SA2.jpg","","","","","","","false","null","","","noS.png","","",""
"image-slider-2AFC","180","490978","0.0-41.4-1.4","3108","","","","-38","","","","","","","","sizeS.png","2484","-38",""
"html-keyboard-response","181","491782","0.0-41.4-2.4","null","","","","","","","null","","","","","","","",""
"image-selector-fb","182","494079","0.0-41.5-0.5","1786","pics2/VE5.jpg,pics2/VE1.jpg","","","","","","","true","1","","","sizeS.png","","",""
"image-slider-2AFC","183","497178","0.0-41.5-1.5","3097","","","","18","","","","","","","","sizeS.png","2537","18",""
"html-keyboard-response","184","497895","0.0-41.5-2.5","null","","","","","","","null","","","","","","","",""
"image-selector-fb","185","500916","0.0-41.6-0.6","null","pics2/SA3.jpg,pics2/FR2.jpg","","","","","","","false","null","","","noS.png","","",""
"image-slider-2AFC","186","505922","0.0-41.6-1.6","null","","","","null","","","","","","","","heartS.png","4725","-41",""
"html-keyboard-response","187","506798","0.0-41.6-2.6","null","","","","","","","null","","","","","","","",""
"image-selector-fb","188","509581","0.0-41.7-0.7","2258","pics2/VE4.jpg,pics2/VE5.jpg","","","","","","","true","1","","","sizeS.png","","",""
"image-slider-2AFC","189","511586","0.0-41.7-1.7","2004","","","","16","","","","","","","","sizeS.png","1412","16",""
"html-keyboard-response","190","512359","0.0-41.7-2.7","null","","","","","","","null","","","","","","","",""
"image-selector-fb","191","514356","0.0-41.8-0.8","1489","pics2/SA2.jpg,pics2/VE1.jpg","","","","","","","true","1","","","sizeS.png","","",""
"image-slider-2AFC","192","516250","0.0-41.8-1.8","1892","","","","13","","","","","","","","sizeS.png","1404","13",""
"html-keyboard-response","193","517073","0.0-41.8-2.8","null","","","","","","","null","","","","","","","",""
"image-selector-fb","194","520097","0.0-41.9-0.9","null","pics2/VE4.jpg,pics2/VE5.jpg","","","","","","","false","null","","","noS.png","","",""
"image-slider-2AFC","195","524003","0.0-41.9-1.9","3904","","","","-47","","","","","","","","heartS.png","3161","-47",""
"html-keyboard-response","196","524831","0.0-41.9-2.9","null","","","","","","","null","","","","","","","",""
"image-selector-fb","197","527842","0.0-41.10-0.10","null","pics2/FR4.jpg,pics2/SW1.jpg","","","","","","","false","null","","","noS.png","","",""
"image-slider-2AFC","198","530379","0.0-41.10-1.10","2535","","","","25","","","","","","","","heartS.png","2048","25",""
"html-keyboard-response","199","531206","0.0-41.10-2.10","null","","","","","","","null","","","","","","","",""
"image-selector-fb","200","534241","0.0-41.11-0.11","null","pics2/VE5.jpg,pics2/SA2.jpg","","","","","","","false","null","","","noS.png","","",""
"image-slider-2AFC","201","537906","0.0-41.11-1.11","3664","","","","38","","","","","","","","heartS.png","2952","38",""
"html-keyboard-response","202","538720","0.0-41.11-2.11","null","","","","","","","null","","","","","","","",""
"image-selector-fb","203","541753","0.0-41.12-0.12","null","pics2/VE1.jpg,pics2/SA2.jpg","","","","","","","false","null","","","noS.png","","",""
"image-slider-2AFC","204","543770","0.0-41.12-1.12","2015","","","","55","","","","","","","","heartS.png","1318","55",""
"html-keyboard-response","205","544480","0.0-41.12-2.12","null","","","","","","","null","","","","","","","",""
"image-selector-fb","206","549003","0.0-41.13-0.13","null","pics2/SA2.jpg,pics2/SW1.jpg","","","","","","","false","null","","","sizeS.png","","",""
"image-slider-2AFC","207","549004","0.0-41.13-1.13","null","","","","null","","","","","","","","sizeS.png","","",""
"html-keyboard-response","208","549767","0.0-41.13-2.13","null","","","","","","","null","","","","","","","",""
"image-selector-fb","209","552780","0.0-41.14-0.14","null","pics2/SA3.jpg,pics2/FR3.jpg","","","","","","","false","null","","","noS.png","","",""
"image-slider-2AFC","210","557786","0.0-41.14-1.14","null","","","","null","","","","","","","","sizeS.png","3868","9",""
"html-keyboard-response","211","558493","0.0-41.14-2.14","null","","","","","","","null","","","","","","","",""
"image-selector-fb","212","560228","0.0-41.15-0.15","1227","pics2/SA3.jpg,pics2/SA2.jpg","","","","","","","false","0","","","heartS.png","","",""
"image-slider-2AFC","213","562803","0.0-41.15-1.15","2574","","","","-26","","","","","","","","heartS.png","1861","-26",""
"html-keyboard-response","214","563673","0.0-41.15-2.15","null","","","","","","","null","","","","","","","",""
"image-selector-fb","215","565300","0.0-41.16-0.16","1118","pics2/FR2.jpg,pics2/FR6.jpg","","","","","","","false","0","","","sizeS.png","","",""
"image-slider-2AFC","216","567858","0.0-41.16-1.16","2555","","","","-27","","","","","","","","heartS.png","1876","-27",""
"html-keyboard-response","217","568673","0.0-41.16-2.16","null","","","","","","","null","","","","","","","",""
"image-selector-fb","218","570930","0.0-41.17-0.17","1751","pics2/VE1.jpg,pics2/SA4.jpg","","","","","","","true","1","","","heartS.png","","",""
"image-slider-2AFC","219","572969","0.0-41.17-1.17","2037","","","","22","","","","","","","","sizeS.png","1437","22",""
"html-keyboard-response","220","573735","0.0-41.17-2.17","null","","","","","","","null","","","","","","","",""
"image-selector-fb","221","575878","0.0-41.18-0.18","1632","pics2/VE5.jpg,pics2/VE4.jpg","","","","","","","true","1","","","heartS.png","","",""
"image-slider-2AFC","222","578850","0.0-41.18-1.18","2971","","","","-3","","","","","","","","sizeS.png","2579","-3",""
"html-keyboard-response","223","579710","0.0-41.18-2.18","null","","","","","","","null","","","","","","","",""
"image-selector-fb","224","582748","0.0-41.19-0.19","null","pics2/SA6.jpg,pics2/SW1.jpg","","","","","","","false","null","","","noS.png","","",""
"image-slider-2AFC","225","586082","0.0-41.19-1.19","3333","","","","25","","","","","","","","sizeS.png","2716","25",""
"html-keyboard-response","226","586793","0.0-41.19-2.19","null","","","","","","","null","","","","","","","",""
"image-selector-fb","227","588954","0.0-41.20-0.20","1654","pics2/SA4.jpg,pics2/FR2.jpg","","","","","","","true","1","","","heartS.png","","",""
"image-slider-2AFC","228","591338","0.0-41.20-1.20","2382","","","","11","","","","","","","","sizeS.png","1862","11",""
"html-keyboard-response","229","592050","0.0-41.20-2.20","null","","","","","","","null","","","","","","","",""
"image-selector-fb","230","594696","0.0-41.21-0.21","2134","pics2/SA4.jpg,pics2/FR3.jpg","","","","","","","false","0","","","heartS.png","","",""
"image-slider-2AFC","231","598018","0.0-41.21-1.21","3319","","","","21","","","","","","","","sizeS.png","1400,2288","-15,21",""
"html-keyboard-response","232","598775","0.0-41.21-2.21","null","","","","","","","null","","","","","","","",""
"image-selector-fb","233","601809","0.0-41.22-0.22","null","pics2/FR3.jpg,pics2/FR2.jpg","","","","","","","false","null","","","noS.png","","",""
"image-slider-2AFC","234","605842","0.0-41.22-1.22","4031","","","","25","","","","","","","","heartS.png","3295","25",""
"html-keyboard-response","235","606596","0.0-41.22-2.22","null","","","","","","","null","","","","","","","",""
"image-selector-fb","236","608735","0.0-41.23-0.23","1611","pics2/FR4.jpg,pics2/SA4.jpg","","","","","","","false","0","","","heartS.png","","",""
"image-slider-2AFC","237","612106","0.0-41.23-1.23","3369","","","","-10","","","","","","","","sizeS.png","2944","-10",""
"html-keyboard-response","238","612984","0.0-41.23-2.23","null","","","","","","","null","","","","","","","",""
"image-selector-fb","239","615192","0.0-41.24-0.24","1703","pics2/SA4.jpg,pics2/FR4.jpg","","","","","","","true","1","","","sizeS.png","","",""
"image-slider-2AFC","240","617234","0.0-41.24-1.24","2039","","","","-11","","","","","","","","heartS.png","1600","-11",""
"html-keyboard-response","241","617954","0.0-41.24-2.24","null","","","","","","","null","","","","","","","",""
"image-selector-fb","242","619553","0.0-41.25-0.25","1086","pics2/SA4.jpg,pics2/SW1.jpg","","","","","","","true","1","","","heartS.png","","",""
"image-slider-2AFC","243","620882","0.0-41.25-1.25","1327","","","","12","","","","","","","","sizeS.png","783","12",""
"html-keyboard-response","244","621738","0.0-41.25-2.25","null","","","","","","","null","","","","","","","",""
"image-selector-fb","245","623705","0.0-41.26-0.26","1453","pics2/FR4.jpg,pics2/SA3.jpg","","","","","","","true","1","","","heartS.png","","",""
"image-slider-2AFC","246","625658","0.0-41.26-1.26","1950","","","","35","","","","","","","","heartS.png","1310","35",""
"html-keyboard-response","247","626419","0.0-41.26-2.26","null","","","","","","","null","","","","","","","",""
"image-selector-fb","248","628466","0.0-41.27-0.27","1540","pics2/FR4.jpg,pics2/FR2.jpg","","","","","","","false","0","","","heartS.png","","",""
"image-slider-2AFC","249","631466","0.0-41.27-1.27","2998","","","","-4","","","","","","","","heartS.png","2494","-4",""
"html-keyboard-response","250","632235","0.0-41.27-2.27","null","","","","","","","null","","","","","","","",""
"image-selector-fb","251","634130","0.0-41.28-0.28","1388","pics2/SA2.jpg,pics2/FR2.jpg","","","","","","","true","1","","","sizeS.png","","",""
"image-slider-2AFC","252","635626","0.0-41.28-1.28","1494","","","","12","","","","","","","","sizeS.png","983","12",""
"html-keyboard-response","253","636508","0.0-41.28-2.28","null","","","","","","","null","","","","","","","",""
"image-selector-fb","254","638561","0.0-41.29-0.29","1549","pics2/SA2.jpg,pics2/FR4.jpg","","","","","","","true","1","","","sizeS.png","","",""
"image-slider-2AFC","255","640409","0.0-41.29-1.29","1846","","","","-14","","","","","","","","heartS.png","1374","-14",""
"html-keyboard-response","256","641115","0.0-41.29-2.29","null","","","","","","","null","","","","","","","",""
"image-selector-fb","257","643594","0.0-41.30-0.30","1973","pics2/VE4.jpg,pics2/FR4.jpg","","","","","","","true","1","","","sizeS.png","","",""
"image-slider-2AFC","258","645570","0.0-41.30-1.30","1973","","","","9","","","","","","","","sizeS.png","1454","9",""
"html-keyboard-response","259","646392","0.0-41.30-2.30","null","","","","","","","null","","","","","","","",""
"image-selector-fb","260","649424","0.0-41.31-0.31","null","pics2/FR4.jpg,pics2/VE1.jpg","","","","","","","false","null","","","noS.png","","",""
"image-slider-2AFC","261","651922","0.0-41.31-1.31","2496","","","","-18","","","","","","","","heartS.png","1815","-18",""
"html-keyboard-response","262","652797","0.0-41.31-2.31","null","","","","","","","null","","","","","","","",""
"image-selector-fb","263","655177","0.0-41.32-0.32","1874","pics2/SA6.jpg,pics2/SA4.jpg","","","","","","","false","0","","","sizeS.png","","",""
"image-slider-2AFC","264","656730","0.0-41.32-1.32","1552","","","","-13","","","","","","","","sizeS.png","999","-13",""
"html-keyboard-response","265","657465","0.0-41.32-2.32","null","","","","","","","null","","","","","","","",""
"image-selector-fb","266","660489","0.0-41.33-0.33","null","pics2/FR4.jpg,pics2/FR3.jpg","","","","","","","false","null","","","noS.png","","",""
"image-slider-2AFC","267","663042","0.0-41.33-1.33","2552","","","","-13","","","","","","","","sizeS.png","1960","-13",""
"html-keyboard-response","268","663814","0.0-41.33-2.33","null","","","","","","","null","","","","","","","",""
"image-selector-fb","269","666833","0.0-41.34-0.34","null","pics2/FR6.jpg,pics2/SW1.jpg","","","","","","","false","null","","","noS.png","","",""
"image-slider-2AFC","270","669362","0.0-41.34-1.34","2527","","","","36","","","","","","","","heartS.png","1631","36",""
"html-keyboard-response","271","670073","0.0-41.34-2.34","null","","","","","","","null","","","","","","","",""
"image-selector-fb","272","672689","0.0-41.35-0.35","2112","pics2/FR3.jpg,pics2/SW1.jpg","","","","","","","true","1","","","sizeS.png","","",""
"image-slider-2AFC","273","674226","0.0-41.35-1.35","1535","","","","14","","","","","","","","sizeS.png","1071","14",""
"html-keyboard-response","274","675105","0.0-41.35-2.35","null","","","","","","","null","","","","","","","",""
"image-selector-fb","275","678121","0.0-41.36-0.36","null","pics2/SA3.jpg,pics2/VE5.jpg","","","","","","","false","null","","","noS.png","","",""
"image-slider-2AFC","276","680378","0.0-41.36-1.36","2255","","","","36","","","","","","","","heartS.png","1448","36",""
"html-keyboard-response","277","681091","0.0-41.36-2.36","null","","","","","","","null","","","","","","","",""
"image-selector-fb","278","683168","0.0-41.37-0.37","1572","pics2/SW1.jpg,pics2/SA4.jpg","","","","","","","false","0","","","sizeS.png","","",""
"image-slider-2AFC","279","684626","0.0-41.37-1.37","1455","","","","-15","","","","","","","","sizeS.png","856","-15",""
"html-keyboard-response","280","685358","0.0-41.37-2.37","null","","","","","","","null","","","","","","","",""
"image-selector-fb","281","687116","0.0-41.38-0.38","1250","pics2/FR6.jpg,pics2/SA2.jpg","","","","","","","true","1","","","heartS.png","","",""
"image-slider-2AFC","282","688730","0.0-41.38-1.38","1612","","","","22","","","","","","","","sizeS.png","932","22",""
"html-keyboard-response","283","689499","0.0-41.38-2.38","null","","","","","","","null","","","","","","","",""
"image-selector-fb","284","692614","0.0-41.39-0.39","2604","pics2/VE1.jpg,pics2/SA3.jpg","","","","","","","true","1","","","heartS.png","","",""
"image-slider-2AFC","285","694282","0.0-41.39-1.39","1665","","","","16","","","","","","","","heartS.png","1090","16",""
"html-keyboard-response","286","695055","0.0-41.39-2.39","null","","","","","","","null","","","","","","","",""
"image-selector-fb","287","698083","0.0-41.40-0.40","null","pics2/SA6.jpg,pics2/SA2.jpg","","","","","","","false","null","","","noS.png","","",""
"image-slider-2AFC","288","700898","0.0-41.40-1.40","2813","","","","26","","","","","","","","heartS.png","1782","26",""
"html-keyboard-response","289","701615","0.0-41.40-2.40","null","","","","","","","null","","","","","","","",""
"image-selector-fb","290","703588","0.0-41.41-0.41","1456","pics2/VE4.jpg,pics2/FR2.jpg","","","","","","","false","0","","","heartS.png","","",""
"image-slider-2AFC","291","706346","0.0-41.41-1.41","2757","","","","-42","","","","","","","","heartS.png","2012","-42",""
"html-keyboard-response","292","707114","0.0-41.41-2.41","null","","","","","","","null","","","","","","","",""
"image-selector-fb","293","709463","0.0-41.42-0.42","1830","pics2/SA4.jpg,pics2/VE1.jpg","","","","","","","true","1","","","sizeS.png","","",""
"image-slider-2AFC","294","711074","0.0-41.42-1.42","1608","","","","26","","","","","","","","sizeS.png","1025","26",""
"html-keyboard-response","295","711943","0.0-41.42-2.42","null","","","","","","","null","","","","","","","",""
"image-selector-fb","296","713547","0.0-41.43-0.43","1095","pics2/SW1.jpg,pics2/FR4.jpg","","","","","","","false","0","","","sizeS.png","","",""
"image-slider-2AFC","297","715042","0.0-41.43-1.43","1494","","","","-13","","","","","","","","sizeS.png","933","-13",""
"html-keyboard-response","298","715820","0.0-41.43-2.43","null","","","","","","","null","","","","","","","",""
"image-selector-fb","299","717827","0.0-41.44-0.44","1493","pics2/FR2.jpg,pics2/SA4.jpg","","","","","","","false","0","","","sizeS.png","","",""
"image-slider-2AFC","300","720840","0.0-41.44-1.44","3010","","","","28","","","","","","","","heartS.png","702,2379","-30,28",""
"html-keyboard-response","301","721548","0.0-41.44-2.44","null","","","","","","","null","","","","","","","",""
"image-selector-fb","302","723625","0.0-41.45-0.45","1562","pics2/FR3.jpg,pics2/FR2.jpg","","","","","","","true","1","","","heartS.png","","",""
"image-slider-2AFC","303","727104","0.0-41.45-1.45","3475","","","","11","","","","","","","","sizeS.png","2916","11",""
"html-keyboard-response","304","727925","0.0-41.45-2.45","null","","","","","","","null","","","","","","","",""
"image-selector-fb","305","730944","0.0-41.46-0.46","null","pics2/SA4.jpg,pics2/SW1.jpg","","","","","","","false","null","","","noS.png","","",""
"image-slider-2AFC","306","733120","0.0-41.46-1.46","2174","","","","25","","","","","","","","sizeS.png","1525","25",""
"html-keyboard-response","307","733826","0.0-41.46-2.46","null","","","","","","","null","","","","","","","",""
"image-selector-fb","308","735571","0.0-41.47-0.47","1235","pics2/SW1.jpg,pics2/SA3.jpg","","","","","","","false","0","","","sizeS.png","","",""
"image-slider-2AFC","309","738256","0.0-41.47-1.47","2682","","","","10","","","","","","","","heartS.png","1266,2147","-16,10",""
"html-keyboard-response","310","739066","0.0-41.47-2.47","null","","","","","","","null","","","","","","","",""
"image-selector-fb","311","740887","0.0-41.48-0.48","1315","pics2/SA2.jpg,pics2/SA4.jpg","","","","","","","false","0","","","sizeS.png","","",""
"image-slider-2AFC","312","743680","0.0-41.48-1.48","2790","","","","-22","","","","","","","","heartS.png","1519,2182","14,-22",""
"html-keyboard-response","313","744498","0.0-41.48-2.48","null","","","","","","","null","","","","","","","",""
"image-selector-fb","314","746191","0.0-41.49-0.49","1188","pics2/SA3.jpg,pics2/SA6.jpg","","","","","","","false","0","","","heartS.png","","",""
"image-slider-2AFC","315","747679","0.0-41.49-1.49","1487","","","","-16","","","","","","","","heartS.png","887","-16",""
"html-keyboard-response","316","748540","0.0-41.49-2.49","null","","","","","","","null","","","","","","","",""
"image-selector-fb","317","751573","0.0-41.50-0.50","null","pics2/SA3.jpg,pics2/VE4.jpg","","","","","","","false","null","","","noS.png","","",""
"image-slider-2AFC","318","755040","0.0-41.50-1.50","3466","","","","-42","","","","","","","","sizeS.png","1330,2626","29,-42",""
"html-keyboard-response","319","755861","0.0-41.50-2.50","null","","","","","","","null","","","","","","","",""
"image-selector-fb","320","757928","0.0-41.51-0.51","1560","pics2/VE4.jpg,pics2/FR3.jpg","","","","","","","true","1","","","sizeS.png","","",""
"image-slider-2AFC","321","760511","0.0-41.51-1.51","2580","","","","-18","","","","","","","","heartS.png","2036","-18",""
"html-keyboard-response","322","761221","0.0-41.51-2.51","null","","","","","","","null","","","","","","","",""
"image-selector-fb","323","763183","0.0-41.52-0.52","1456","pics2/SW1.jpg,pics2/FR6.jpg","","","","","","","false","0","","","heartS.png","","",""
"image-slider-2AFC","324","765376","0.0-41.52-1.52","2191","","","","-21","","","","","","","","sizeS.png","1680","-21",""
"html-keyboard-response","325","766135","0.0-41.52-2.52","null","","","","","","","null","","","","","","","",""
"image-selector-fb","326","767903","0.0-41.53-0.53","1253","pics2/VE5.jpg,pics2/SW1.jpg","","","","","","","true","1","","","sizeS.png","","",""
"image-slider-2AFC","327","769671","0.0-41.53-1.53","1766","","","","25","","","","","","","","sizeS.png","1191","25",""
"html-keyboard-response","328","770496","0.0-41.53-2.53","null","","","","","","","null","","","","","","","",""
"image-selector-fb","329","772158","0.0-41.54-0.54","1158","pics2/FR3.jpg,pics2/FR6.jpg","","","","","","","false","0","","","heartS.png","","",""
"image-slider-2AFC","330","774704","0.0-41.54-1.54","2544","","","","-22","","","","","","","","heartS.png","1992","-22",""
"html-keyboard-response","331","775415","0.0-41.54-2.54","null","","","","","","","null","","","","","","","",""
"image-selector-fb","332","777626","0.0-41.55-0.55","1695","pics2/FR3.jpg,pics2/FR4.jpg","","","","","","","true","1","","","sizeS.png","","",""
"image-slider-2AFC","333","779576","0.0-41.55-1.55","1948","","","","-14","","","","","","","","heartS.png","1395","-14",""
"html-keyboard-response","334","780355","0.0-41.55-2.55","null","","","","","","","null","","","","","","","",""
"image-selector-fb","335","783389","0.0-41.56-0.56","null","pics2/SA6.jpg,pics2/FR3.jpg","","","","","","","false","null","","","noS.png","","",""
"image-slider-2AFC","336","785843","0.0-41.56-1.56","2452","","","","-15","","","","","","","","heartS.png","1973","-15",""
"html-keyboard-response","337","786563","0.0-41.56-2.56","null","","","","","","","null","","","","","","","",""
"image-selector-fb","338","788216","0.0-41.57-0.57","1133","pics2/SW1.jpg,pics2/VE5.jpg","","","","","","","false","0","","","heartS.png","","",""
"image-slider-2AFC","339","790603","0.0-41.57-1.57","2385","","","","-9","","","","","","","","sizeS.png","1929","-9",""
"html-keyboard-response","340","791423","0.0-41.57-2.57","null","","","","","","","null","","","","","","","",""
"image-selector-fb","341","794450","0.0-41.58-0.58","null","pics2/SW1.jpg,pics2/SA2.jpg","","","","","","","false","null","","","noS.png","","",""
"image-slider-2AFC","342","796187","0.0-41.58-1.58","1734","","","","-22","","","","","","","","sizeS.png","1214","-22",""
"html-keyboard-response","343","797043","0.0-41.58-2.58","null","","","","","","","null","","","","","","","",""
"image-selector-fb","344","800063","0.0-41.59-0.59","null","pics2/VE1.jpg,pics2/SA4.jpg","","","","","","","false","null","","","noS.png","","",""
"image-slider-2AFC","345","802386","0.0-41.59-1.59","2322","","","","15","","","","","","","","heartS.png","1842","15",""
"html-keyboard-response","346","803208","0.0-41.59-2.59","null","","","","","","","null","","","","","","","",""
"image-selector-fb","347","805604","0.0-41.60-0.60","1873","pics2/FR4.jpg,pics2/VE4.jpg","","","","","","","true","1","","","heartS.png","","",""
"image-slider-2AFC","348","807435","0.0-41.60-1.60","1829","","","","11","","","","","","","","heartS.png","1316","11",""
"html-keyboard-response","349","808204","0.0-41.60-2.60","null","","","","","","","null","","","","","","","",""
"image-selector-fb","350","810851","0.0-41.61-0.61","2140","pics2/VE4.jpg,pics2/SW1.jpg","","","","","","","true","1","","","sizeS.png","","",""
"image-slider-2AFC","351","812994","0.0-41.61-1.61","2142","","","","-17","","","","","","","","heartS.png","1646","-17",""
"html-keyboard-response","352","813805","0.0-41.61-2.61","null","","","","","","","null","","","","","","","",""
"image-selector-fb","353","816071","0.0-41.62-0.62","1749","pics2/VE5.jpg,pics2/FR3.jpg","","","","","","","true","1","","","sizeS.png","","",""
"image-slider-2AFC","354","818378","0.0-41.62-1.62","2305","","","","15","","","","","","","","sizeS.png","1769","15",""
"html-keyboard-response","355","819196","0.0-41.62-2.62","null","","","","","","","null","","","","","","","",""
"image-selector-fb","356","821298","0.0-41.63-0.63","1588","pics2/SA6.jpg,pics2/VE4.jpg","","","","","","","true","1","","","heartS.png","","",""
"image-slider-2AFC","357","823475","0.0-41.63-1.63","2173","","","","54","","","","","","","","heartS.png","1333","54",""
"html-keyboard-response","358","824297","0.0-41.63-2.63","null","","","","","","","null","","","","","","","",""
"image-selector-fb","359","825906","0.0-41.64-0.64","1102","pics2/FR6.jpg,pics2/VE1.jpg","","","","","","","true","1","","","sizeS.png","","",""
"image-slider-2AFC","360","827539","0.0-41.64-1.64","1630","","","","22","","","","","","","","heartS.png","1062","22",""
"html-keyboard-response","361","828354","0.0-41.64-2.64","null","","","","","","","null","","","","","","","",""
"image-selector-fb","362","830068","0.0-41.65-0.65","1206","pics2/FR2.jpg,pics2/FR4.jpg","","","","","","","false","0","","","sizeS.png","","",""
"image-slider-2AFC","363","832187","0.0-41.65-1.65","2117","","","","-22","","","","","","","","heartS.png","1589","-22",""
"html-keyboard-response","364","832903","0.0-41.65-2.65","null","","","","","","","null","","","","","","","",""
"pavlovia","365","832924","0.0-42.0","","","","","","","","","","","","","","","",""
"html-keyboard-response","366","837931","0.0-43.0","null","<div style='width: 700px;'> <font size=6><b>SHORT BREAK</font></b><br><br><i> Please wait 5 seconds to continue</i></div> ","","","","","","null","","","","","","","",""
"pavlovia","367","837933","0.0-44.0","","","","","","","","","","","","","","","",""
"html-button-response","368","895016","0.0-45.0","57081","<div style='width: 700px;'> <font size=6><b>BLOCK 2</font></b><br><br>Press the button whenever you feel ready to start the second block (there are 3 in total)</div>","0","","","","","","","","","","","","",""
"image-selector-fb","369","897296","0.0-46.0-0.0","1774","pics2/SA6.jpg,pics2/SA2.jpg","","","","","","","true","1","","","heartS.png","","",""
"image-slider-2AFC","370","899769","0.0-46.0-1.0","2471","","","","-15","","","","","","","","sizeS.png","1927","-15",""
"html-keyboard-response","371","900540","0.0-46.0-2.0","null","","","","","","","null","","","","","","","",""
"image-selector-fb","372","903572","0.0-46.1-0.1","null","pics2/VE5.jpg,pics2/SA4.jpg","","","","","","","false","null","","","noS.png","","",""
"image-slider-2AFC","373","905843","0.0-46.1-1.1","2268","","","","28","","","","","","","","heartS.png","1612","28",""
"html-keyboard-response","374","906565","0.0-46.1-2.1","null","","","","","","","null","","","","","","","",""
"image-selector-fb","375","909592","0.0-46.2-0.2","null","pics2/SA6.jpg,pics2/VE5.jpg","","","","","","","false","null","","","noS.png","","",""
"image-slider-2AFC","376","912354","0.0-46.2-1.2","2761","","","","25","","","","","","","","sizeS.png","2202","25",""
"html-keyboard-response","377","913112","0.0-46.2-2.2","null","","","","","","","null","","","","","","","",""
"image-selector-fb","378","915180","0.0-46.3-0.3","1560","pics2/FR6.jpg,pics2/FR4.jpg","","","","","","","true","1","","","sizeS.png","","",""
"image-slider-2AFC","379","916803","0.0-46.3-1.3","1621","","","","23","","","","","","","","sizeS.png","1077","23",""
"html-keyboard-response","380","917563","0.0-46.3-2.3","null","","","","","","","null","","","","","","","",""
"image-selector-fb","381","919327","0.0-46.4-0.4","1245","pics2/SA2.jpg,pics2/VE5.jpg","","","","","","","true","1","","","sizeS.png","","",""
"image-slider-2AFC","382","922275","0.0-46.4-1.4","2945","","","","-20","","","","","","","","heartS.png","2337","-20",""
"html-keyboard-response","383","923078","0.0-46.4-2.4","null","","","","","","","null","","","","","","","",""
"image-selector-fb","384","926107","0.0-46.5-0.5","2523","pics2/SA6.jpg,pics2/VE1.jpg","","","","","","","true","1","","","sizeS.png","","",""
"image-slider-2AFC","385","928539","0.0-46.5-1.5","2430","","","","-9","","","","","","","","heartS.png","1783","-9",""
"html-keyboard-response","386","929416","0.0-46.5-2.5","null","","","","","","","null","","","","","","","",""
"image-selector-fb","387","931117","0.0-46.6-0.6","1192","pics2/SA3.jpg,pics2/VE4.jpg","","","","","","","true","1","","","heartS.png","","",""
"image-slider-2AFC","388","933875","0.0-46.6-1.6","2755","","","","-17","","","","","","","","sizeS.png","2107","-17",""
"html-keyboard-response","389","934595","0.0-46.6-2.6","null","","","","","","","null","","","","","","","",""
"image-selector-fb","390","936134","0.0-46.7-0.7","1029","pics2/SA6.jpg,pics2/SW1.jpg","","","","","","","true","1","","","sizeS.png","","",""
"image-slider-2AFC","391","938386","0.0-46.7-1.7","2251","","","","5","","","","","","","","heartS.png","1804","5",""
"html-keyboard-response","392","939148","0.0-46.7-2.7","null","","","","","","","null","","","","","","","",""
"image-selector-fb","393","942177","0.0-46.8-0.8","null","pics2/VE4.jpg,pics2/SA2.jpg","","","","","","","false","null","","","noS.png","","",""
"image-slider-2AFC","394","945042","0.0-46.8-1.8","2863","","","","2","","","","","","","","sizeS.png","2464","2",""
"html-keyboard-response","395","945756","0.0-46.8-2.8","null","","","","","","","null","","","","","","","",""
"image-selector-fb","396","948788","0.0-46.9-0.9","null","pics2/FR4.jpg,pics2/VE4.jpg","","","","","","","false","null","","","noS.png","","",""
"image-slider-2AFC","397","951122","0.0-46.9-1.9","2333","","","","-20","","","","","","","","sizeS.png","1750","-20",""
"html-keyboard-response","398","951945","0.0-46.9-2.9","null","","","","","","","null","","","","","","","",""
"image-selector-fb","399","953716","0.0-46.10-0.10","1263","pics2/FR6.jpg,pics2/SA3.jpg","","","","","","","true","1","","","sizeS.png","","",""
"image-slider-2AFC","400","955931","0.0-46.10-1.10","2214","","","","32","","","","","","","","heartS.png","1517","32",""
"html-keyboard-response","401","956707","0.0-46.10-2.10","null","","","","","","","null","","","","","","","",""
"image-selector-fb","402","958955","0.0-46.11-0.11","1733","pics2/FR2.jpg,pics2/VE4.jpg","","","","","","","false","0","","","sizeS.png","","",""
"image-slider-2AFC","403","961362","0.0-46.11-1.11","2404","","","","-17","","","","","","","","sizeS.png","1718","-17",""
"html-keyboard-response","404","962092","0.0-46.11-2.11","null","","","","","","","null","","","","","","","",""
"image-selector-fb","405","964812","0.0-46.12-0.12","2211","pics2/FR2.jpg,pics2/FR3.jpg","","","","","","","true","1","","","sizeS.png","","",""
"image-slider-2AFC","406","966394","0.0-46.12-1.12","1579","","","","9","","","","","","","","sizeS.png","1123","9",""
"html-keyboard-response","407","967234","0.0-46.12-2.12","null","","","","","","","null","","","","","","","",""
"image-selector-fb","408","970257","0.0-46.13-0.13","null","pics2/SA3.jpg,pics2/SW1.jpg","","","","","","","false","null","","","noS.png","","",""
"image-slider-2AFC","409","972402","0.0-46.13-1.13","2142","","","","-35","","","","","","","","heartS.png","1503","-35",""
"html-keyboard-response","410","973134","0.0-46.13-2.13","null","","","","","","","null","","","","","","","",""
"image-selector-fb","411","974907","0.0-46.14-0.14","1266","pics2/FR2.jpg,pics2/SW1.jpg","","","","","","","true","1","","","sizeS.png","","",""
"image-slider-2AFC","412","976721","0.0-46.14-1.14","1813","","","","12","","","","","","","","sizeS.png","1277","12",""
"html-keyboard-response","413","977491","0.0-46.14-2.14","null","","","","","","","null","","","","","","","",""
"image-selector-fb","414","979693","0.0-46.15-0.15","1691","pics2/SA3.jpg,pics2/SA4.jpg","","","","","","","false","0","","","heartS.png","","",""
"image-slider-2AFC","415","981522","0.0-46.15-1.15","1826","","","","-18","","","","","","","","heartS.png","1202","-18",""
"html-keyboard-response","416","982338","0.0-46.15-2.15","null","","","","","","","null","","","","","","","",""
"image-selector-fb","417","984183","0.0-46.16-0.16","1341","pics2/VE5.jpg,pics2/SA3.jpg","","","","","","","true","1","","","sizeS.png","","",""
"image-slider-2AFC","418","985729","0.0-46.16-1.16","1544","","","","12","","","","","","","","sizeS.png","1008","12",""
"html-keyboard-response","419","986483","0.0-46.16-2.16","null","","","","","","","null","","","","","","","",""
"image-selector-fb","420","989509","0.0-46.17-0.17","null","pics2/SA6.jpg,pics2/FR6.jpg","","","","","","","false","null","","","noS.png","","",""
"image-slider-2AFC","421","993506","0.0-46.17-1.17","3995","","","","-39","","","","","","","","sizeS.png","2995","-39",""
"html-keyboard-response","422","994230","0.0-46.17-2.17","null","","","","","","","null","","","","","","","",""
"image-selector-fb","423","996507","0.0-46.18-0.18","1769","pics2/SA3.jpg,pics2/SW1.jpg","","","","","","","false","0","","","heartS.png","","",""
"image-slider-2AFC","424","998530","0.0-46.18-1.18","2021","","","","22","","","","","","","","sizeS.png","1382","22",""
"html-keyboard-response","425","999298","0.0-46.18-2.18","null","","","","","","","null","","","","","","","",""
"image-selector-fb","426","1002314","0.0-46.19-0.19","null","pics2/FR6.jpg,pics2/SA4.jpg","","","","","","","false","null","","","noS.png","","",""
"image-slider-2AFC","427","1004562","0.0-46.19-1.19","2246","","","","19","","","","","","","","sizeS.png","1559","19",""
"html-keyboard-response","428","1005337","0.0-46.19-2.19","null","","","","","","","null","","","","","","","",""
"image-selector-fb","429","1007880","0.0-46.20-0.20","2037","pics2/SA3.jpg,pics2/FR3.jpg","","","","","","","false","0","","","heartS.png","","",""
"image-slider-2AFC","430","1009985","0.0-46.20-1.20","2103","","","","-14","","","","","","","","sizeS.png","1471","-14",""
"html-keyboard-response","431","1010720","0.0-46.20-2.20","null","","","","","","","null","","","","","","","",""
"image-selector-fb","432","1013734","0.0-46.21-0.21","null","pics2/SA4.jpg,pics2/FR2.jpg","","","","","","","false","null","","","noS.png","","",""
"image-slider-2AFC","433","1015906","0.0-46.21-1.21","2169","","","","38","","","","","","","","sizeS.png","1121","38",""
"html-keyboard-response","434","1016635","0.0-46.21-2.21","null","","","","","","","null","","","","","","","",""
"image-selector-fb","435","1020020","0.0-46.22-0.22","2876","pics2/FR6.jpg,pics2/SA4.jpg","","","","","","","false","0","","","sizeS.png","","",""
"image-slider-2AFC","436","1022114","0.0-46.22-1.22","2092","","","","-16","","","","","","","","sizeS.png","1692","-16",""
"html-keyboard-response","437","1022830","0.0-46.22-2.22","null","","","","","","","null","","","","","","","",""
"image-selector-fb","438","1026576","0.0-46.23-0.23","3235","pics2/VE1.jpg,pics2/SA6.jpg","","","","","","","true","1","","","heartS.png","","",""
"image-slider-2AFC","439","1028658","0.0-46.23-1.23","2079","","","","23","","","","","","","","sizeS.png","1040","23",""
"html-keyboard-response","440","1029420","0.0-46.23-2.23","null","","","","","","","null","","","","","","","",""
"image-selector-fb","441","1031409","0.0-46.24-0.24","1468","pics2/FR4.jpg,pics2/FR6.jpg","","","","","","","false","0","","","heartS.png","","",""
"image-slider-2AFC","442","1033202","0.0-46.24-1.24","1791","","","","-17","","","","","","","","sizeS.png","1288","-17",""
"html-keyboard-response","443","1034078","0.0-46.24-2.24","null","","","","","","","null","","","","","","","",""
"image-selector-fb","444","1037622","0.0-46.25-0.25","3042","pics2/VE4.jpg,pics2/SA6.jpg","","","","","","","false","0","","","sizeS.png","","",""
"image-slider-2AFC","445","1039435","0.0-46.25-1.25","1810","","","","-6","","","","","","","","sizeS.png","1178","-6",""
"html-keyboard-response","446","1040169","0.0-46.25-2.25","null","","","","","","","null","","","","","","","",""
"image-selector-fb","447","1041951","0.0-46.26-0.26","1279","pics2/FR6.jpg,pics2/SA6.jpg","","","","","","","true","1","","","sizeS.png","","",""
"image-slider-2AFC","448","1043514","0.0-46.26-1.26","1561","","","","18","","","","","","","","sizeS.png","977","18",""
"html-keyboard-response","449","1044292","0.0-46.26-2.26","null","","","","","","","null","","","","","","","",""
"image-selector-fb","450","1047305","0.0-46.27-0.27","null","pics2/FR6.jpg,pics2/VE5.jpg","","","","","","","false","null","","","noS.png","","",""
"image-slider-2AFC","451","1050010","0.0-46.27-1.27","2703","","","","47","","","","","","","","heartS.png","1911","47",""
"html-keyboard-response","452","1050885","0.0-46.27-2.27","null","","","","","","","null","","","","","","","",""
"image-selector-fb","453","1053909","0.0-46.28-0.28","null","pics2/SA6.jpg,pics2/VE4.jpg","","","","","","","false","null","","","noS.png","","",""
"image-slider-2AFC","454","1057322","0.0-46.28-1.28","3412","","","","57","","","","","","","","heartS.png","2396","57",""
"html-keyboard-response","455","1058082","0.0-46.28-2.28","null","","","","","","","null","","","","","","","",""
"image-selector-fb","456","1060196","0.0-46.29-0.29","1606","pics2/SA6.jpg,pics2/VE5.jpg","","","","","","","false","0","","","heartS.png","","",""
"image-slider-2AFC","457","1063810","0.0-46.29-1.29","3613","","","","26","","","","","","","","sizeS.png","1373,3004","-17,26",""
"html-keyboard-response","458","1064697","0.0-46.29-2.29","null","","","","","","","null","","","","","","","",""
"image-selector-fb","459","1066348","0.0-46.30-0.30","1142","pics2/FR4.jpg,pics2/SA6.jpg","","","","","","","false","0","","","heartS.png","","",""
"image-slider-2AFC","460","1068250","0.0-46.30-1.30","1900","","","","-11","","","","","","","","sizeS.png","1220","-11",""
"html-keyboard-response","461","1069079","0.0-46.30-2.30","null","","","","","","","null","","","","","","","",""
"image-selector-fb","462","1072104","0.0-46.31-0.31","null","pics2/VE5.jpg,pics2/FR2.jpg","","","","","","","false","null","","","noS.png","","",""
"image-slider-2AFC","463","1075306","0.0-46.31-1.31","3200","","","","36","","","","","","","","sizeS.png","2360","36",""
"html-keyboard-response","464","1076170","0.0-46.31-2.31","null","","","","","","","null","","","","","","","",""
"image-selector-fb","465","1079207","0.0-46.32-0.32","null","pics2/VE1.jpg,pics2/FR2.jpg","","","","","","","false","null","","","noS.png","","",""
"image-slider-2AFC","466","1081186","0.0-46.32-1.32","1977","","","","38","","","","","","","","sizeS.png","1338","38",""
"html-keyboard-response","467","1082054","0.0-46.32-2.32","null","","","","","","","null","","","","","","","",""
"image-selector-fb","468","1084082","0.0-46.33-0.33","1522","pics2/VE4.jpg,pics2/SA4.jpg","","","","","","","false","0","","","sizeS.png","","",""
"image-slider-2AFC","469","1085514","0.0-46.33-1.33","1430","","","","-4","","","","","","","","sizeS.png","982","-4",""
"html-keyboard-response","470","1086242","0.0-46.33-2.33","null","","","","","","","null","","","","","","","",""
"image-selector-fb","471","1089257","0.0-46.34-0.34","null","pics2/VE1.jpg,pics2/VE4.jpg","","","","","","","false","null","","","noS.png","","",""
"image-slider-2AFC","472","1092675","0.0-46.34-1.34","3416","","","","60","","","","","","","","heartS.png","2689","60",""
"html-keyboard-response","473","1093391","0.0-46.34-2.34","null","","","","","","","null","","","","","","","",""
"image-selector-fb","474","1095400","0.0-46.35-0.35","1505","pics2/FR6.jpg,pics2/VE5.jpg","","","","","","","true","1","","","sizeS.png","","",""
"image-slider-2AFC","475","1097323","0.0-46.35-1.35","1921","","","","16","","","","","","","","sizeS.png","1354","16",""
"html-keyboard-response","476","1098036","0.0-46.35-2.35","null","","","","","","","null","","","","","","","",""
"image-selector-fb","477","1100248","0.0-46.36-0.36","1709","pics2/VE5.jpg,pics2/SA4.jpg","","","","","","","false","0","","","sizeS.png","","",""
"image-slider-2AFC","478","1101955","0.0-46.36-1.36","1706","","","","25","","","","","","","","heartS.png","1073","25",""
"html-keyboard-response","479","1102766","0.0-46.36-2.36","null","","","","","","","null","","","","","","","",""
"image-selector-fb","480","1105773","0.0-46.37-0.37","null","pics2/FR6.jpg,pics2/VE4.jpg","","","","","","","false","null","","","noS.png","","",""
"image-slider-2AFC","481","1107883","0.0-46.37-1.37","2107","","","","16","","","","","","","","sizeS.png","1612","16",""
"html-keyboard-response","482","1108764","0.0-46.37-2.37","null","","","","","","","null","","","","","","","",""
"image-selector-fb","483","1110690","0.0-46.38-0.38","1420","pics2/FR4.jpg,pics2/VE1.jpg","","","","","","","false","0","","","sizeS.png","","",""
"image-slider-2AFC","484","1113082","0.0-46.38-1.38","2390","","","","10","","","","","","","","heartS.png","1870","10",""
"html-keyboard-response","485","1113856","0.0-46.38-2.38","null","","","","","","","null","","","","","","","",""
"image-selector-fb","486","1116865","0.0-46.39-0.39","null","pics2/VE5.jpg,pics2/SW1.jpg","","","","","","","false","null","","","noS.png","","",""
"image-slider-2AFC","487","1118562","0.0-46.39-1.39","1696","","","","22","","","","","","","","sizeS.png","1096","22",""
"html-keyboard-response","488","1119394","0.0-46.39-2.39","null","","","","","","","null","","","","","","","",""
"image-selector-fb","489","1121668","0.0-46.40-0.40","1767","pics2/SA2.jpg,pics2/SA6.jpg","","","","","","","false","0","","","sizeS.png","","",""
"image-slider-2AFC","490","1123971","0.0-46.40-1.40","2301","","","","-53","","","","","","","","heartS.png","1622","-53",""
"html-keyboard-response","491","1124708","0.0-46.40-2.40","null","","","","","","","null","","","","","","","",""
"image-selector-fb","492","1126449","0.0-46.41-0.41","1236","pics2/FR6.jpg,pics2/VE4.jpg","","","","","","","true","1","","","sizeS.png","","",""
"image-slider-2AFC","493","1128355","0.0-46.41-1.41","1903","","","","54","","","","","","","","heartS.png","1119","54",""
"html-keyboard-response","494","1129224","0.0-46.41-2.41","null","","","","","","","null","","","","","","","",""
"image-selector-fb","495","1132262","0.0-46.42-0.42","null","pics2/VE1.jpg,pics2/FR6.jpg","","","","","","","false","null","","","noS.png","","",""
"image-slider-2AFC","496","1134635","0.0-46.42-1.42","2370","","","","-20","","","","","","","","sizeS.png","1826","-20",""
"html-keyboard-response","497","1135341","0.0-46.42-2.42","null","","","","","","","null","","","","","","","",""
"image-selector-fb","498","1137204","0.0-46.43-0.43","1356","pics2/FR2.jpg,pics2/SA2.jpg","","","","","","","true","1","","","heartS.png","","",""
"image-slider-2AFC","499","1138811","0.0-46.43-1.43","1605","","","","41","","","","","","","","heartS.png","878","41",""
"html-keyboard-response","500","1139579","0.0-46.43-2.43","null","","","","","","","null","","","","","","","",""
"image-selector-fb","501","1141753","0.0-46.44-0.44","1667","pics2/FR3.jpg,pics2/SA6.jpg","","","","","","","false","0","","","sizeS.png","","",""
"image-slider-2AFC","502","1143760","0.0-46.44-1.44","2006","","","","31","","","","","","","","heartS.png","1367","31",""
"html-keyboard-response","503","1144636","0.0-46.44-2.44","null","","","","","","","null","","","","","","","",""
"image-selector-fb","504","1147650","0.0-46.45-0.45","null","pics2/SA6.jpg,pics2/SA4.jpg","","","","","","","false","null","","","noS.png","","",""
"image-slider-2AFC","505","1149816","0.0-46.45-1.45","2162","","","","41","","","","","","","","heartS.png","1635","41",""
"html-keyboard-response","506","1150623","0.0-46.45-2.45","null","","","","","","","null","","","","","","","",""
"image-selector-fb","507","1153652","0.0-46.46-0.46","null","pics2/SA4.jpg,pics2/FR3.jpg","","","","","","","false","null","","","noS.png","","",""
"image-slider-2AFC","508","1155888","0.0-46.46-1.46","2233","","","","-30","","","","","","","","heartS.png","1658","-30",""
"html-keyboard-response","509","1156665","0.0-46.46-2.46","null","","","","","","","null","","","","","","","",""
"image-selector-fb","510","1159700","0.0-46.47-0.47","null","pics2/VE4.jpg,pics2/SA4.jpg","","","","","","","false","null","","","noS.png","","",""
"image-slider-2AFC","511","1161817","0.0-46.47-1.47","2114","","","","-19","","","","","","","","sizeS.png","1514","-19",""
"html-keyboard-response","512","1162641","0.0-46.47-2.47","null","","","","","","","null","","","","","","","",""
"image-selector-fb","513","1165768","0.0-46.48-0.48","2622","pics2/VE1.jpg,pics2/SA2.jpg","","","","","","","true","1","","","heartS.png","","",""
"image-slider-2AFC","514","1167664","0.0-46.48-1.48","1893","","","","34","","","","","","","","sizeS.png","1070","34",""
"html-keyboard-response","515","1168439","0.0-46.48-2.48","null","","","","","","","null","","","","","","","",""
"image-selector-fb","516","1170273","0.0-46.49-0.49","1319","pics2/FR2.jpg,pics2/VE5.jpg","","","","","","","false","0","","","sizeS.png","","",""
"image-slider-2AFC","517","1173072","0.0-46.49-1.49","2797","","","","-17","","","","","","","","heartS.png","1485","-17",""
"html-keyboard-response","518","1173941","0.0-46.49-2.49","null","","","","","","","null","","","","","","","",""
"image-selector-fb","519","1175814","0.0-46.50-0.50","1354","pics2/SA3.jpg,pics2/FR2.jpg","","","","","","","false","0","","","heartS.png","","",""
"image-slider-2AFC","520","1177432","0.0-46.50-1.50","1616","","","","24","","","","","","","","sizeS.png","1001","24",""
"html-keyboard-response","521","1178193","0.0-46.50-2.50","null","","","","","","","null","","","","","","","",""
"image-selector-fb","522","1180688","0.0-46.51-0.51","1989","pics2/SA4.jpg,pics2/SA2.jpg","","","","","","","true","1","","","heartS.png","","",""
"image-slider-2AFC","523","1183288","0.0-46.51-1.51","2599","","","","29","","","","","","","","heartS.png","1927","29",""
"html-keyboard-response","524","1184155","0.0-46.51-2.51","null","","","","","","","null","","","","","","","",""
"image-selector-fb","525","1187180","0.0-46.52-0.52","null","pics2/FR4.jpg,pics2/FR6.jpg","","","","","","","false","null","","","noS.png","","",""
"image-slider-2AFC","526","1189776","0.0-46.52-1.52","2594","","","","9","","","","","","","","heartS.png","2082","9",""
"html-keyboard-response","527","1190546","0.0-46.52-2.52","null","","","","","","","null","","","","","","","",""
"image-selector-fb","528","1192491","0.0-46.53-0.53","1436","pics2/FR6.jpg,pics2/SW1.jpg","","","","","","","true","1","","","sizeS.png","","",""
"image-slider-2AFC","529","1194088","0.0-46.53-1.53","1596","","","","-13","","","","","","","","heartS.png","1036","-13",""
"html-keyboard-response","530","1194964","0.0-46.53-2.53","null","","","","","","","null","","","","","","","",""
"image-selector-fb","531","1196678","0.0-46.54-0.54","1211","pics2/VE5.jpg,pics2/FR4.jpg","","","","","","","true","1","","","sizeS.png","","",""
"image-slider-2AFC","532","1198225","0.0-46.54-1.54","1544","","","","13","","","","","","","","heartS.png","968","13",""
"html-keyboard-response","533","1198941","0.0-46.54-2.54","null","","","","","","","null","","","","","","","",""
"image-selector-fb","534","1201966","0.0-46.55-0.55","null","pics2/SA3.jpg,pics2/VE1.jpg","","","","","","","false","null","","","noS.png","","",""
"image-slider-2AFC","535","1206530","0.0-46.55-1.55","4562","","","","-30","","","","","","","","heartS.png","3946","-30",""
"html-keyboard-response","536","1207346","0.0-46.55-2.55","null","","","","","","","null","","","","","","","",""
"image-selector-fb","537","1210367","0.0-46.56-0.56","null","pics2/VE1.jpg,pics2/SW1.jpg","","","","","","","false","null","","","noS.png","","",""
"image-slider-2AFC","538","1212891","0.0-46.56-1.56","2522","","","","15","","","","","","","","sizeS.png","1994","15",""
"html-keyboard-response","539","1213765","0.0-46.56-2.56","null","","","","","","","null","","","","","","","",""
"image-selector-fb","540","1216797","0.0-46.57-0.57","null","pics2/VE4.jpg,pics2/FR3.jpg","","","","","","","false","null","","","noS.png","","",""
"image-slider-2AFC","541","1218546","0.0-46.57-1.57","1747","","","","22","","","","","","","","sizeS.png","1212","22",""
"html-keyboard-response","542","1219423","0.0-46.57-2.57","null","","","","","","","null","","","","","","","",""
"image-selector-fb","543","1221138","0.0-46.58-0.58","1209","pics2/SA2.jpg,pics2/FR3.jpg","","","","","","","false","0","","","sizeS.png","","",""
"image-slider-2AFC","544","1223027","0.0-46.58-1.58","1887","","","","-8","","","","","","","","sizeS.png","1431","-8",""
"html-keyboard-response","545","1223795","0.0-46.58-2.58","null","","","","","","","null","","","","","","","",""
"image-selector-fb","546","1226814","0.0-46.59-0.59","null","pics2/SA3.jpg,pics2/SA6.jpg","","","","","","","false","null","","","noS.png","","",""
"image-slider-2AFC","547","1228594","0.0-46.59-1.59","1778","","","","-5","","","","","","","","sizeS.png","1234","-5",""
"html-keyboard-response","548","1229424","0.0-46.59-2.59","null","","","","","","","null","","","","","","","",""
"image-selector-fb","549","1231411","0.0-46.60-0.60","1479","pics2/SW1.jpg,pics2/SA6.jpg","","","","","","","false","0","","","heartS.png","","",""
"image-slider-2AFC","550","1234306","0.0-46.60-1.60","2894","","","","-20","","","","","","","","sizeS.png","1574,2326","-4,-20",""
"html-keyboard-response","551","1235071","0.0-46.60-2.60","null","","","","","","","null","","","","","","","",""
"image-selector-fb","552","1238094","0.0-46.61-0.61","null","pics2/SA4.jpg,pics2/SA2.jpg","","","","","","","false","null","","","noS.png","","",""
"image-slider-2AFC","553","1240818","0.0-46.61-1.61","2722","","","","38","","","","","","","","heartS.png","1882","38",""
"html-keyboard-response","554","1241546","0.0-46.61-2.61","null","","","","","","","null","","","","","","","",""
"image-selector-fb","555","1243747","0.0-46.62-0.62","1687","pics2/VE1.jpg,pics2/FR6.jpg","","","","","","","false","0","","","heartS.png","","",""
"image-slider-2AFC","556","1246603","0.0-46.62-1.62","2853","","","","-21","","","","","","","","sizeS.png","1797","-21",""
"html-keyboard-response","557","1247366","0.0-46.62-2.62","null","","","","","","","null","","","","","","","",""
"image-selector-fb","558","1249097","0.0-46.63-0.63","1227","pics2/FR4.jpg,pics2/VE5.jpg","","","","","","","false","0","","","heartS.png","","",""
"image-slider-2AFC","559","1251210","0.0-46.63-1.63","2112","","","","-3","","","","","","","","sizeS.png","1521","-3",""
"html-keyboard-response","560","1251993","0.0-46.63-2.63","null","","","","","","","null","","","","","","","",""
"image-selector-fb","561","1253763","0.0-46.64-0.64","1264","pics2/SA6.jpg,pics2/SA3.jpg","","","","","","","true","1","","","sizeS.png","","",""
"image-slider-2AFC","562","1255739","0.0-46.64-1.64","1973","","","","23","","","","","","","","heartS.png","1309","23",""
"html-keyboard-response","563","1256611","0.0-46.64-2.64","null","","","","","","","null","","","","","","","",""
"image-selector-fb","564","1258739","0.0-46.65-0.65","1621","pics2/SA6.jpg,pics2/FR6.jpg","","","","","","","false","0","","","heartS.png","","",""
"image-slider-2AFC","565","1261019","0.0-46.65-1.65","2277","","","","-23","","","","","","","","sizeS.png","1509","-23",""
"html-keyboard-response","566","1261724","0.0-46.65-2.65","null","","","","","","","null","","","","","","","",""
"pavlovia","567","1261759","0.0-47.0","","","","","","","","","","","","","","","",""
"html-keyboard-response","568","1266765","0.0-48.0","null","<div style='width: 700px;'> <font size=6><b>SHORT BREAK</font></b><br><br><i> Please wait 5 seconds to continue</i></div> ","","","","","","null","","","","","","","",""
"pavlovia","569","1266767","0.0-49.0","","","","","","","","","","","","","","","",""
"html-button-response","570","1389841","0.0-50.0","123073","<div style='width: 700px;'> <font size=6><b>BLOCK 3</font></b><br><br>Press the button whenever you feel ready to start the third and final block</div>","0","","","","","","","","","","","","",""
"image-selector-fb","571","1391886","0.0-51.0-0.0","1534","pics2/SA4.jpg,pics2/SA6.jpg","","","","","","","false","0","","","heartS.png","","",""
"image-slider-2AFC","572","1393762","0.0-51.0-1.0","1872","","","","-27","","","","","","","","heartS.png","1104","-27",""
"html-keyboard-response","573","1394621","0.0-51.0-2.0","null","","","","","","","null","","","","","","","",""
"image-selector-fb","574","1396819","0.0-51.1-0.1","1690","pics2/SA4.jpg,pics2/SA3.jpg","","","","","","","true","1","","","sizeS.png","","",""
"image-slider-2AFC","575","1398225","0.0-51.1-1.1","1405","","","","32","","","","","","","","sizeS.png","813","32",""
"html-keyboard-response","576","1398989","0.0-51.1-2.1","null","","","","","","","null","","","","","","","",""
"image-selector-fb","577","1401032","0.0-51.2-0.2","1538","pics2/VE4.jpg,pics2/SA3.jpg","","","","","","","true","1","","","sizeS.png","","",""
"image-slider-2AFC","578","1402610","0.0-51.2-1.2","1575","","","","-17","","","","","","","","heartS.png","943","-17",""
"html-keyboard-response","579","1403392","0.0-51.2-2.2","null","","","","","","","null","","","","","","","",""
"image-selector-fb","580","1405143","0.0-51.3-0.3","1238","pics2/VE1.jpg,pics2/VE5.jpg","","","","","","","false","0","","","heartS.png","","",""
"image-slider-2AFC","581","1407018","0.0-51.3-1.3","1873","","","","-11","","","","","","","","sizeS.png","1298","-11",""
"html-keyboard-response","582","1407734","0.0-51.3-2.3","null","","","","","","","null","","","","","","","",""
"image-selector-fb","583","1409505","0.0-51.4-0.4","1265","pics2/SW1.jpg,pics2/SA2.jpg","","","","","","","false","0","","","heartS.png","","",""
"image-slider-2AFC","584","1411634","0.0-51.4-1.4","2128","","","","-10","","","","","","","","sizeS.png","1631","-10",""
"html-keyboard-response","585","1412501","0.0-51.4-2.4","null","","","","","","","null","","","","","","","",""
"image-selector-fb","586","1415505","0.0-51.5-0.5","null","pics2/SA6.jpg,pics2/FR2.jpg","","","","","","","false","null","","","noS.png","","",""
"image-slider-2AFC","587","1418690","0.0-51.5-1.5","3182","","","","39","","","","","","","","sizeS.png","2343","39",""
"html-keyboard-response","588","1419446","0.0-51.5-2.5","null","","","","","","","null","","","","","","","",""
"image-selector-fb","589","1421702","0.0-51.6-0.6","1753","pics2/VE1.jpg,pics2/FR3.jpg","","","","","","","false","0","","","heartS.png","","",""
"image-slider-2AFC","590","1423138","0.0-51.6-1.6","1433","","","","-13","","","","","","","","heartS.png","898","-13",""
"html-keyboard-response","591","1423998","0.0-51.6-2.6","null","","","","","","","null","","","","","","","",""
"image-selector-fb","592","1427011","0.0-51.7-0.7","null","pics2/VE5.jpg,pics2/FR3.jpg","","","","","","","false","null","","","noS.png","","",""
"image-slider-2AFC","593","1431649","0.0-51.7-1.7","4637","","","","-16","","","","","","","","heartS.png","4062","-16",""
"html-keyboard-response","594","1432364","0.0-51.7-2.7","null","","","","","","","null","","","","","","","",""
"image-selector-fb","595","1434001","0.0-51.8-0.8","1123","pics2/SW1.jpg,pics2/FR3.jpg","","","","","","","false","0","","","heartS.png","","",""
"image-slider-2AFC","596","1435497","0.0-51.8-1.8","1494","","","","-15","","","","","","","","heartS.png","758","-15",""
"html-keyboard-response","597","1436370","0.0-51.8-2.8","null","","","","","","","null","","","","","","","",""
"image-selector-fb","598","1439394","0.0-51.9-0.9","null","pics2/FR4.jpg,pics2/FR2.jpg","","","","","","","false","null","","","noS.png","","",""
"image-slider-2AFC","599","1441202","0.0-51.9-1.9","1804","","","","21","","","","","","","","heartS.png","1196","21",""
"html-keyboard-response","600","1442086","0.0-51.9-2.9","null","","","","","","","null","","","","","","","",""
"image-selector-fb","601","1444037","0.0-51.10-0.10","1441","pics2/VE5.jpg,pics2/SA2.jpg","","","","","","","true","1","","","heartS.png","","",""
"image-slider-2AFC","602","1445913","0.0-51.10-1.10","1875","","","","34","","","","","","","","heartS.png","1027","34",""
"html-keyboard-response","603","1446678","0.0-51.10-2.10","null","","","","","","","null","","","","","","","",""
"image-selector-fb","604","1449712","0.0-51.11-0.11","null","pics2/SA3.jpg,pics2/SA4.jpg","","","","","","","false","null","","","noS.png","","",""
"image-slider-2AFC","605","1451434","0.0-51.11-1.11","1720","","","","-24","","","","","","","","sizeS.png","1249","-24",""
"html-keyboard-response","606","1452161","0.0-51.11-2.11","null","","","","","","","null","","","","","","","",""
"image-selector-fb","607","1454507","0.0-51.12-0.12","1839","pics2/SA6.jpg,pics2/FR4.jpg","","","","","","","true","1","","","sizeS.png","","",""
"image-slider-2AFC","608","1455994","0.0-51.12-1.12","1485","","","","35","","","","","","","","sizeS.png","773","35",""
"html-keyboard-response","609","1456759","0.0-51.12-2.12","null","","","","","","","null","","","","","","","",""
"image-selector-fb","610","1459111","0.0-51.13-0.13","1840","pics2/SA3.jpg,pics2/FR4.jpg","","","","","","","true","1","","","sizeS.png","","",""
"image-slider-2AFC","611","1460570","0.0-51.13-1.13","1457","","","","-15","","","","","","","","heartS.png","945","-15",""
"html-keyboard-response","612","1461303","0.0-51.13-2.13","null","","","","","","","null","","","","","","","",""
"image-selector-fb","613","1463622","0.0-51.14-0.14","1810","pics2/FR3.jpg,pics2/SA2.jpg","","","","","","","true","1","","","heartS.png","","",""
"image-slider-2AFC","614","1465475","0.0-51.14-1.14","1851","","","","31","","","","","","","","heartS.png","1131","31",""
"html-keyboard-response","615","1466260","0.0-51.14-2.14","null","","","","","","","null","","","","","","","",""
"image-selector-fb","616","1468358","0.0-51.15-0.15","1588","pics2/SA4.jpg,pics2/FR6.jpg","","","","","","","false","0","","","heartS.png","","",""
"image-slider-2AFC","617","1469859","0.0-51.15-1.15","1498","","","","-20","","","","","","","","heartS.png","906","-20",""
"html-keyboard-response","618","1470584","0.0-51.15-2.15","null","","","","","","","null","","","","","","","",""
"image-selector-fb","619","1472154","0.0-51.16-0.16","1062","pics2/VE1.jpg,pics2/VE4.jpg","","","","","","","true","1","","","heartS.png","","",""
"image-slider-2AFC","620","1473738","0.0-51.16-1.16","1582","","","","55","","","","","","","","heartS.png","742","55",""
"html-keyboard-response","621","1474493","0.0-51.16-2.16","null","","","","","","","null","","","","","","","",""
"image-selector-fb","622","1477512","0.0-51.17-0.17","null","pics2/FR6.jpg,pics2/FR3.jpg","","","","","","","false","null","","","noS.png","","",""
"image-slider-2AFC","623","1479890","0.0-51.17-1.17","2376","","","","49","","","","","","","","sizeS.png","1601","49",""
"html-keyboard-response","624","1480605","0.0-51.17-2.17","null","","","","","","","null","","","","","","","",""
"image-selector-fb","625","1482307","0.0-51.18-0.18","1194","pics2/VE4.jpg,pics2/SA2.jpg","","","","","","","false","0","","","heartS.png","","",""
"image-slider-2AFC","626","1484402","0.0-51.18-1.18","2093","","","","-9","","","","","","","","sizeS.png","1589","-9",""
"html-keyboard-response","627","1485129","0.0-51.18-2.18","null","","","","","","","null","","","","","","","",""
"image-selector-fb","628","1486839","0.0-51.19-0.19","1199","pics2/SA3.jpg,pics2/FR6.jpg","","","","","","","false","0","","","heartS.png","","",""
"image-slider-2AFC","629","1489267","0.0-51.19-1.19","2425","","","","-42","","","","","","","","heartS.png","1745","-42",""
"html-keyboard-response","630","1490077","0.0-51.19-2.19","null","","","","","","","null","","","","","","","",""
"image-selector-fb","631","1493090","0.0-51.20-0.20","null","pics2/SA3.jpg,pics2/FR4.jpg","","","","","","","false","null","","","noS.png","","",""
"image-slider-2AFC","632","1495026","0.0-51.20-1.20","1934","","","","40","","","","","","","","sizeS.png","1263","40",""
"html-keyboard-response","633","1495808","0.0-51.20-2.20","null","","","","","","","null","","","","","","","",""
"image-selector-fb","634","1497955","0.0-51.21-0.21","1640","pics2/SA3.jpg,pics2/VE1.jpg","","","","","","","false","0","","","sizeS.png","","",""
"image-slider-2AFC","635","1499611","0.0-51.21-1.21","1654","","","","-10","","","","","","","","sizeS.png","1062","-10",""
"html-keyboard-response","636","1500383","0.0-51.21-2.21","null","","","","","","","null","","","","","","","",""
"image-selector-fb","637","1502236","0.0-51.22-0.22","1345","pics2/SA6.jpg,pics2/FR3.jpg","","","","","","","false","0","","","heartS.png","","",""
"image-slider-2AFC","638","1503747","0.0-51.22-1.22","1508","","","","-12","","","","","","","","heartS.png","956","-12",""
"html-keyboard-response","639","1504565","0.0-51.22-2.22","null","","","","","","","null","","","","","","","",""
"image-selector-fb","640","1507590","0.0-51.23-0.23","null","pics2/FR6.jpg,pics2/FR2.jpg","","","","","","","false","null","","","noS.png","","",""
"image-slider-2AFC","641","1509387","0.0-51.23-1.23","1794","","","","36","","","","","","","","heartS.png","1202","36",""
"html-keyboard-response","642","1510100","0.0-51.23-2.23","null","","","","","","","null","","","","","","","",""
"image-selector-fb","643","1513121","0.0-51.24-0.24","null","pics2/FR4.jpg,pics2/SA4.jpg","","","","","","","false","null","","","noS.png","","",""
"image-slider-2AFC","644","1514915","0.0-51.24-1.24","1791","","","","-27","","","","","","","","sizeS.png","1256","-27",""
"html-keyboard-response","645","1515771","0.0-51.24-2.24","null","","","","","","","null","","","","","","","",""
"image-selector-fb","646","1517587","0.0-51.25-0.25","1309","pics2/FR3.jpg,pics2/SA3.jpg","","","","","","","true","1","","","sizeS.png","","",""
"image-slider-2AFC","647","1519563","0.0-51.25-1.25","1974","","","","11","","","","","","","","sizeS.png","1287","11",""
"html-keyboard-response","648","1520280","0.0-51.25-2.25","null","","","","","","","null","","","","","","","",""
"image-selector-fb","649","1522376","0.0-51.26-0.26","1584","pics2/FR3.jpg,pics2/VE5.jpg","","","","","","","false","0","","","heartS.png","","",""
"image-slider-2AFC","650","1524522","0.0-51.26-1.26","2144","","","","-7","","","","","","","","heartS.png","1297","-7",""
"html-keyboard-response","651","1525398","0.0-51.26-2.26","null","","","","","","","null","","","","","","","",""
"image-selector-fb","652","1527181","0.0-51.27-0.27","1266","pics2/FR6.jpg,pics2/FR2.jpg","","","","","","","true","1","","","heartS.png","","",""
"image-slider-2AFC","653","1528979","0.0-51.27-1.27","1796","","","","57","","","","","","","","heartS.png","941","57",""
"html-keyboard-response","654","1529792","0.0-51.27-2.27","null","","","","","","","null","","","","","","","",""
"image-selector-fb","655","1531894","0.0-51.28-0.28","1584","pics2/FR2.jpg,pics2/SA3.jpg","","","","","","","false","0","","","sizeS.png","","",""
"image-slider-2AFC","656","1534851","0.0-51.28-1.28","2956","","","","-5","","","","","","","","sizeS.png","2004","-5",""
"html-keyboard-response","657","1535719","0.0-51.28-2.28","null","","","","","","","null","","","","","","","",""
"image-selector-fb","658","1538739","0.0-51.29-0.29","null","pics2/SA3.jpg,pics2/FR6.jpg","","","","","","","false","null","","","noS.png","","",""
"image-slider-2AFC","659","1540539","0.0-51.29-1.29","1797","","","","-39","","","","","","","","heartS.png","965","-39",""
"html-keyboard-response","660","1541256","0.0-51.29-2.29","null","","","","","","","null","","","","","","","",""
"image-selector-fb","661","1543165","0.0-51.30-0.30","1400","pics2/FR6.jpg,pics2/FR3.jpg","","","","","","","true","1","","","sizeS.png","","",""
"image-slider-2AFC","662","1545602","0.0-51.30-1.30","2435","","","","19","","","","","","","","heartS.png","1435","19",""
"html-keyboard-response","663","1546315","0.0-51.30-2.30","null","","","","","","","null","","","","","","","",""
"image-selector-fb","664","1548307","0.0-51.31-0.31","1485","pics2/VE5.jpg,pics2/FR6.jpg","","","","","","","false","0","","","heartS.png","","",""
"image-slider-2AFC","665","1549515","0.0-51.31-1.31","1207","","","","-17","","","","","","","","heartS.png","631","-17",""
"html-keyboard-response","666","1550284","0.0-51.31-2.31","null","","","","","","","null","","","","","","","",""
"image-selector-fb","667","1553302","0.0-51.32-0.32","null","pics2/FR2.jpg,pics2/SA2.jpg","","","","","","","false","null","","","noS.png","","",""
"image-slider-2AFC","668","1555386","0.0-51.32-1.32","2082","","","","27","","","","","","","","heartS.png","1218","27",""
"html-keyboard-response","669","1556194","0.0-51.32-2.32","null","","","","","","","null","","","","","","","",""
"image-selector-fb","670","1558585","0.0-51.33-0.33","1886","pics2/FR4.jpg,pics2/SA2.jpg","","","","","","","true","1","","","heartS.png","","",""
"image-slider-2AFC","671","1560378","0.0-51.33-1.33","1790","","","","-14","","","","","","","","sizeS.png","1119","-14",""
"html-keyboard-response","672","1561160","0.0-51.33-2.33","null","","","","","","","null","","","","","","","",""
"image-selector-fb","673","1563626","0.0-51.34-0.34","1952","pics2/SA6.jpg,pics2/FR2.jpg","","","","","","","false","0","","","heartS.png","","",""
"image-slider-2AFC","674","1565698","0.0-51.34-1.34","2070","","","","-18","","","","","","","","heartS.png","1342","-18",""
"html-keyboard-response","675","1566420","0.0-51.34-2.34","null","","","","","","","null","","","","","","","",""
"image-selector-fb","676","1569437","0.0-51.35-0.35","null","pics2/VE4.jpg,pics2/SW1.jpg","","","","","","","false","null","","","noS.png","","",""
"image-slider-2AFC","677","1571210","0.0-51.35-1.35","1772","","","","-45","","","","","","","","heartS.png","1173","-45",""
"html-keyboard-response","678","1571976","0.0-51.35-2.35","null","","","","","","","null","","","","","","","",""
"image-selector-fb","679","1574998","0.0-51.36-0.36","null","pics2/VE1.jpg,pics2/FR3.jpg","","","","","","","false","null","","","noS.png","","",""
"image-slider-2AFC","680","1576906","0.0-51.36-1.36","1906","","","","-15","","","","","","","","heartS.png","1386","-15",""
"html-keyboard-response","681","1577726","0.0-51.36-2.36","null","","","","","","","null","","","","","","","",""
"image-selector-fb","682","1579524","0.0-51.37-0.37","1274","pics2/SA3.jpg,pics2/VE5.jpg","","","","","","","false","0","","","heartS.png","","",""
"image-slider-2AFC","683","1581203","0.0-51.37-1.37","1676","","","","-20","","","","","","","","heartS.png","1092","-20",""
"html-keyboard-response","684","1581979","0.0-51.37-2.37","null","","","","","","","null","","","","","","","",""
"image-selector-fb","685","1585008","0.0-51.38-0.38","null","pics2/FR4.jpg,pics2/SA2.jpg","","","","","","","false","null","","","noS.png","","",""
"image-slider-2AFC","686","1586755","0.0-51.38-1.38","1743","","","","-27","","","","","","","","sizeS.png","1232","-27",""
"html-keyboard-response","687","1587585","0.0-51.38-2.38","null","","","","","","","null","","","","","","","",""
"image-selector-fb","688","1590615","0.0-51.39-0.39","null","pics2/SW1.jpg,pics2/FR3.jpg","","","","","","","false","null","","","noS.png","","",""
"image-slider-2AFC","689","1592730","0.0-51.39-1.39","2113","","","","-18","","","","","","","","sizeS.png","1521","-18",""
"html-keyboard-response","690","1593607","0.0-51.39-2.39","null","","","","","","","null","","","","","","","",""
"image-selector-fb","691","1596643","0.0-51.40-0.40","null","pics2/VE4.jpg,pics2/FR2.jpg","","","","","","","false","null","","","noS.png","","",""
"image-slider-2AFC","692","1598562","0.0-51.40-1.40","1918","","","","-34","","","","","","","","heartS.png","1334","-34",""
"html-keyboard-response","693","1599334","0.0-51.40-2.40","null","","","","","","","null","","","","","","","",""
"image-selector-fb","694","1601666","0.0-51.41-0.41","1826","pics2/FR3.jpg,pics2/SA4.jpg","","","","","","","false","0","","","sizeS.png","","",""
"image-slider-2AFC","695","1603586","0.0-51.41-1.41","1918","","","","23","","","","","","","","heartS.png","1239","23",""
"html-keyboard-response","696","1604368","0.0-51.41-2.41","null","","","","","","","null","","","","","","","",""
"image-selector-fb","697","1606030","0.0-51.42-0.42","1152","pics2/VE4.jpg,pics2/FR6.jpg","","","","","","","false","0","","","heartS.png","","",""
"image-slider-2AFC","698","1608114","0.0-51.42-1.42","2082","","","","22","","","","","","","","sizeS.png","1442","22",""
"html-keyboard-response","699","1608932","0.0-51.42-2.42","null","","","","","","","null","","","","","","","",""
"image-selector-fb","700","1610849","0.0-51.43-0.43","1412","pics2/SW1.jpg,pics2/VE1.jpg","","","","","","","false","0","","","sizeS.png","","",""
"image-slider-2AFC","701","1612907","0.0-51.43-1.43","2055","","","","-9","","","","","","","","heartS.png","1543","-9",""
"html-keyboard-response","702","1613736","0.0-51.43-2.43","null","","","","","","","null","","","","","","","",""
"image-selector-fb","703","1616085","0.0-51.44-0.44","1841","pics2/VE5.jpg,pics2/FR2.jpg","","","","","","","false","0","","","heartS.png","","",""
"image-slider-2AFC","704","1618483","0.0-51.44-1.44","2395","","","","11","","","","","","","","sizeS.png","1915","11",""
"html-keyboard-response","705","1619317","0.0-51.44-2.44","null","","","","","","","null","","","","","","","",""
"image-selector-fb","706","1622339","0.0-51.45-0.45","null","pics2/VE1.jpg,pics2/VE5.jpg","","","","","","","false","null","","","noS.png","","",""
"image-slider-2AFC","707","1624698","0.0-51.45-1.45","2358","","","","-6","","","","","","","","sizeS.png","1910","-6",""
"html-keyboard-response","708","1625570","0.0-51.45-2.45","null","","","","","","","null","","","","","","","",""
"image-selector-fb","709","1628604","0.0-51.46-0.46","null","pics2/FR4.jpg,pics2/SA6.jpg","","","","","","","false","null","","","noS.png","","",""
"image-slider-2AFC","710","1630803","0.0-51.46-1.46","2196","","","","-6","","","","","","","","sizeS.png","1708","-6",""
