"trial_type","trial_index","time_elapsed","internal_node_id","rt","stimulus","button_pressed","success","response","cat","value","key_press","correct","image_click","first_click_rt","first_click_val","symbol","all_click_rt","all_click_val","view_history"
"pavlovia","0","5","0.0-0.0","","","","","","","","","","","","","","","",""
"html-button-response","1","2448","0.0-1.0","2441","<div style='width: 700px; font-size: 150%'><font size='40'>  Welcome to our study!</font><br><br><br> <small> Our experiment is about <i>decision making</i>. You will choose and rate different food items, such as these: <br><br> <div><img src='food_combo2.png', height = '400px'></img></div>","0","","","","","","","","","","","","",""
"html-button-response","2","6859","0.0-2.0","4409","<div style='width: 700px; font-size: 150%'><br><br><br><small> <u><i>This is a multi-part study.</i></u><br><br> In the first part you will rate 24 food items twice.<br><br><div><img src=""rat1.png"" style=""width: 25%""></img></div><br>In the second part (longest) you will make repeated choices and judgements concerning the food items.<br><br><div><img src=""mainx.png"" style=""width: 50%""></img></div><br>In the third and final part, you will rate the items again and answer few short questionnaires.<br><br><div><img src=""rat2.png"" style=""width: 50%""></img></div><br><br>","0","","","","","","","","","","","","",""
"fullscreen","3","9945","0.0-3.0","","","","true","","","","","","","","","","","",""
"html-button-response","4","11797","0.0-4.0","1850","<div style='width: 900px; font-size: 150%;' <font size='20%'> In the first part of the task you will use the mouse to rate food items on <i>2 scales</i> </font></div><br><br><div style='width: 900px'><div style='float: left; width: 50%; margin-right:2.5em'><img src='heartS.png'></img><p class='small' style='text-align: justify'>When you see the heart cue you will rate food items in terms of how much like them/would like to eat them <i>right now</i>. You will rate them on a continuous scale from left (strong dislike) to right (strong liking). Before submitting your rating, try imagining how the item tastes and how much you desire it.<br><br></p></div><div ><img src='sizeS.png'></img><p class='small' style='text-align: justify'>When you see the size cue, you will rate the same food items in terms of their size. The scale goes from left (tiny) to right (very large). You should assess picture size <i><u>relative</i></u> to the white background. <b>Remember:</b> rate the size of the picture, <u>not</u> the size of the item in real life. </p></div><div style='width: 900px'><br><br><b><i>Notice:</b> by starting the rating you agree that your sumbission might be rejected at an early stage and the experiment might end, if your size ratings are not at least modestly related to objective sizes, or if you repeat the same value ratings too many times. If you don't agree, please exit by closing the browser window. </i><br><br><br>","0","","","","","","","","","","","","",""
"html-button-response","5","14421","0.0-5.0","2621","<div><img src='heartS.png'></img></div><br><div style='text-align: justify; width: 700px'>Using the mouse, rate the <b><i>likeness</b></i> of the food items (how much you like them/would like to eat them <i>right now</i>). Far right-end of the scale indicates an item you <i>like a lot</i>. Far left-end indicates an item you <i>dislike a lot</i>. Think about each answer.   <ul><li>Try <b><i>not</b></i> to give identical rating to different items.</li><li>Use the whole scale, and <b><i>not</b></i> just the extremes</ul></div><br>","0","","","","","","","","","","","","",""
"image-slider-response","6","17889","0.0-6.0-0.0-0.0","3464","pics2/SW5.jpg","","","83","SW","","","","","","","","","",""
"image-slider-response","7","20416","0.0-6.0-0.0-0.1","2322","pics2/SA1.jpg","","","17","SA","","","","","","","","","",""
"image-slider-response","8","22623","0.0-6.0-0.0-0.2","2005","pics2/FR4.jpg","","","80","FR","","","","","","","","","",""
"image-slider-response","9","25122","0.0-6.0-0.0-0.3","2292","pics2/SA5.jpg","","","1","SA","","","","","","","","","",""
"image-slider-response","10","27241","0.0-6.0-0.0-0.4","1914","pics2/SW4.jpg","","","68","SW","","","","","","","","","",""
"image-slider-response","11","32655","0.0-6.0-0.0-0.5","5211","pics2/VE6.jpg","","","2","VE","","","","","","","","","",""
"image-slider-response","12","35575","0.0-6.0-0.0-0.6","2712","pics2/SW2.jpg","","","50","SW","","","","","","","","","",""
"image-slider-response","13","37970","0.0-6.0-0.0-0.7","2189","pics2/VE2.jpg","","","67","VE","","","","","","","","","",""
"image-slider-response","14","39696","0.0-6.0-0.0-0.8","1520","pics2/SW6.jpg","","","50","SW","","","","","","","","","",""
"image-slider-response","15","42843","0.0-6.0-0.0-0.9","2942","pics2/FR6.jpg","","","97","FR","","","","","","","","","",""
"image-slider-response","16","45044","0.0-6.0-0.0-0.10","1995","pics2/SA4.jpg","","","63","SA","","","","","","","","","",""
"image-slider-response","17","52806","0.0-6.0-0.0-0.11","7559","pics2/SA3.jpg","","","50","SA","","","","","","","","","",""
"image-slider-response","18","55730","0.0-6.0-0.0-0.12","2716","pics2/FR1.jpg","","","100","FR","","","","","","","","","",""
"image-slider-response","19","57825","0.0-6.0-0.0-0.13","1888","pics2/VE5.jpg","","","53","VE","","","","","","","","","",""
"image-slider-response","20","60432","0.0-6.0-0.0-0.14","2401","pics2/VE3.jpg","","","5","VE","","","","","","","","","",""
"image-slider-response","21","63458","0.0-6.0-0.0-0.15","2823","pics2/FR5.jpg","","","84","FR","","","","","","","","","",""
"image-slider-response","22","65971","0.0-6.0-0.0-0.16","2311","pics2/VE1.jpg","","","75","VE","","","","","","","","","",""
"image-slider-response","23","69117","0.0-6.0-0.0-0.17","2942","pics2/SA6.jpg","","","70","SA","","","","","","","","","",""
"image-slider-response","24","71351","0.0-6.0-0.0-0.18","2029","pics2/FR3.jpg","","","100","FR","","","","","","","","","",""
"image-slider-response","25","74279","0.0-6.0-0.0-0.19","2723","pics2/SA2.jpg","","","66","SA","","","","","","","","","",""
"image-slider-response","26","78738","0.0-6.0-0.0-0.20","4251","pics2/SW3.jpg","","","65","SW","","","","","","","","","",""
"image-slider-response","27","83437","0.0-6.0-0.0-0.21","4491","pics2/FR2.jpg","","","99","FR","","","","","","","","","",""
"image-slider-response","28","93173","0.0-6.0-0.0-0.22","9532","pics2/VE4.jpg","","","100","VE","","","","","","","","","",""
"image-slider-response","29","96586","0.0-6.0-0.0-0.23","3210","pics2/SW1.jpg","","","63","SW","","","","","","","","","",""
"html-button-response","30","98057","0.0-7.0","1265","<div style='width: 900px;'> <font size = 6><b> End of the first rating</b><br><br>","0","","","","","","","","","","","","",""
"html-button-response","31","108989","0.0-9.0","10927","<div ><img src='sizeS.png'></img></div><br><div style='text-align: justify; width: 700px'> Using the mouse, rate the <b><i>size</b></i> of the food items <b><i> relative to the white background.</b></i> Right-end of the scale indicates a <i>very large item</i>, which covers a large portion of the white rectangle. Left-end indicates a <i>very tiny</i> item which covers a tiny portion of the white rectangle.<br><br><i><u>Remember</i></u>: everything that is not the white background also contributes to item size (e.g. packing, plates, ect.)<br><br> Please keep in mind that if the accuracy of ratings do not allign well with actual sizes, the experiment will end.  As a result it will be consider incomplete and therefore no payment would be made. Good luck!<br><br></div><br>","0","","","","","","","","","","","","",""
"html-button-response","32","111810","0.0-10.0","2818","<div ><img src='sizeS.png'></img></div><br><b><font size=6>Examples of items that you might encounter</b><br><div style='width: 750px;'><div style='width: 33.33%; float:left'><br><br><br><i>Large Item</i><br><br><img src='large.jpg', width=200px></img></div><div style='float:right'><br><br><br><i>Small Item</i><br><br><img src='small.jpg', width=200px></img></div><div ><br><br><br><i>Medium Item</i><br><br><img src='med.jpg', width=200px></img></div></div><br><br>","0","","","","","","","","","","","","",""
"image-slider-response","33","114176","0.0-11.0-0.0-0.0","2364","pics2/VE2.jpg","","","97","null","","","","","","","","","",""
"image-slider-response","34","115923","0.0-11.0-0.0-0.1","1542","pics2/FR2.jpg","","","100","null","","","","","","","","","",""
"image-slider-response","35","117830","0.0-11.0-0.0-0.2","1699","pics2/FR6.jpg","","","71","null","","","","","","","","","",""
"image-slider-response","36","119809","0.0-11.0-0.0-0.3","1776","pics2/SW6.jpg","","","50","null","","","","","","","","","",""
"image-slider-response","37","121770","0.0-11.0-0.0-0.4","1756","pics2/FR3.jpg","","","76","null","","","","","","","","","",""
"image-slider-response","38","125634","0.0-11.0-0.0-0.5","3657","pics2/SA6.jpg","","","77","null","","","","","","","","","",""
"image-slider-response","39","129459","0.0-11.0-0.0-0.6","3621","pics2/SW1.jpg","","","100","null","","","","","","","","","",""
"image-slider-response","40","131265","0.0-11.0-0.0-0.7","1603","pics2/VE5.jpg","","","50","null","","","","","","","","","",""
"image-slider-response","41","132924","0.0-11.0-0.0-0.8","1454","pics2/VE1.jpg","","","66","null","","","","","","","","","",""
"image-slider-response","42","134770","0.0-11.0-0.0-0.9","1644","pics2/SA5.jpg","","","45","null","","","","","","","","","",""
"image-slider-response","43","136524","0.0-11.0-0.0-0.10","1551","pics2/FR5.jpg","","","71","null","","","","","","","","","",""
"image-slider-response","44","141375","0.0-11.0-0.0-0.11","4643","pics2/SA3.jpg","","","80","null","","","","","","","","","",""
"image-slider-response","45","143693","0.0-11.0-0.0-0.12","2110","pics2/SW2.jpg","","","100","null","","","","","","","","","",""
"image-slider-response","46","145432","0.0-11.0-0.0-0.13","1534","pics2/SA1.jpg","","","92","null","","","","","","","","","",""
"image-slider-response","47","147198","0.0-11.0-0.0-0.14","1562","pics2/VE6.jpg","","","50","null","","","","","","","","","",""
"image-slider-response","48","149417","0.0-11.0-0.0-0.15","2013","pics2/SW3.jpg","","","75","null","","","","","","","","","",""
"image-slider-response","49","151011","0.0-11.0-0.0-0.16","1388","pics2/SW4.jpg","","","71","null","","","","","","","","","",""
"image-slider-response","50","152946","0.0-11.0-0.0-0.17","1727","pics2/FR1.jpg","","","81","null","","","","","","","","","",""
"image-slider-response","51","154292","0.0-11.0-0.0-0.18","1143","pics2/SA4.jpg","","","50","null","","","","","","","","","",""
"image-slider-response","52","156115","0.0-11.0-0.0-0.19","1617","pics2/SW5.jpg","","","64","null","","","","","","","","","",""
"image-slider-response","53","157484","0.0-11.0-0.0-0.20","1163","pics2/VE4.jpg","","","50","null","","","","","","","","","",""
"image-slider-response","54","160124","0.0-11.0-0.0-0.21","2436","pics2/FR4.jpg","","","78","null","","","","","","","","","",""
"image-slider-response","55","161783","0.0-11.0-0.0-0.22","1452","pics2/SA2.jpg","","","50","null","","","","","","","","","",""
"image-slider-response","56","163973","0.0-11.0-0.0-0.23","1985","pics2/VE3.jpg","","","69","null","","","","","","","","","",""
"html-button-response","57","165279","0.0-12.0","1102","<div style='width: 900px;'> <font size = 6><b> End of the second rating</b><br><br>","0","","","","","","","","","","","","",""
"html-button-response","58","167614","0.0-13.0","2333","<div style='width: 900px;'>Now please rate the items for the second time. <br><br>This is not a memory test - you don't need to be consistent with your previous ratings. Just as before, try to make accurate judgements.<br><br>","0","","","","","","","","","","","","",""
"html-button-response","59","179384","0.0-14.0","11767","<div><img src='heartS.png'></img></div><br><div style='text-align: justify; width: 700px'>Using the mouse, rate the <b><i>likeness</b></i> of the food items (how much you like them/would like to eat them <i>right now</i>). Far right-end of the scale indicates an item you <i>like a lot</i>. Far left-end indicates an item you <i>dislike a lot</i>. Think about each answer.   <ul><li>Try <b><i>not</b></i> to give identical rating to different items.</li><li>Use the whole scale, and <b><i>not</b></i> just the extremes</ul></div><br>","0","","","","","","","","","","","","",""
"image-slider-response","60","181944","0.0-15.0-0.0-0.0","2556","pics2/SW3.jpg","","","76","SW","","","","","","","","","",""
"image-slider-response","61","184342","0.0-15.0-0.0-0.1","2194","pics2/FR3.jpg","","","100","FR","","","","","","","","","",""
"image-slider-response","62","186930","0.0-15.0-0.0-0.2","2383","pics2/SA5.jpg","","","2","SA","","","","","","","","","",""
"image-slider-response","63","188832","0.0-15.0-0.0-0.3","1698","pics2/FR2.jpg","","","92","FR","","","","","","","","","",""
"image-slider-response","64","190025","0.0-15.0-0.0-0.4","986","pics2/SA2.jpg","","","50","SA","","","","","","","","","",""
"image-slider-response","65","193217","0.0-15.0-0.0-0.5","2988","pics2/VE1.jpg","","","58","VE","","","","","","","","","",""
"image-slider-response","66","204450","0.0-15.0-0.0-0.6","11027","pics2/FR4.jpg","","","78","FR","","","","","","","","","",""
"image-slider-response","67","206000","0.0-15.0-0.0-0.7","1347","pics2/SW2.jpg","","","69","SW","","","","","","","","","",""
"image-slider-response","68","207996","0.0-15.0-0.0-0.8","1792","pics2/FR6.jpg","","","92","FR","","","","","","","","","",""
"image-slider-response","69","214019","0.0-15.0-0.0-0.9","5818","pics2/VE6.jpg","","","2","VE","","","","","","","","","",""
"image-slider-response","70","215470","0.0-15.0-0.0-0.10","1247","pics2/SA3.jpg","","","50","SA","","","","","","","","","",""
"image-slider-response","71","217217","0.0-15.0-0.0-0.11","1543","pics2/SW4.jpg","","","62","SW","","","","","","","","","",""
"image-slider-response","72","219206","0.0-15.0-0.0-0.12","1782","pics2/VE5.jpg","","","65","VE","","","","","","","","","",""
"image-slider-response","73","221530","0.0-15.0-0.0-0.13","2119","pics2/VE4.jpg","","","98","VE","","","","","","","","","",""
"image-slider-response","74","223824","0.0-15.0-0.0-0.14","2090","pics2/SW5.jpg","","","63","SW","","","","","","","","","",""
"image-slider-response","75","225787","0.0-15.0-0.0-0.15","1757","pics2/FR5.jpg","","","87","FR","","","","","","","","","",""
"image-slider-response","76","227966","0.0-15.0-0.0-0.16","1975","pics2/VE3.jpg","","","7","VE","","","","","","","","","",""
"image-slider-response","77","230068","0.0-15.0-0.0-0.17","1894","pics2/FR1.jpg","","","70","FR","","","","","","","","","",""
"image-slider-response","78","232696","0.0-15.0-0.0-0.18","2423","pics2/SW1.jpg","","","66","SW","","","","","","","","","",""
"image-slider-response","79","234802","0.0-15.0-0.0-0.19","1901","pics2/VE2.jpg","","","60","VE","","","","","","","","","",""
"image-slider-response","80","236677","0.0-15.0-0.0-0.20","1669","pics2/SA1.jpg","","","11","SA","","","","","","","","","",""
"image-slider-response","81","238758","0.0-15.0-0.0-0.21","1876","pics2/SA4.jpg","","","63","SA","","","","","","","","","",""
"image-slider-response","82","241025","0.0-15.0-0.0-0.22","2059","pics2/SA6.jpg","","","37","SA","","","","","","","","","",""
"image-slider-response","83","242554","0.0-15.0-0.0-0.23","1324","pics2/SW6.jpg","","","50","SW","","","","","","","","","",""
"call-function","84","242767","0.0-16.0","","","","","","","","","","","","","","","",""
"call-function","85","242769","0.0-17.0","","","","","","","","","","","","","","","",""
"html-button-response","86","243715","0.0-18.0","944","<div style='width: 900px;'> <font size = 6><b> End of the first rating</b><br><br>","0","","","","","","","","","","","","",""
"html-button-response","87","245269","0.0-19.0","1551","<div ><img src='sizeS.png'></img></div><br><div style='text-align: justify; width: 700px'> Using the mouse, rate the <b><i>size</b></i> of the food items <b><i> relative to the white background.</b></i> Right-end of the scale indicates a <i>very large item</i>, which covers a large portion of the white rectangle. Left-end indicates a <i>very tiny</i> item which covers a tiny portion of the white rectangle.<br><br><i><u>Remember</i></u>: everything that is not the white background also contributes to item size (e.g. packing, plates, ect.)<br><br> Please keep in mind that if the accuracy of ratings do not allign well with actual sizes, the experiment will end.  As a result it will be consider incomplete and therefore no payment would be made. Good luck!<br><br></div><br>","0","","","","","","","","","","","","",""
"image-slider-response","88","246795","0.0-20.0-0.0-0.0","1523","pics2/SA4.jpg","","","50","null","","","","","","","","","",""
"image-slider-response","89","248598","0.0-20.0-0.0-0.1","1597","pics2/SW3.jpg","","","67","null","","","","","","","","","",""
"image-slider-response","90","250120","0.0-20.0-0.0-0.2","1314","pics2/SW2.jpg","","","85","null","","","","","","","","","",""
"image-slider-response","91","251674","0.0-20.0-0.0-0.3","1351","pics2/SW5.jpg","","","69","null","","","","","","","","","",""
"image-slider-response","92","253348","0.0-20.0-0.0-0.4","1469","pics2/SW4.jpg","","","68","null","","","","","","","","","",""
"image-slider-response","93","254437","0.0-20.0-0.0-0.5","885","pics2/VE4.jpg","","","50","null","","","","","","","","","",""
"image-slider-response","94","255863","0.0-20.0-0.0-0.6","1221","pics2/SW6.jpg","","","50","null","","","","","","","","","",""
"image-slider-response","95","257408","0.0-20.0-0.0-0.7","1342","pics2/VE1.jpg","","","73","null","","","","","","","","","",""
"image-slider-response","96","259034","0.0-20.0-0.0-0.8","1421","pics2/SA5.jpg","","","50","null","","","","","","","","","",""
"image-slider-response","97","260923","0.0-20.0-0.0-0.9","1686","pics2/SW1.jpg","","","94","null","","","","","","","","","",""
"image-slider-response","98","262630","0.0-20.0-0.0-0.10","1502","pics2/VE3.jpg","","","65","null","","","","","","","","","",""
"image-slider-response","99","264320","0.0-20.0-0.0-0.11","1485","pics2/FR6.jpg","","","50","null","","","","","","","","","",""
"image-slider-response","100","266265","0.0-20.0-0.0-0.12","1739","pics2/FR2.jpg","","","62","null","","","","","","","","","",""
"image-slider-response","101","267996","0.0-20.0-0.0-0.13","1525","pics2/FR3.jpg","","","82","null","","","","","","","","","",""
"image-slider-response","102","269093","0.0-20.0-0.0-0.14","890","pics2/VE5.jpg","","","50","null","","","","","","","","","",""
"image-slider-response","103","270094","0.0-20.0-0.0-0.15","794","pics2/SA2.jpg","","","50","null","","","","","","","","","",""
"image-slider-response","104","272217","0.0-20.0-0.0-0.16","1915","pics2/FR5.jpg","","","74","null","","","","","","","","","",""
"image-slider-response","105","274338","0.0-20.0-0.0-0.17","1917","pics2/SA1.jpg","","","92","null","","","","","","","","","",""
"image-slider-response","106","275524","0.0-20.0-0.0-0.18","982","pics2/FR1.jpg","","","50","null","","","","","","","","","",""
"image-slider-response","107","277591","0.0-20.0-0.0-0.19","1862","pics2/VE2.jpg","","","64","null","","","","","","","","","",""
"image-slider-response","108","278860","0.0-20.0-0.0-0.20","1065","pics2/VE6.jpg","","","50","null","","","","","","","","","",""
"image-slider-response","109","280455","0.0-20.0-0.0-0.21","1392","pics2/SA6.jpg","","","59","null","","","","","","","","","",""
"image-slider-response","110","281904","0.0-20.0-0.0-0.22","1243","pics2/SA3.jpg","","","74","null","","","","","","","","","",""
"image-slider-response","111","284001","0.0-20.0-0.0-0.23","1894","pics2/FR4.jpg","","","79","null","","","","","","","","","",""
"call-function","112","284210","0.0-21.0","","","","","","","","","","","","","","","",""
"html-button-response","113","284995","0.0-22.0","785","<div style='width: 900px;'> <font size = 6><b> End of the second rating</b><br><br>","0","","","","","","","","","","","","",""
"pavlovia","114","285009","0.0-23.0","","","","","","","","","","","","","","","",""
"html-keyboard-response","115","290012","0.0-24.0","null","<div style='width: 700px;'> <font size=6><b>SHORT BREAK</font></b><br><br><i> Please wait 5 seconds to continue</i></div> ","","","","","","null","","","","","","","",""
"pavlovia","116","290014","0.0-25.0","","","","","","","","","","","","","","","",""
"html-button-response","117","308019","0.0-26.0","18003","<div style='width: 700px;'>In the main part of the study, you will be choosing between 2 items. When it's time to choose,  this symbol will appear: <br><br><img src='chooseS.png'></img><br><br>Below, a cue will signify the type of choice: </div><br><div style='width: 700px;'><div style='float: left; width: 50%'><img src='heartS.png'></img><p class='small'>Heart cue means you should choose the item you <b><i>prefer</b></i> more.</p></div><div class='float: right; width:50%'><img src='sizeS.png'></img><p class='small'>Size cue means you should choose the <b><i>larger</b></i> item. </p></div></div><br><div style='width: 700px;'>When you click, a green square will appear around the item you chose.<br></div><div><br>","0","","","","","","","","","","","","",""
"image-selector-fb-tut","118","310997","0.0-27.0","1971","0232.jpg,0123.jpg","","","","","","","false","0","","","","","",""
"image-selector-fb-tut","119","313955","0.0-28.0","1952","0232.jpg,0123.jpg","","","","","","","true","1","","","","","",""
"html-button-response","120","316197","0.0-29.0","2239","<div style='width: 900px;'>Your choices should be both <b><i>fast and accurate</b></i>. <br><br>You will have <i>4 seconds</i> to make each choice, which should be enough consider the options and click on one of the items.<br><br>","0","","","","","","","","","","","","",""
"html-button-response","121","317855","0.0-30.0","1657","<div style='width: 900px;'>Additionally, on some choice trials you will see the <b><i>no-choice cue</b></i>: <br><br><img src='noS.png'></img> <br><br>This cue means you can't make any choice. You can examine the items, but  can't click on any of them. Just wait patiently for the cue to dissapear.<br><br>","0","","","","","","","","","","","","",""
"image-selector-fb-tut","122","319862","0.0-31.0","null","0232.jpg,0123.jpg","","","","","","","false","null","","","","","",""
"html-button-response","123","321358","0.0-32.0","1495","<div style='width: 900px;'>After each choice the items will remain on the screen and you will see this symbol: <br><br><img src='judgeS.png'></img> <br><br>This means you should rate<b> the magnitude of the difference</b> between the items using a scale: </div><br><div style='width: 900px; '><div style='float: left; width: 50%; margin-right: 2.5em; align-self:left'><img src='heartS.png'></img><p class='small' style = 'text-align: justify;'>Heart cue means you should rate <b>how much you prefer</b> one of the items over the other. Moving the scale indicator to the left means you prefer the left one; moving it to the right - right one. The more you prefer one of them, the more towards that side you should move the scale indicator. </p></div><div class='float: right; width: 50%; margin-left: 2.5em;'><img src='sizeS.png'></img><p class='small' style='text-align: justify'>Size cue means you should rate <b>how much larger</b> is one of the items over the other. Moving the scale indicator to the left means you think the left is larger; moving it to the right - right one. The greater the difference in size, the more towards that side you should move the scale indicator.</div><br>","0","","","","","","","","","","","","",""
"image-slider-2AFC-tut","124","324098","0.0-33.0","2736","","","","57","","","","","","2096","57","","","",""
"image-slider-2AFC-tut","125","326052","0.0-34.0","1952","","","","39","","","","","","1472","39","","","",""
"html-button-response","126","333669","0.0-35.0","7614","<br><br><font size = 36><b> Examples </b></font><br><br><i> 1) I would like to eat some croissants a <b>lot more</b> than doritos right now:</i><br><img src='ex1.PNG', width='62%'></img><br><br><br><i> 2) I would like to eat some doritos a <b>bit more</b> than croissants right now, but just slightly:</i><br><img src='ex2.PNG' width='62%'></img>","0","","","","","","","","","","","","",""
"html-button-response","127","335246","0.0-36.0","1574","<div style='width: 900px;'><i>Now you know everything you need to do the task!</i> <br><br>Let's start by doing a <b>short training</b>, so you'll get used to how it works. </div><br>","0","","","","","","","","","","","","",""
"image-selector-fb","128","338257","0.0-37.0-0.0","null","pics2/SA6.jpg,pics2/SA2.jpg","","","","","","","false","null","","","noS.png","","",""
"image-slider-2AFC","129","342331","0.0-37.0-1.0","4070","","","","27","","","","","","","","heartS.png","2753","27",""
"html-keyboard-response","130","343036","0.0-37.0-2.0","null","","","","","","","null","","","","","","","",""
"image-selector-fb","131","344953","0.0-37.1-0.1","1410","pics2/VE5.jpg,pics2/SA3.jpg","","","","","","","false","0","","","heartS.png","","",""
"image-slider-2AFC","132","349957","0.0-37.1-1.1","null","","","","null","","","","","","","","sizeS.png","4625","7",""
"html-keyboard-response","133","350760","0.0-37.1-2.1","null","","","","","","","null","","","","","","","",""
"image-selector-fb","134","353767","0.0-37.2-0.2","null","pics2/SA1.jpg,pics2/SA3.jpg","","","","","","","false","null","","","noS.png","","",""
"image-slider-2AFC","135","356022","0.0-37.2-1.2","2252","","","","-51","","","","","","","","sizeS.png","1647","-51",""
"html-keyboard-response","136","356874","0.0-37.2-2.2","null","","","","","","","null","","","","","","","",""
"image-selector-fb","137","358736","0.0-37.3-0.3","1356","pics2/VE3.jpg,pics2/VE2.jpg","","","","","","","true","1","","","heartS.png","","",""
"image-slider-2AFC","138","362324","0.0-37.3-1.3","3586","","","","-16","","","","","","","","sizeS.png","1737,3195","23,-16",""
"html-keyboard-response","139","363133","0.0-37.3-2.3","null","","","","","","","null","","","","","","","",""
"image-selector-fb","140","364778","0.0-37.4-0.4","1138","pics2/SW6.jpg,pics2/VE2.jpg","","","","","","","true","1","","","heartS.png","","",""
"image-slider-2AFC","141","366509","0.0-37.4-1.4","1729","","","","5","","","","","","","","heartS.png","1279","5",""
"html-keyboard-response","142","367267","0.0-37.4-2.4","null","","","","","","","null","","","","","","","",""
"image-selector-fb","143","370278","0.0-37.5-0.5","null","pics2/SA1.jpg,pics2/SA2.jpg","","","","","","","false","null","","","noS.png","","",""
"image-slider-2AFC","144","372196","0.0-37.5-1.5","1916","","","","22","","","","","","","","heartS.png","1427","22",""
"html-keyboard-response","145","372900","0.0-37.5-2.5","null","","","","","","","null","","","","","","","",""
"image-selector-fb","146","375497","0.0-37.6-0.6","2092","pics2/SA4.jpg,pics2/VE3.jpg","","","","","","","true","1","","","sizeS.png","","",""
"image-slider-2AFC","147","377364","0.0-37.6-1.6","1864","","","","-18","","","","","","","","heartS.png","1313","-18",""
"html-keyboard-response","148","378121","0.0-37.6-2.6","null","","","","","","","null","","","","","","","",""
"image-selector-fb","149","381129","0.0-37.7-0.7","null","pics2/SW2.jpg,pics2/VE2.jpg","","","","","","","false","null","","","noS.png","","",""
"image-slider-2AFC","150","383415","0.0-37.7-1.7","2283","","","","27","","","","","","","","heartS.png","1482","27",""
"html-keyboard-response","151","384121","0.0-37.7-2.7","null","","","","","","","null","","","","","","","",""
"image-selector-fb","152","387130","0.0-37.8-0.8","null","pics2/VE2.jpg,pics2/SA2.jpg","","","","","","","false","null","","","noS.png","","",""
"image-slider-2AFC","153","389040","0.0-37.8-1.8","1908","","","","-34","","","","","","","","sizeS.png","1471","-34",""
"html-keyboard-response","154","389796","0.0-37.8-2.8","null","","","","","","","null","","","","","","","",""
"image-selector-fb","155","392303","0.0-37.9-0.9","2000","pics2/SW6.jpg,pics2/SA1.jpg","","","","","","","false","0","","","heartS.png","","",""
"image-slider-2AFC","156","394226","0.0-37.9-1.9","1921","","","","34","","","","","","","","sizeS.png","1432","34",""
"html-keyboard-response","157","394934","0.0-37.9-2.9","null","","","","","","","null","","","","","","","",""
"image-selector-fb","158","397943","0.0-37.10-0.10","null","pics2/SA6.jpg,pics2/VE2.jpg","","","","","","","false","null","","","noS.png","","",""
"image-slider-2AFC","159","400005","0.0-37.10-1.10","2059","","","","14","","","","","","","","sizeS.png","1699","14",""
"html-keyboard-response","160","400762","0.0-37.10-2.10","null","","","","","","","null","","","","","","","",""
"image-selector-fb","161","403455","0.0-37.11-0.11","2187","pics2/VE6.jpg,pics2/SA2.jpg","","","","","","","false","0","","","sizeS.png","","",""
"image-slider-2AFC","162","405102","0.0-37.11-1.11","1644","","","","-10","","","","","","","","sizeS.png","1220","-10",""
"html-keyboard-response","163","405958","0.0-37.11-2.11","null","","","","","","","null","","","","","","","",""
"html-button-response","164","409562","0.0-38.0","3602","<i><font size=10>Good job!</font></i> <br><br>Before we begin, you have a chance to review the rules, in case something was not clear.<br><br>","0","","","","","","","","","","","","",""
"instructions","165","413955","0.0-39.0","4391","","","","","","","","","","","","","","","[{""page_index"":0,""viewing_time"":1892},{""page_index"":1,""viewing_time"":1482},{""page_index"":2,""viewing_time"":1016}]"
"html-button-response","166","418589","0.0-40.0","4632","<div style='width: 900px;'> <font size='40'>Great! Now you're ready to begin</font><br><br>The main part of the experiment will consist of <u>3 blocks</u>. Each block consists of 66 decisions and judgements. You will have time for a short break between blocks.<br><br><br><i><u>Do your best to respond within the time limit.</u></i><br><br><i> Press the button to start the experiment<br><br></i>","0","","","","","","","","","","","","",""
"image-selector-fb","167","420417","0.0-41.0-0.0","1322","pics2/VE1.jpg,pics2/SW3.jpg","","","","","","","false","0","","","heartS.png","","",""
"image-slider-2AFC","168","422006","0.0-41.0-1.0","1586","","","","13","","","","","","","","sizeS.png","1048","13",""
"html-keyboard-response","169","422762","0.0-41.0-2.0","null","","","","","","","null","","","","","","","",""
"image-selector-fb","170","425099","0.0-41.1-0.1","1830","pics2/VE4.jpg,pics2/FR3.jpg","","","","","","","true","1","","","heartS.png","","",""
"image-slider-2AFC","171","427101","0.0-41.1-1.1","2000","","","","65","","","","","","","","heartS.png","736","65",""
"html-keyboard-response","172","427807","0.0-41.1-2.1","null","","","","","","","null","","","","","","","",""
"image-selector-fb","173","429739","0.0-41.2-0.2","1426","pics2/FR6.jpg,pics2/VE4.jpg","","","","","","","false","0","","","sizeS.png","","",""
"image-slider-2AFC","174","431406","0.0-41.2-1.2","1665","","","","14","","","","","","","","sizeS.png","1273","14",""
"html-keyboard-response","175","432163","0.0-41.2-2.2","null","","","","","","","null","","","","","","","",""
"image-selector-fb","176","434681","0.0-41.3-0.3","2013","pics2/FR5.jpg,pics2/VE4.jpg","","","","","","","false","0","","","sizeS.png","","",""
"image-slider-2AFC","177","435979","0.0-41.3-1.3","1295","","","","-7","","","","","","","","heartS.png","944","-7",""
"html-keyboard-response","178","436788","0.0-41.3-2.3","null","","","","","","","null","","","","","","","",""
"image-selector-fb","179","438395","0.0-41.4-0.4","1098","pics2/VE1.jpg,pics2/FR5.jpg","","","","","","","true","1","","","heartS.png","","",""
"image-slider-2AFC","180","441252","0.0-41.4-1.4","2854","","","","-43","","","","","","","","sizeS.png","1038,2175","72,-43",""
"html-keyboard-response","181","442056","0.0-41.4-2.4","null","","","","","","","null","","","","","","","",""
"image-selector-fb","182","444129","0.0-41.5-0.5","1568","pics2/SW4.jpg,pics2/FR6.jpg","","","","","","","false","0","","","heartS.png","","",""
"image-slider-2AFC","183","445878","0.0-41.5-1.5","1746","","","","-14","","","","","","","","sizeS.png","1419","-14",""
"html-keyboard-response","184","446587","0.0-41.5-2.5","null","","","","","","","null","","","","","","","",""
"image-selector-fb","185","448194","0.0-41.6-0.6","1102","pics2/SW5.jpg,pics2/FR1.jpg","","","","","","","true","1","","","heartS.png","","",""
"image-slider-2AFC","186","449270","0.0-41.6-1.6","1073","","","","35","","","","","","","","sizeS.png","552","35",""
"html-keyboard-response","187","449974","0.0-41.6-2.6","null","","","","","","","null","","","","","","","",""
"image-selector-fb","188","452988","0.0-41.7-0.7","null","pics2/SW4.jpg,pics2/SW1.jpg","","","","","","","false","null","","","noS.png","","",""
"image-slider-2AFC","189","455056","0.0-41.7-1.7","2065","","","","-39","","","","","","","","heartS.png","1560","-39",""
"html-keyboard-response","190","455912","0.0-41.7-2.7","null","","","","","","","null","","","","","","","",""
"image-selector-fb","191","458315","0.0-41.8-0.8","1898","pics2/SW1.jpg,pics2/SW5.jpg","","","","","","","false","0","","","sizeS.png","","",""
"image-slider-2AFC","192","459929","0.0-41.8-1.8","1611","","","","16","","","","","","","","heartS.png","1171","16",""
"html-keyboard-response","193","460784","0.0-41.8-2.8","null","","","","","","","null","","","","","","","",""
"image-selector-fb","194","463795","0.0-41.9-0.9","null","pics2/VE4.jpg,pics2/SW1.jpg","","","","","","","false","null","","","noS.png","","",""
"image-slider-2AFC","195","466109","0.0-41.9-1.9","2311","","","","61","","","","","","","","sizeS.png","1543","61",""
"html-keyboard-response","196","466816","0.0-41.9-2.9","null","","","","","","","null","","","","","","","",""
"image-selector-fb","197","469826","0.0-41.10-0.10","null","pics2/FR6.jpg,pics2/FR1.jpg","","","","","","","false","null","","","noS.png","","",""
"image-slider-2AFC","198","472383","0.0-41.10-1.10","2555","","","","38","","","","","","","","sizeS.png","1986","38",""
"html-keyboard-response","199","473139","0.0-41.10-2.10","null","","","","","","","null","","","","","","","",""
"image-selector-fb","200","476205","0.0-41.11-0.11","2560","pics2/FR6.jpg,pics2/FR1.jpg","","","","","","","true","1","","","sizeS.png","","",""
"image-slider-2AFC","201","477860","0.0-41.11-1.11","1651","","","","19","","","","","","","","sizeS.png","1100","19",""
"html-keyboard-response","202","478663","0.0-41.11-2.11","null","","","","","","","null","","","","","","","",""
"image-selector-fb","203","480646","0.0-41.12-0.12","1478","pics2/VE4.jpg,pics2/VE1.jpg","","","","","","","false","0","","","sizeS.png","","",""
"image-slider-2AFC","204","482568","0.0-41.12-1.12","1918","","","","48","","","","","","","","sizeS.png","1312","48",""
"html-keyboard-response","205","483422","0.0-41.12-2.12","null","","","","","","","null","","","","","","","",""
"image-selector-fb","206","485044","0.0-41.13-0.13","1113","pics2/SW1.jpg,pics2/FR6.jpg","","","","","","","true","1","","","heartS.png","","",""
"image-slider-2AFC","207","487145","0.0-41.13-1.13","2098","","","","-53","","","","","","","","sizeS.png","1498","-53",""
"html-keyboard-response","208","487951","0.0-41.13-2.13","null","","","","","","","null","","","","","","","",""
"image-selector-fb","209","490964","0.0-41.14-0.14","null","pics2/FR2.jpg,pics2/FR6.jpg","","","","","","","false","null","","","noS.png","","",""
"image-slider-2AFC","210","492975","0.0-41.14-1.14","2008","","","","-35","","","","","","","","sizeS.png","1577","-35",""
"html-keyboard-response","211","493683","0.0-41.14-2.14","null","","","","","","","null","","","","","","","",""
"image-selector-fb","212","496694","0.0-41.15-0.15","null","pics2/SW3.jpg,pics2/FR5.jpg","","","","","","","false","null","","","noS.png","","",""
"image-slider-2AFC","213","499568","0.0-41.15-1.15","2871","","","","-72","","","","","","","","sizeS.png","1822","-72",""
"html-keyboard-response","214","500324","0.0-41.15-2.15","null","","","","","","","null","","","","","","","",""
"image-selector-fb","215","503333","0.0-41.16-0.16","null","pics2/VE4.jpg,pics2/SW4.jpg","","","","","","","false","null","","","noS.png","","",""
"image-slider-2AFC","216","505932","0.0-41.16-1.16","2597","","","","35","","","","","","","","sizeS.png","1629","35",""
"html-keyboard-response","217","506789","0.0-41.16-2.16","null","","","","","","","null","","","","","","","",""
"image-selector-fb","218","509797","0.0-41.17-0.17","null","pics2/FR4.jpg,pics2/FR5.jpg","","","","","","","false","null","","","noS.png","","",""
"image-slider-2AFC","219","512805","0.0-41.17-1.17","3007","","","","-45","","","","","","","","heartS.png","2262","-45",""
"html-keyboard-response","220","513612","0.0-41.17-2.17","null","","","","","","","null","","","","","","","",""
"image-selector-fb","221","516624","0.0-41.18-0.18","null","pics2/FR4.jpg,pics2/VE4.jpg","","","","","","","false","null","","","noS.png","","",""
"image-slider-2AFC","222","518722","0.0-41.18-1.18","2095","","","","-19","","","","","","","","sizeS.png","1630","-19",""
"html-keyboard-response","223","519429","0.0-41.18-2.18","null","","","","","","","null","","","","","","","",""
"image-selector-fb","224","522440","0.0-41.19-0.19","null","pics2/FR5.jpg,pics2/VE1.jpg","","","","","","","false","null","","","noS.png","","",""
"image-slider-2AFC","225","525030","0.0-41.19-1.19","2587","","","","-14","","","","","","","","heartS.png","1491,2253","18,-14",""
"html-keyboard-response","226","525840","0.0-41.19-2.19","null","","","","","","","null","","","","","","","",""
"image-selector-fb","227","528173","0.0-41.20-0.20","1825","pics2/FR1.jpg,pics2/SW4.jpg","","","","","","","false","0","","","heartS.png","","",""
"image-slider-2AFC","228","529318","0.0-41.20-1.20","1143","","","","-15","","","","","","","","heartS.png","607","-15",""
"html-keyboard-response","229","530022","0.0-41.20-2.20","null","","","","","","","null","","","","","","","",""
"image-selector-fb","230","533030","0.0-41.21-0.21","null","pics2/FR3.jpg,pics2/VE1.jpg","","","","","","","false","null","","","noS.png","","",""
"image-slider-2AFC","231","536214","0.0-41.21-1.21","3182","","","","-96","","","","","","","","heartS.png","1716","-96",""
"html-keyboard-response","232","536966","0.0-41.21-2.21","null","","","","","","","null","","","","","","","",""
"image-selector-fb","233","539975","0.0-41.22-0.22","null","pics2/FR5.jpg,pics2/SW1.jpg","","","","","","","false","null","","","noS.png","","",""
"image-slider-2AFC","234","542105","0.0-41.22-1.22","2128","","","","-31","","","","","","","","sizeS.png","1447","-31",""
"html-keyboard-response","235","542908","0.0-41.22-2.22","null","","","","","","","null","","","","","","","",""
"image-selector-fb","236","545920","0.0-41.23-0.23","null","pics2/FR5.jpg,pics2/SW4.jpg","","","","","","","false","null","","","noS.png","","",""
"image-slider-2AFC","237","547947","0.0-41.23-1.23","2024","","","","-42","","","","","","","","sizeS.png","1408","-42",""
"html-keyboard-response","238","548655","0.0-41.23-2.23","null","","","","","","","null","","","","","","","",""
"image-selector-fb","239","551058","0.0-41.24-0.24","1896","pics2/SW3.jpg,pics2/FR2.jpg","","","","","","","true","1","","","sizeS.png","","",""
"image-slider-2AFC","240","552614","0.0-41.24-1.24","1553","","","","46","","","","","","","","heartS.png","1105","46",""
"html-keyboard-response","241","553470","0.0-41.24-2.24","null","","","","","","","null","","","","","","","",""
"image-selector-fb","242","555591","0.0-41.25-0.25","1615","pics2/VE4.jpg,pics2/SW5.jpg","","","","","","","false","0","","","sizeS.png","","",""
"image-slider-2AFC","243","557098","0.0-41.25-1.25","1503","","","","-11","","","","","","","","sizeS.png","1136","-11",""
"html-keyboard-response","244","557905","0.0-41.25-2.25","null","","","","","","","null","","","","","","","",""
"image-selector-fb","245","559907","0.0-41.26-0.26","1496","pics2/FR1.jpg,pics2/SW1.jpg","","","","","","","false","0","","","sizeS.png","","",""
"image-slider-2AFC","246","562064","0.0-41.26-1.26","2153","","","","-14","","","","","","","","heartS.png","1785","-14",""
"html-keyboard-response","247","562818","0.0-41.26-2.26","null","","","","","","","null","","","","","","","",""
"image-selector-fb","248","565830","0.0-41.27-0.27","null","pics2/FR4.jpg,pics2/SW4.jpg","","","","","","","false","null","","","noS.png","","",""
"image-slider-2AFC","249","568227","0.0-41.27-1.27","2394","","","","-51","","","","","","","","heartS.png","1868","-51",""
"html-keyboard-response","250","568936","0.0-41.27-2.27","null","","","","","","","null","","","","","","","",""
"image-selector-fb","251","571631","0.0-41.28-0.28","2190","pics2/FR1.jpg,pics2/SW3.jpg","","","","","","","false","0","","","heartS.png","","",""
"image-slider-2AFC","252","573243","0.0-41.28-1.28","1609","","","","-23","","","","","","","","heartS.png","752","-23",""
"html-keyboard-response","253","573998","0.0-41.28-2.28","null","","","","","","","null","","","","","","","",""
"image-selector-fb","254","576531","0.0-41.29-0.29","2023","pics2/FR5.jpg,pics2/SW4.jpg","","","","","","","false","0","","","sizeS.png","","",""
"image-slider-2AFC","255","581536","0.0-41.29-1.29","null","","","","null","","","","","","","","sizeS.png","","",""
"html-keyboard-response","256","582391","0.0-41.29-2.29","null","","","","","","","null","","","","","","","",""
"image-selector-fb","257","585399","0.0-41.30-0.30","null","pics2/FR2.jpg,pics2/SW1.jpg","","","","","","","false","null","","","noS.png","","",""
"image-slider-2AFC","258","587562","0.0-41.30-1.30","2159","","","","-44","","","","","","","","heartS.png","1679","-44",""
"html-keyboard-response","259","588421","0.0-41.30-2.30","null","","","","","","","null","","","","","","","",""
"image-selector-fb","260","591423","0.0-41.31-0.31","2497","pics2/VE1.jpg,pics2/FR4.jpg","","","","","","","true","1","","","heartS.png","","",""
"image-slider-2AFC","261","592722","0.0-41.31-1.31","1295","","","","29","","","","","","","","heartS.png","766","29",""
"html-keyboard-response","262","593525","0.0-41.31-2.31","null","","","","","","","null","","","","","","","",""
"image-selector-fb","263","596532","0.0-41.32-0.32","null","pics2/SW3.jpg,pics2/FR1.jpg","","","","","","","false","null","","","noS.png","","",""
"image-slider-2AFC","264","598424","0.0-41.32-1.32","1890","","","","17","","","","","","","","heartS.png","1510","17",""
"html-keyboard-response","265","599181","0.0-41.32-2.32","null","","","","","","","null","","","","","","","",""
"image-selector-fb","266","600937","0.0-41.33-0.33","1251","pics2/SW1.jpg,pics2/FR3.jpg","","","","","","","true","1","","","heartS.png","","",""
"image-slider-2AFC","267","603454","0.0-41.33-1.33","2514","","","","-61","","","","","","","","sizeS.png","1754","-61",""
"html-keyboard-response","268","604314","0.0-41.33-2.33","null","","","","","","","null","","","","","","","",""
"image-selector-fb","269","606789","0.0-41.34-0.34","1969","pics2/FR3.jpg,pics2/FR1.jpg","","","","","","","true","1","","","sizeS.png","","",""
"image-slider-2AFC","270","609337","0.0-41.34-1.34","2546","","","","-82","","","","","","","","heartS.png","1794","-82",""
"html-keyboard-response","271","610192","0.0-41.34-2.34","null","","","","","","","null","","","","","","","",""
"image-selector-fb","272","612373","0.0-41.35-0.35","1677","pics2/FR6.jpg,pics2/FR3.jpg","","","","","","","true","1","","","heartS.png","","",""
"image-slider-2AFC","273","614395","0.0-41.35-1.35","2021","","","","42","","","","","","","","sizeS.png","1523","42",""
"html-keyboard-response","274","615150","0.0-41.35-2.35","null","","","","","","","null","","","","","","","",""
"image-selector-fb","275","616887","0.0-41.36-0.36","1232","pics2/FR4.jpg,pics2/VE4.jpg","","","","","","","false","0","","","sizeS.png","","",""
"image-slider-2AFC","276","618852","0.0-41.36-1.36","1961","","","","-50","","","","","","","","heartS.png","1425","-50",""
"html-keyboard-response","277","619659","0.0-41.36-2.36","null","","","","","","","null","","","","","","","",""
"image-selector-fb","278","622234","0.0-41.37-0.37","2070","pics2/SW4.jpg,pics2/FR4.jpg","","","","","","","false","0","","","sizeS.png","","",""
"image-slider-2AFC","279","623694","0.0-41.37-1.37","1457","","","","-34","","","","","","","","sizeS.png","977","-34",""
"html-keyboard-response","280","624500","0.0-41.37-2.37","null","","","","","","","null","","","","","","","",""
"image-selector-fb","281","627508","0.0-41.38-0.38","null","pics2/FR1.jpg,pics2/VE1.jpg","","","","","","","false","null","","","noS.png","","",""
"image-slider-2AFC","282","630274","0.0-41.38-1.38","2764","","","","-45","","","","","","","","heartS.png","2179","-45",""
"html-keyboard-response","283","631128","0.0-41.38-2.38","null","","","","","","","null","","","","","","","",""
"image-selector-fb","284","633537","0.0-41.39-0.39","1900","pics2/FR5.jpg,pics2/FR3.jpg","","","","","","","true","1","","","heartS.png","","",""
"image-slider-2AFC","285","635590","0.0-41.39-1.39","2050","","","","77","","","","","","","","heartS.png","839","77",""
"html-keyboard-response","286","636344","0.0-41.39-2.39","null","","","","","","","null","","","","","","","",""
"image-selector-fb","287","637736","0.0-41.40-0.40","886","pics2/SW1.jpg,pics2/FR5.jpg","","","","","","","true","1","","","heartS.png","","",""
"image-slider-2AFC","288","639563","0.0-41.40-1.40","1825","","","","26","","","","","","","","heartS.png","1032","26",""
"html-keyboard-response","289","640324","0.0-41.40-2.40","null","","","","","","","null","","","","","","","",""
"image-selector-fb","290","642546","0.0-41.41-0.41","1714","pics2/FR5.jpg,pics2/SW1.jpg","","","","","","","true","1","","","sizeS.png","","",""
"image-slider-2AFC","291","644020","0.0-41.41-1.41","1471","","","","63","","","","","","","","sizeS.png","782","63",""
"html-keyboard-response","292","644824","0.0-41.41-2.41","null","","","","","","","null","","","","","","","",""
"image-selector-fb","293","647183","0.0-41.42-0.42","1854","pics2/SW5.jpg,pics2/VE1.jpg","","","","","","","true","1","","","heartS.png","","",""
"image-slider-2AFC","294","649021","0.0-41.42-1.42","1836","","","","25","","","","","","","","heartS.png","1106","25",""
"html-keyboard-response","295","649726","0.0-41.42-2.42","null","","","","","","","null","","","","","","","",""
"image-selector-fb","296","651546","0.0-41.43-0.43","1314","pics2/VE4.jpg,pics2/SW1.jpg","","","","","","","false","0","","","heartS.png","","",""
"image-slider-2AFC","297","654158","0.0-41.43-1.43","2609","","","","72","","","","","","","","sizeS.png","1994","72",""
"html-keyboard-response","298","654863","0.0-41.43-2.43","null","","","","","","","null","","","","","","","",""
"image-selector-fb","299","657875","0.0-41.44-0.44","null","pics2/SW3.jpg,pics2/SW1.jpg","","","","","","","false","null","","","noS.png","","",""
"image-slider-2AFC","300","660058","0.0-41.44-1.44","2180","","","","58","","","","","","","","sizeS.png","1461","58",""
"html-keyboard-response","301","660914","0.0-41.44-2.44","null","","","","","","","null","","","","","","","",""
"image-selector-fb","302","663962","0.0-41.45-0.45","2541","pics2/SW4.jpg,pics2/FR5.jpg","","","","","","","true","1","","","heartS.png","","",""
"image-slider-2AFC","303","665597","0.0-41.45-1.45","1631","","","","30","","","","","","","","heartS.png","1149","30",""
"html-keyboard-response","304","666450","0.0-41.45-2.45","null","","","","","","","null","","","","","","","",""
"image-selector-fb","305","668443","0.0-41.46-0.46","1486","pics2/FR1.jpg,pics2/SW5.jpg","","","","","","","false","0","","","sizeS.png","","",""
"image-slider-2AFC","306","670476","0.0-41.46-1.46","2030","","","","-35","","","","","","","","heartS.png","950,1078","-35,-35",""
"html-keyboard-response","307","671232","0.0-41.46-2.46","null","","","","","","","null","","","","","","","",""
"image-selector-fb","308","673795","0.0-41.47-0.47","2057","pics2/FR6.jpg,pics2/VE1.jpg","","","","","","","true","1","","","sizeS.png","","",""
"image-slider-2AFC","309","676041","0.0-41.47-1.47","2243","","","","5","","","","","","","","heartS.png","1891","5",""
"html-keyboard-response","310","676895","0.0-41.47-2.47","null","","","","","","","null","","","","","","","",""
"image-selector-fb","311","678650","0.0-41.48-0.48","1249","pics2/FR2.jpg,pics2/FR6.jpg","","","","","","","false","0","","","heartS.png","","",""
"image-slider-2AFC","312","680577","0.0-41.48-1.48","1924","","","","-44","","","","","","","","sizeS.png","1444","-44",""
"html-keyboard-response","313","681281","0.0-41.48-2.48","null","","","","","","","null","","","","","","","",""
"image-selector-fb","314","682832","0.0-41.49-0.49","1046","pics2/FR6.jpg,pics2/SW4.jpg","","","","","","","true","1","","","sizeS.png","","",""
"image-slider-2AFC","315","684517","0.0-41.49-1.49","1681","","","","21","","","","","","","","heartS.png","1281","21",""
"html-keyboard-response","316","685275","0.0-41.49-2.49","null","","","","","","","null","","","","","","","",""
"image-selector-fb","317","686826","0.0-41.50-0.50","1044","pics2/FR3.jpg,pics2/SW3.jpg","","","","","","","false","0","","","sizeS.png","","",""
"image-slider-2AFC","318","689093","0.0-41.50-1.50","2265","","","","-80","","","","","","","","sizeS.png","1176","-80",""
"html-keyboard-response","319","689847","0.0-41.50-2.50","null","","","","","","","null","","","","","","","",""
"image-selector-fb","320","691721","0.0-41.51-0.51","1371","pics2/FR1.jpg,pics2/FR2.jpg","","","","","","","true","1","","","sizeS.png","","",""
"image-slider-2AFC","321","693238","0.0-41.51-1.51","1516","","","","-50","","","","","","","","sizeS.png","1011","-50",""
"html-keyboard-response","322","693945","0.0-41.51-2.51","null","","","","","","","null","","","","","","","",""
"image-selector-fb","323","696325","0.0-41.52-0.52","1873","pics2/VE4.jpg,pics2/SW4.jpg","","","","","","","false","0","","","heartS.png","","",""
"image-slider-2AFC","324","698736","0.0-41.52-1.52","2408","","","","50","","","","","","","","sizeS.png","1638","50",""
"html-keyboard-response","325","699593","0.0-41.52-2.52","null","","","","","","","null","","","","","","","",""
"image-selector-fb","326","702603","0.0-41.53-0.53","null","pics2/SW3.jpg,pics2/FR4.jpg","","","","","","","false","null","","","noS.png","","",""
"image-slider-2AFC","327","705406","0.0-41.53-1.53","2800","","","","19","","","","","","","","heartS.png","2167","19",""
"html-keyboard-response","328","706259","0.0-41.53-2.53","null","","","","","","","null","","","","","","","",""
"image-selector-fb","329","709271","0.0-41.54-0.54","null","pics2/FR6.jpg,pics2/SW4.jpg","","","","","","","false","null","","","noS.png","","",""
"image-slider-2AFC","330","711291","0.0-41.54-1.54","2018","","","","-39","","","","","","","","heartS.png","1526","-39",""
"html-keyboard-response","331","712047","0.0-41.54-2.54","null","","","","","","","null","","","","","","","",""
"image-selector-fb","332","713736","0.0-41.55-0.55","1183","pics2/SW1.jpg,pics2/SW4.jpg","","","","","","","true","1","","","heartS.png","","",""
"image-slider-2AFC","333","714875","0.0-41.55-1.55","1136","","","","16","","","","","","","","heartS.png","663","16",""
"html-keyboard-response","334","715628","0.0-41.55-2.55","null","","","","","","","null","","","","","","","",""
"image-selector-fb","335","718635","0.0-41.56-0.56","null","pics2/VE4.jpg,pics2/SW5.jpg","","","","","","","false","null","","","noS.png","","",""
"image-slider-2AFC","336","720902","0.0-41.56-1.56","2264","","","","19","","","","","","","","sizeS.png","1874","19",""
"html-keyboard-response","337","721609","0.0-41.56-2.56","null","","","","","","","null","","","","","","","",""
"image-selector-fb","338","723996","0.0-41.57-0.57","1879","pics2/SW3.jpg,pics2/SW4.jpg","","","","","","","false","0","","","heartS.png","","",""
"image-slider-2AFC","339","726287","0.0-41.57-1.57","2289","","","","-44","","","","","","","","sizeS.png","1737","-44",""
"html-keyboard-response","340","727094","0.0-41.57-2.57","null","","","","","","","null","","","","","","","",""
"image-selector-fb","341","731441","0.0-41.58-0.58","3842","pics2/SW4.jpg,pics2/SW1.jpg","","","","","","","true","1","","","sizeS.png","","",""
"image-slider-2AFC","342","732895","0.0-41.58-1.58","1450","","","","-22","","","","","","","","heartS.png","1099","-22",""
"html-keyboard-response","343","733648","0.0-41.58-2.58","null","","","","","","","null","","","","","","","",""
"image-selector-fb","344","736048","0.0-41.59-0.59","1894","pics2/FR4.jpg,pics2/FR1.jpg","","","","","","","true","1","","","sizeS.png","","",""
"image-slider-2AFC","345","738168","0.0-41.59-1.59","2118","","","","-13","","","","","","","","heartS.png","1775","-13",""
"html-keyboard-response","346","739027","0.0-41.59-2.59","null","","","","","","","null","","","","","","","",""
"image-selector-fb","347","742033","0.0-41.60-0.60","null","pics2/SW3.jpg,pics2/FR2.jpg","","","","","","","false","null","","","noS.png","","",""
"image-slider-2AFC","348","744365","0.0-41.60-1.60","2329","","","","19","","","","","","","","sizeS.png","1872","19",""
"html-keyboard-response","349","745175","0.0-41.60-2.60","null","","","","","","","null","","","","","","","",""
"image-selector-fb","350","748185","0.0-41.61-0.61","null","pics2/FR1.jpg,pics2/SW1.jpg","","","","","","","false","null","","","noS.png","","",""
"image-slider-2AFC","351","749937","0.0-41.61-1.61","1749","","","","-25","","","","","","","","sizeS.png","1318","-25",""
"html-keyboard-response","352","750745","0.0-41.61-2.61","null","","","","","","","null","","","","","","","",""
"image-selector-fb","353","753754","0.0-41.62-0.62","null","pics2/SW3.jpg,pics2/VE1.jpg","","","","","","","false","null","","","noS.png","","",""
"image-slider-2AFC","354","755708","0.0-41.62-1.62","1950","","","","-21","","","","","","","","heartS.png","1582","-21",""
"html-keyboard-response","355","756460","0.0-41.62-2.62","null","","","","","","","null","","","","","","","",""
"image-selector-fb","356","760736","0.0-41.63-0.63","3767","pics2/FR4.jpg,pics2/SW5.jpg","","","","","","","false","0","","","sizeS.png","","",""
"image-slider-2AFC","357","761848","0.0-41.63-1.63","1109","","","","-16","","","","","","","","sizeS.png","711","-16",""
"html-keyboard-response","358","762653","0.0-41.63-2.63","null","","","","","","","null","","","","","","","",""
"image-selector-fb","359","765665","0.0-41.64-0.64","null","pics2/FR3.jpg,pics2/FR4.jpg","","","","","","","false","null","","","noS.png","","",""
"image-slider-2AFC","360","767333","0.0-41.64-1.64","1666","","","","-27","","","","","","","","heartS.png","1185","-27",""
"html-keyboard-response","361","768041","0.0-41.64-2.64","null","","","","","","","null","","","","","","","",""
"image-selector-fb","362","771628","0.0-41.65-0.65","3082","pics2/FR2.jpg,pics2/SW3.jpg","","","","","","","false","0","","","heartS.png","","",""
"image-slider-2AFC","363","773946","0.0-41.65-1.65","2316","","","","-3","","","","","","","","heartS.png","1908","-3",""
"html-keyboard-response","364","774803","0.0-41.65-2.65","null","","","","","","","null","","","","","","","",""
"pavlovia","365","774822","0.0-42.0","","","","","","","","","","","","","","","",""
"html-keyboard-response","366","779825","0.0-43.0","null","<div style='width: 700px;'> <font size=6><b>SHORT BREAK</font></b><br><br><i> Please wait 5 seconds to continue</i></div> ","","","","","","null","","","","","","","",""
"pavlovia","367","779827","0.0-44.0","","","","","","","","","","","","","","","",""
"html-button-response","368","790375","0.0-45.0","10547","<div style='width: 700px;'> <font size=6><b>BLOCK 2</font></b><br><br>Press the button whenever you feel ready to start the second block (there are 3 in total)</div>","0","","","","","","","","","","","","",""
"image-selector-fb","369","793382","0.0-46.0-0.0","null","pics2/SW3.jpg,pics2/SW5.jpg","","","","","","","false","null","","","noS.png","","",""
"image-slider-2AFC","370","795039","0.0-46.0-1.0","1655","","","","-10","","","","","","","","sizeS.png","1319","-10",""
"html-keyboard-response","371","795746","0.0-46.0-2.0","null","","","","","","","null","","","","","","","",""
"image-selector-fb","372","797442","0.0-46.1-0.1","1192","pics2/VE1.jpg,pics2/SW4.jpg","","","","","","","false","0","","","heartS.png","","",""
"image-slider-2AFC","373","798582","0.0-46.1-1.1","1136","","","","-38","","","","","","","","sizeS.png","761","-38",""
"html-keyboard-response","374","799441","0.0-46.1-2.1","null","","","","","","","null","","","","","","","",""
"image-selector-fb","375","800997","0.0-46.2-0.2","1049","pics2/FR6.jpg,pics2/SW1.jpg","","","","","","","true","1","","","sizeS.png","","",""
"image-slider-2AFC","376","803086","0.0-46.2-1.2","2088","","","","-16","","","","","","","","heartS.png","1417","-16",""
"html-keyboard-response","377","803890","0.0-46.2-2.2","null","","","","","","","null","","","","","","","",""
"image-selector-fb","378","805596","0.0-46.3-0.3","1200","pics2/FR2.jpg,pics2/FR3.jpg","","","","","","","true","1","","","heartS.png","","",""
"image-slider-2AFC","379","807448","0.0-46.3-1.3","1850","","","","-23","","","","","","","","sizeS.png","1312","-23",""
"html-keyboard-response","380","808304","0.0-46.3-2.3","null","","","","","","","null","","","","","","","",""
"image-selector-fb","381","811313","0.0-46.4-0.4","null","pics2/FR5.jpg,pics2/FR6.jpg","","","","","","","false","null","","","noS.png","","",""
"image-slider-2AFC","382","813195","0.0-46.4-1.4","1879","","","","-25","","","","","","","","heartS.png","1359","-25",""
"html-keyboard-response","383","814049","0.0-46.4-2.4","null","","","","","","","null","","","","","","","",""
"image-selector-fb","384","816548","0.0-46.5-0.5","1990","pics2/FR2.jpg,pics2/SW1.jpg","","","","","","","false","0","","","heartS.png","","",""
"image-slider-2AFC","385","818625","0.0-46.5-1.5","2074","","","","-46","","","","","","","","heartS.png","1493","-46",""
"html-keyboard-response","386","819382","0.0-46.5-2.5","null","","","","","","","null","","","","","","","",""
"image-selector-fb","387","822598","0.0-46.6-0.6","2711","pics2/VE1.jpg,pics2/SW5.jpg","","","","","","","false","0","","","sizeS.png","","",""
"image-slider-2AFC","388","824560","0.0-46.6-1.6","1959","","","","-7","","","","","","","","sizeS.png","1607","-7",""
"html-keyboard-response","389","825320","0.0-46.6-2.6","null","","","","","","","null","","","","","","","",""
"image-selector-fb","390","827485","0.0-46.7-0.7","1660","pics2/SW1.jpg,pics2/FR4.jpg","","","","","","","true","1","","","heartS.png","","",""
"image-slider-2AFC","391","830620","0.0-46.7-1.7","3133","","","","-72","","","","","","","","sizeS.png","1963","-72",""
"html-keyboard-response","392","831323","0.0-46.7-2.7","null","","","","","","","null","","","","","","","",""
"image-selector-fb","393","833032","0.0-46.8-0.8","1203","pics2/SW3.jpg,pics2/FR4.jpg","","","","","","","true","1","","","heartS.png","","",""
"image-slider-2AFC","394","834428","0.0-46.8-1.8","1393","","","","23","","","","","","","","heartS.png","944","23",""
"html-keyboard-response","395","835281","0.0-46.8-2.8","null","","","","","","","null","","","","","","","",""
"image-selector-fb","396","838289","0.0-46.9-0.9","null","pics2/SW3.jpg,pics2/SW4.jpg","","","","","","","false","null","","","noS.png","","",""
"image-slider-2AFC","397","840262","0.0-46.9-1.9","1970","","","","-19","","","","","","","","sizeS.png","1553","-19",""
"html-keyboard-response","398","841016","0.0-46.9-2.9","null","","","","","","","null","","","","","","","",""
"image-selector-fb","399","843083","0.0-46.10-0.10","1559","pics2/SW4.jpg,pics2/FR2.jpg","","","","","","","true","1","","","sizeS.png","","",""
"image-slider-2AFC","400","844661","0.0-46.10-1.10","1576","","","","-5","","","","","","","","sizeS.png","1216","-5",""
"html-keyboard-response","401","845415","0.0-46.10-2.10","null","","","","","","","null","","","","","","","",""
"image-selector-fb","402","848137","0.0-46.11-0.11","2214","pics2/SW5.jpg,pics2/SW1.jpg","","","","","","","true","1","","","heartS.png","","",""
"image-slider-2AFC","403","850101","0.0-46.11-1.11","1961","","","","8","","","","","","","","heartS.png","1313","8",""
"html-keyboard-response","404","850857","0.0-46.11-2.11","null","","","","","","","null","","","","","","","",""
"image-selector-fb","405","853390","0.0-46.12-0.12","2026","pics2/FR5.jpg,pics2/FR4.jpg","","","","","","","false","0","","","sizeS.png","","",""
"image-slider-2AFC","406","854945","0.0-46.12-1.12","1552","","","","-8","","","","","","","","heartS.png","1184","-8",""
"html-keyboard-response","407","855703","0.0-46.12-2.12","null","","","","","","","null","","","","","","","",""
"image-selector-fb","408","858713","0.0-46.13-0.13","null","pics2/FR3.jpg,pics2/FR5.jpg","","","","","","","false","null","","","noS.png","","",""
"image-slider-2AFC","409","860645","0.0-46.13-1.13","1930","","","","-33","","","","","","","","sizeS.png","1425","-33",""
"html-keyboard-response","410","861402","0.0-46.13-2.13","null","","","","","","","null","","","","","","","",""
"image-selector-fb","411","863349","0.0-46.14-0.14","1443","pics2/SW4.jpg,pics2/SW3.jpg","","","","","","","true","1","","","sizeS.png","","",""
"image-slider-2AFC","412","864879","0.0-46.14-1.14","1527","","","","-4","","","","","","","","heartS.png","1207","-4",""
"html-keyboard-response","413","865733","0.0-46.14-2.14","null","","","","","","","null","","","","","","","",""
"image-selector-fb","414","868502","0.0-46.15-0.15","2262","pics2/SW1.jpg,pics2/VE4.jpg","","","","","","","false","0","","","sizeS.png","","",""
"image-slider-2AFC","415","869825","0.0-46.15-1.15","1320","","","","-33","","","","","","","","sizeS.png","887","-33",""
"html-keyboard-response","416","870583","0.0-46.15-2.15","null","","","","","","","null","","","","","","","",""
"image-selector-fb","417","873594","0.0-46.16-0.16","null","pics2/SW3.jpg,pics2/VE4.jpg","","","","","","","false","null","","","noS.png","","",""
"image-slider-2AFC","418","875227","0.0-46.16-1.16","1630","","","","14","","","","","","","","heartS.png","1286","14",""
"html-keyboard-response","419","876029","0.0-46.16-2.16","null","","","","","","","null","","","","","","","",""
"image-selector-fb","420","878089","0.0-46.17-0.17","1553","pics2/FR5.jpg,pics2/SW3.jpg","","","","","","","true","1","","","sizeS.png","","",""
"image-slider-2AFC","421","880036","0.0-46.17-1.17","1945","","","","51","","","","","","","","sizeS.png","1218","51",""
"html-keyboard-response","422","880791","0.0-46.17-2.17","null","","","","","","","null","","","","","","","",""
"image-selector-fb","423","883801","0.0-46.18-0.18","null","pics2/VE4.jpg,pics2/FR5.jpg","","","","","","","false","null","","","noS.png","","",""
"image-slider-2AFC","424","886105","0.0-46.18-1.18","2303","","","","23","","","","","","","","sizeS.png","1863","23",""
"html-keyboard-response","425","886910","0.0-46.18-2.18","null","","","","","","","null","","","","","","","",""
"image-selector-fb","426","888844","0.0-46.19-0.19","1424","pics2/FR4.jpg,pics2/FR6.jpg","","","","","","","false","0","","","heartS.png","","",""
"image-slider-2AFC","427","890618","0.0-46.19-1.19","1772","","","","-31","","","","","","","","heartS.png","1251","-31",""
"html-keyboard-response","428","891320","0.0-46.19-2.19","null","","","","","","","null","","","","","","","",""
"image-selector-fb","429","892865","0.0-46.20-0.20","1042","pics2/FR1.jpg,pics2/FR3.jpg","","","","","","","true","1","","","heartS.png","","",""
"image-slider-2AFC","430","895139","0.0-46.20-1.20","2271","","","","3","","","","","","","","sizeS.png","1936","3",""
"html-keyboard-response","431","895845","0.0-46.20-2.20","null","","","","","","","null","","","","","","","",""
"image-selector-fb","432","897495","0.0-46.21-0.21","1145","pics2/SW1.jpg,pics2/VE1.jpg","","","","","","","false","0","","","sizeS.png","","",""
"image-slider-2AFC","433","899539","0.0-46.21-1.21","2042","","","","8","","","","","","","","heartS.png","1690","8",""
"html-keyboard-response","434","900393","0.0-46.21-2.21","null","","","","","","","null","","","","","","","",""
"image-selector-fb","435","901875","0.0-46.22-0.22","974","pics2/VE1.jpg,pics2/FR3.jpg","","","","","","","true","1","","","heartS.png","","",""
"image-slider-2AFC","436","903967","0.0-46.22-1.22","2091","","","","100","","","","","","","","heartS.png","1265","100",""
"html-keyboard-response","437","904674","0.0-46.22-2.22","null","","","","","","","null","","","","","","","",""
"image-selector-fb","438","907681","0.0-46.23-0.23","null","pics2/FR2.jpg,pics2/FR5.jpg","","","","","","","false","null","","","noS.png","","",""
"image-slider-2AFC","439","910167","0.0-46.23-1.23","2483","","","","4","","","","","","","","heartS.png","2171","4",""
"html-keyboard-response","440","911020","0.0-46.23-2.23","null","","","","","","","null","","","","","","","",""
"image-selector-fb","441","912788","0.0-46.24-0.24","1264","pics2/FR5.jpg,pics2/VE1.jpg","","","","","","","true","1","","","sizeS.png","","",""
"image-slider-2AFC","442","914567","0.0-46.24-1.24","1776","","","","15","","","","","","","","sizeS.png","1417","15",""
"html-keyboard-response","443","915423","0.0-46.24-2.24","null","","","","","","","null","","","","","","","",""
"image-selector-fb","444","917267","0.0-46.25-0.25","1339","pics2/SW5.jpg,pics2/SW4.jpg","","","","","","","true","1","","","heartS.png","","",""
"image-slider-2AFC","445","918699","0.0-46.25-1.25","1429","","","","11","","","","","","","","heartS.png","997","11",""
"html-keyboard-response","446","919404","0.0-46.25-2.25","null","","","","","","","null","","","","","","","",""
"image-selector-fb","447","921173","0.0-46.26-0.26","1261","pics2/FR2.jpg,pics2/SW4.jpg","","","","","","","false","0","","","heartS.png","","",""
"image-slider-2AFC","448","922579","0.0-46.26-1.26","1404","","","","-13","","","","","","","","heartS.png","1003","-13",""
"html-keyboard-response","449","923334","0.0-46.26-2.26","null","","","","","","","null","","","","","","","",""
"image-selector-fb","450","926343","0.0-46.27-0.27","null","pics2/FR4.jpg,pics2/SW1.jpg","","","","","","","false","null","","","noS.png","","",""
"image-slider-2AFC","451","928738","0.0-46.27-1.27","2393","","","","-21","","","","","","","","heartS.png","1948","-21",""
"html-keyboard-response","452","929492","0.0-46.27-2.27","null","","","","","","","null","","","","","","","",""
"image-selector-fb","453","932500","0.0-46.28-0.28","null","pics2/FR4.jpg,pics2/FR6.jpg","","","","","","","false","null","","","noS.png","","",""
"image-slider-2AFC","454","935014","0.0-46.28-1.28","2511","","","","-19","","","","","","","","sizeS.png","2021","-19",""
"html-keyboard-response","455","935718","0.0-46.28-2.28","null","","","","","","","null","","","","","","","",""
"image-selector-fb","456","938722","0.0-46.29-0.29","null","pics2/SW1.jpg,pics2/SW5.jpg","","","","","","","false","null","","","noS.png","","",""
"image-slider-2AFC","457","940890","0.0-46.29-1.29","2162","","","","-20","","","","","","","","sizeS.png","1762","-20",""
"html-keyboard-response","458","941741","0.0-46.29-2.29","null","","","","","","","null","","","","","","","",""
"image-selector-fb","459","944369","0.0-46.30-0.30","2125","pics2/FR3.jpg,pics2/SW4.jpg","","","","","","","false","0","","","sizeS.png","","",""
"image-slider-2AFC","460","945832","0.0-46.30-1.30","1461","","","","-6","","","","","","","","sizeS.png","1085","-6",""
"html-keyboard-response","461","946686","0.0-46.30-2.30","null","","","","","","","null","","","","","","","",""
"image-selector-fb","462","948523","0.0-46.31-0.31","1333","pics2/FR2.jpg,pics2/VE1.jpg","","","","","","","true","1","","","heartS.png","","",""
"image-slider-2AFC","463","950472","0.0-46.31-1.31","1947","","","","-33","","","","","","","","heartS.png","1450","-33",""
"html-keyboard-response","464","951325","0.0-46.31-2.31","null","","","","","","","null","","","","","","","",""
"image-selector-fb","465","954334","0.0-46.32-0.32","null","pics2/FR3.jpg,pics2/SW5.jpg","","","","","","","false","null","","","noS.png","","",""
"image-slider-2AFC","466","957938","0.0-46.32-1.32","3602","","","","-48","","","","","","","","sizeS.png","3033","-48",""
"html-keyboard-response","467","958644","0.0-46.32-2.32","null","","","","","","","null","","","","","","","",""
"image-selector-fb","468","961652","0.0-46.33-0.33","null","pics2/SW4.jpg,pics2/VE1.jpg","","","","","","","false","null","","","noS.png","","",""
"image-slider-2AFC","469","963960","0.0-46.33-1.33","2306","","","","24","","","","","","","","sizeS.png","1817","24",""
"html-keyboard-response","470","964712","0.0-46.33-2.33","null","","","","","","","null","","","","","","","",""
"image-selector-fb","471","967722","0.0-46.34-0.34","null","pics2/FR4.jpg,pics2/FR2.jpg","","","","","","","false","null","","","noS.png","","",""
"image-slider-2AFC","472","969281","0.0-46.34-1.34","1558","","","","-27","","","","","","","","heartS.png","1077","-27",""
"html-keyboard-response","473","970087","0.0-46.34-2.34","null","","","","","","","null","","","","","","","",""
"image-selector-fb","474","972164","0.0-46.35-0.35","1574","pics2/SW5.jpg,pics2/FR6.jpg","","","","","","","true","1","","","heartS.png","","",""
"image-slider-2AFC","475","975173","0.0-46.35-1.35","3007","","","","13","","","","","","","","sizeS.png","2566","13",""
"html-keyboard-response","476","975933","0.0-46.35-2.35","null","","","","","","","null","","","","","","","",""
"image-selector-fb","477","978940","0.0-46.36-0.36","null","pics2/FR6.jpg,pics2/SW1.jpg","","","","","","","false","null","","","noS.png","","",""
"image-slider-2AFC","478","981106","0.0-46.36-1.36","2164","","","","-5","","","","","","","","heartS.png","1844","-5",""
"html-keyboard-response","479","981964","0.0-46.36-2.36","null","","","","","","","null","","","","","","","",""
"image-selector-fb","480","984425","0.0-46.37-0.37","1957","pics2/SW5.jpg,pics2/VE4.jpg","","","","","","","true","1","","","heartS.png","","",""
"image-slider-2AFC","481","986346","0.0-46.37-1.37","1919","","","","-25","","","","","","","","sizeS.png","1503","-25",""
"html-keyboard-response","482","987198","0.0-46.37-2.37","null","","","","","","","null","","","","","","","",""
"image-selector-fb","483","990202","0.0-46.38-0.38","null","pics2/FR3.jpg,pics2/VE4.jpg","","","","","","","false","null","","","noS.png","","",""
"image-slider-2AFC","484","993011","0.0-46.38-1.38","2806","","","","-69","","","","","","","","heartS.png","2222","-69",""
"html-keyboard-response","485","993763","0.0-46.38-2.38","null","","","","","","","null","","","","","","","",""
"image-selector-fb","486","995664","0.0-46.39-0.39","1395","pics2/VE4.jpg,pics2/FR1.jpg","","","","","","","true","1","","","heartS.png","","",""
"image-slider-2AFC","487","998003","0.0-46.39-1.39","2337","","","","-21","","","","","","","","heartS.png","1921","-21",""
"html-keyboard-response","488","998756","0.0-46.39-2.39","null","","","","","","","null","","","","","","","",""
"image-selector-fb","489","1000353","0.0-46.40-0.40","1090","pics2/SW5.jpg,pics2/FR3.jpg","","","","","","","true","1","","","heartS.png","","",""
"image-slider-2AFC","490","1002403","0.0-46.40-1.40","2049","","","","8","","","","","","","","sizeS.png","1721","8",""
"html-keyboard-response","491","1003162","0.0-46.40-2.40","null","","","","","","","null","","","","","","","",""
"image-selector-fb","492","1004976","0.0-46.41-0.41","1308","pics2/SW3.jpg,pics2/SW5.jpg","","","","","","","false","0","","","sizeS.png","","",""
"image-slider-2AFC","493","1006746","0.0-46.41-1.41","1768","","","","-43","","","","","","","","sizeS.png","1281","-43",""
"html-keyboard-response","494","1007598","0.0-46.41-2.41","null","","","","","","","null","","","","","","","",""
"image-selector-fb","495","1009813","0.0-46.42-0.42","1707","pics2/FR4.jpg,pics2/FR2.jpg","","","","","","","false","0","","","sizeS.png","","",""
"image-slider-2AFC","496","1011514","0.0-46.42-1.42","1698","","","","8","","","","","","","","heartS.png","1329","8",""
"html-keyboard-response","497","1012219","0.0-46.42-2.42","null","","","","","","","null","","","","","","","",""
"image-selector-fb","498","1015225","0.0-46.43-0.43","null","pics2/FR1.jpg,pics2/SW5.jpg","","","","","","","false","null","","","noS.png","","",""
"image-slider-2AFC","499","1017300","0.0-46.43-1.43","2074","","","","-36","","","","","","","","sizeS.png","1584","-36",""
"html-keyboard-response","500","1018004","0.0-46.43-2.43","null","","","","","","","null","","","","","","","",""
"image-selector-fb","501","1020154","0.0-46.44-0.44","1645","pics2/FR5.jpg,pics2/FR2.jpg","","","","","","","false","0","","","sizeS.png","","",""
"image-slider-2AFC","502","1021404","0.0-46.44-1.44","1249","","","","-5","","","","","","","","heartS.png","921","-5",""
"html-keyboard-response","503","1022111","0.0-46.44-2.44","null","","","","","","","null","","","","","","","",""
"image-selector-fb","504","1025837","0.0-46.45-0.45","3223","pics2/SW3.jpg,pics2/FR1.jpg","","","","","","","false","0","","","sizeS.png","","",""
"image-slider-2AFC","505","1028014","0.0-46.45-1.45","2175","","","","-8","","","","","","","","heartS.png","1174","-8",""
"html-keyboard-response","506","1028768","0.0-46.45-2.45","null","","","","","","","null","","","","","","","",""
"image-selector-fb","507","1030534","0.0-46.46-0.46","1262","pics2/FR3.jpg,pics2/FR4.jpg","","","","","","","false","0","","","sizeS.png","","",""
"image-slider-2AFC","508","1033463","0.0-46.46-1.46","2926","","","","-86","","","","","","","","heartS.png","902,2262","-4,-86",""
"html-keyboard-response","509","1034315","0.0-46.46-2.46","null","","","","","","","null","","","","","","","",""
"image-selector-fb","510","1035690","0.0-46.47-0.47","871","pics2/FR6.jpg,pics2/FR4.jpg","","","","","","","true","1","","","sizeS.png","","",""
"image-slider-2AFC","511","1037494","0.0-46.47-1.47","1803","","","","42","","","","","","","","sizeS.png","1236","42",""
"html-keyboard-response","512","1038196","0.0-46.47-2.47","null","","","","","","","null","","","","","","","",""
"image-selector-fb","513","1041204","0.0-46.48-0.48","null","pics2/FR2.jpg,pics2/VE4.jpg","","","","","","","false","null","","","noS.png","","",""
"image-slider-2AFC","514","1043365","0.0-46.48-1.48","2160","","","","-30","","","","","","","","sizeS.png","1535","-30",""
"html-keyboard-response","515","1044070","0.0-46.48-2.48","null","","","","","","","null","","","","","","","",""
"image-selector-fb","516","1046254","0.0-46.49-0.49","1680","pics2/FR6.jpg,pics2/FR5.jpg","","","","","","","true","1","","","heartS.png","","",""
"image-slider-2AFC","517","1047854","0.0-46.49-1.49","1598","","","","13","","","","","","","","heartS.png","950","13",""
"html-keyboard-response","518","1048556","0.0-46.49-2.49","null","","","","","","","null","","","","","","","",""
"image-selector-fb","519","1051566","0.0-46.50-0.50","null","pics2/FR5.jpg,pics2/FR1.jpg","","","","","","","false","null","","","noS.png","","",""
"image-slider-2AFC","520","1054041","0.0-46.50-1.50","2473","","","","-11","","","","","","","","heartS.png","1639","-11",""
"html-keyboard-response","521","1054796","0.0-46.50-2.50","null","","","","","","","null","","","","","","","",""
"image-selector-fb","522","1056989","0.0-46.51-0.51","1690","pics2/SW3.jpg,pics2/VE4.jpg","","","","","","","false","0","","","sizeS.png","","",""
"image-slider-2AFC","523","1058392","0.0-46.51-1.51","1402","","","","13","","","","","","","","heartS.png","834","13",""
"html-keyboard-response","524","1059096","0.0-46.51-2.51","null","","","","","","","null","","","","","","","",""
"image-selector-fb","525","1061021","0.0-46.52-0.52","1422","pics2/FR4.jpg,pics2/SW4.jpg","","","","","","","false","0","","","heartS.png","","",""
"image-slider-2AFC","526","1062560","0.0-46.52-1.52","1538","","","","-41","","","","","","","","sizeS.png","938","-41",""
"html-keyboard-response","527","1063413","0.0-46.52-2.52","null","","","","","","","null","","","","","","","",""
"image-selector-fb","528","1066420","0.0-46.53-0.53","null","pics2/FR3.jpg,pics2/FR6.jpg","","","","","","","false","null","","","noS.png","","",""
"image-slider-2AFC","529","1068798","0.0-46.53-1.53","2376","","","","-45","","","","","","","","heartS.png","1425","-45",""
"html-keyboard-response","530","1069554","0.0-46.53-2.53","null","","","","","","","null","","","","","","","",""
"image-selector-fb","531","1071231","0.0-46.54-0.54","1173","pics2/VE4.jpg,pics2/FR2.jpg","","","","","","","true","1","","","sizeS.png","","",""
"image-slider-2AFC","532","1072598","0.0-46.54-1.54","1365","","","","18","","","","","","","","heartS.png","869","18",""
"html-keyboard-response","533","1073352","0.0-46.54-2.54","null","","","","","","","null","","","","","","","",""
"image-selector-fb","534","1076357","0.0-46.55-0.55","null","pics2/SW1.jpg,pics2/VE1.jpg","","","","","","","false","null","","","noS.png","","",""
"image-slider-2AFC","535","1078303","0.0-46.55-1.55","1944","","","","-16","","","","","","","","heartS.png","1089","-16",""
"html-keyboard-response","536","1079005","0.0-46.55-2.55","null","","","","","","","null","","","","","","","",""
"image-selector-fb","537","1082518","0.0-46.56-0.56","3010","pics2/VE1.jpg,pics2/FR2.jpg","","","","","","","false","0","","","sizeS.png","","",""
"image-slider-2AFC","538","1087157","0.0-46.56-1.56","4637","","","","18","","","","","","","","heartS.png","3632","18",""
"html-keyboard-response","539","1087962","0.0-46.56-2.56","null","","","","","","","null","","","","","","","",""
"image-selector-fb","540","1089427","0.0-46.57-0.57","960","pics2/FR6.jpg,pics2/FR2.jpg","","","","","","","true","1","","","sizeS.png","","",""
"image-slider-2AFC","541","1090967","0.0-46.57-1.57","1538","","","","9","","","","","","","","sizeS.png","1018","9",""
"html-keyboard-response","542","1091822","0.0-46.57-2.57","null","","","","","","","null","","","","","","","",""
"image-selector-fb","543","1094019","0.0-46.58-0.58","1693","pics2/FR1.jpg,pics2/VE1.jpg","","","","","","","false","0","","","sizeS.png","","",""
"image-slider-2AFC","544","1095874","0.0-46.58-1.58","1853","","","","-13","","","","","","","","heartS.png","1326","-13",""
"html-keyboard-response","545","1096726","0.0-46.58-2.58","null","","","","","","","null","","","","","","","",""
"image-selector-fb","546","1098201","0.0-46.59-0.59","972","pics2/FR2.jpg,pics2/FR5.jpg","","","","","","","false","0","","","heartS.png","","",""
"image-slider-2AFC","547","1100627","0.0-46.59-1.59","2423","","","","-29","","","","","","","","heartS.png","1599","-29",""
"html-keyboard-response","548","1101479","0.0-46.59-2.59","null","","","","","","","null","","","","","","","",""
"image-selector-fb","549","1104033","0.0-46.60-0.60","2049","pics2/VE1.jpg,pics2/SW1.jpg","","","","","","","true","1","","","heartS.png","","",""
"image-slider-2AFC","550","1106549","0.0-46.60-1.60","2513","","","","34","","","","","","","","sizeS.png","1088,1657","-8,34",""
"html-keyboard-response","551","1107301","0.0-46.60-2.60","null","","","","","","","null","","","","","","","",""
"image-selector-fb","552","1111814","0.0-46.61-0.61","null","pics2/SW5.jpg,pics2/SW3.jpg","","","","","","","false","null","","","heartS.png","","",""
"image-slider-2AFC","553","1111815","0.0-46.61-1.61","null","","","","null","","","","","","","","heartS.png","","",""
"html-keyboard-response","554","1112622","0.0-46.61-2.61","null","","","","","","","null","","","","","","","",""
"image-selector-fb","555","1114145","0.0-46.62-0.62","1015","pics2/FR3.jpg,pics2/FR5.jpg","","","","","","","false","0","","","sizeS.png","","",""
"image-slider-2AFC","556","1116983","0.0-46.62-1.62","2836","","","","-55","","","","","","","","sizeS.png","1836","-55",""
"html-keyboard-response","557","1117838","0.0-46.62-2.62","null","","","","","","","null","","","","","","","",""
"image-selector-fb","558","1119295","0.0-46.63-0.63","954","pics2/FR3.jpg,pics2/VE4.jpg","","","","","","","false","0","","","sizeS.png","","",""
"image-slider-2AFC","559","1121799","0.0-46.63-1.63","2502","","","","-19","","","","","","","","heartS.png","1317","-19",""
"html-keyboard-response","560","1122554","0.0-46.63-2.63","null","","","","","","","null","","","","","","","",""
"image-selector-fb","561","1127056","0.0-46.64-0.64","null","pics2/FR1.jpg,pics2/FR6.jpg","","","","","","","false","null","","","heartS.png","","",""
"image-slider-2AFC","562","1127057","0.0-46.64-1.64","null","","","","null","","","","","","","","sizeS.png","","",""
"html-keyboard-response","563","1127863","0.0-46.64-2.64","null","","","","","","","null","","","","","","","",""
"image-selector-fb","564","1130511","0.0-46.65-0.65","2142","pics2/VE4.jpg,pics2/FR5.jpg","","","","","","","true","1","","","heartS.png","","",""
"image-slider-2AFC","565","1133031","0.0-46.65-1.65","2518","","","","-16","","","","","","","","sizeS.png","2014","-16",""
"html-keyboard-response","566","1133887","0.0-46.65-2.65","null","","","","","","","null","","","","","","","",""
"pavlovia","567","1133909","0.0-47.0","","","","","","","","","","","","","","","",""
"html-keyboard-response","568","1138912","0.0-48.0","null","<div style='width: 700px;'> <font size=6><b>SHORT BREAK</font></b><br><br><i> Please wait 5 seconds to continue</i></div> ","","","","","","null","","","","","","","",""
"pavlovia","569","1138914","0.0-49.0","","","","","","","","","","","","","","","",""
"html-button-response","570","1291048","0.0-50.0","152132","<div style='width: 700px;'> <font size=6><b>BLOCK 3</font></b><br><br>Press the button whenever you feel ready to start the third and final block</div>","0","","","","","","","","","","","","",""
"image-selector-fb","571","1292492","0.0-51.0-0.0","932","pics2/SW1.jpg,pics2/FR1.jpg","","","","","","","false","0","","","heartS.png","","",""
"image-slider-2AFC","572","1294003","0.0-51.0-1.0","1508","","","","-8","","","","","","","","sizeS.png","1038","-8",""
"html-keyboard-response","573","1294855","0.0-51.0-2.0","null","","","","","","","null","","","","","","","",""
"image-selector-fb","574","1297866","0.0-51.1-0.1","null","pics2/FR6.jpg,pics2/SW5.jpg","","","","","","","false","null","","","noS.png","","",""
"image-slider-2AFC","575","1299676","0.0-51.1-1.1","1807","","","","8","","","","","","","","heartS.png","1353","8",""
"html-keyboard-response","576","1300479","0.0-51.1-2.1","null","","","","","","","null","","","","","","","",""
"image-selector-fb","577","1303489","0.0-51.2-0.2","null","pics2/VE4.jpg,pics2/FR6.jpg","","","","","","","false","null","","","noS.png","","",""
"image-slider-2AFC","578","1306372","0.0-51.2-1.2","2880","","","","-32","","","","","","","","heartS.png","2330","-32",""
"html-keyboard-response","579","1307228","0.0-51.2-2.2","null","","","","","","","null","","","","","","","",""
"image-selector-fb","580","1310237","0.0-51.3-0.3","null","pics2/VE4.jpg,pics2/FR1.jpg","","","","","","","false","null","","","noS.png","","",""
"image-slider-2AFC","581","1312143","0.0-51.3-1.3","1904","","","","-35","","","","","","","","heartS.png","1234","-35",""
"html-keyboard-response","582","1312850","0.0-51.3-2.3","null","","","","","","","null","","","","","","","",""
"image-selector-fb","583","1316036","0.0-51.4-0.4","2681","pics2/FR3.jpg,pics2/SW1.jpg","","","","","","","true","1","","","sizeS.png","","",""
"image-slider-2AFC","584","1317205","0.0-51.4-1.4","1166","","","","17","","","","","","","","sizeS.png","710","17",""
"html-keyboard-response","585","1317962","0.0-51.4-2.4","null","","","","","","","null","","","","","","","",""
"image-selector-fb","586","1319959","0.0-51.5-0.5","1489","pics2/SW4.jpg,pics2/SW5.jpg","","","","","","","false","0","","","sizeS.png","","",""
"image-slider-2AFC","587","1321216","0.0-51.5-1.5","1254","","","","-10","","","","","","","","heartS.png","870","-10",""
"html-keyboard-response","588","1321922","0.0-51.5-2.5","null","","","","","","","null","","","","","","","",""
"image-selector-fb","589","1323619","0.0-51.6-0.6","1192","pics2/FR5.jpg,pics2/FR1.jpg","","","","","","","true","1","","","sizeS.png","","",""
"image-slider-2AFC","590","1325143","0.0-51.6-1.6","1521","","","","15","","","","","","","","heartS.png","1072","15",""
"html-keyboard-response","591","1325951","0.0-51.6-2.6","null","","","","","","","null","","","","","","","",""
"image-selector-fb","592","1328195","0.0-51.7-0.7","1738","pics2/SW5.jpg,pics2/FR5.jpg","","","","","","","false","0","","","heartS.png","","",""
"image-slider-2AFC","593","1329751","0.0-51.7-1.7","1553","","","","-32","","","","","","","","heartS.png","1073","-32",""
"html-keyboard-response","594","1330458","0.0-51.7-2.7","null","","","","","","","null","","","","","","","",""
"image-selector-fb","595","1332895","0.0-51.8-0.8","1928","pics2/VE4.jpg,pics2/FR6.jpg","","","","","","","false","0","","","heartS.png","","",""
"image-slider-2AFC","596","1334159","0.0-51.8-1.8","1262","","","","9","","","","","","","","heartS.png","884","9",""
"html-keyboard-response","597","1335018","0.0-51.8-2.8","null","","","","","","","null","","","","","","","",""
"image-selector-fb","598","1336796","0.0-51.9-0.9","1271","pics2/FR2.jpg,pics2/SW5.jpg","","","","","","","false","0","","","sizeS.png","","",""
"image-slider-2AFC","599","1338021","0.0-51.9-1.9","1223","","","","6","","","","","","","","heartS.png","930","6",""
"html-keyboard-response","600","1338877","0.0-51.9-2.9","null","","","","","","","null","","","","","","","",""
"image-selector-fb","601","1341123","0.0-51.10-0.10","1740","pics2/SW3.jpg,pics2/SW1.jpg","","","","","","","true","1","","","sizeS.png","","",""
"image-slider-2AFC","602","1342751","0.0-51.10-1.10","1624","","","","7","","","","","","","","sizeS.png","1263","7",""
"html-keyboard-response","603","1343606","0.0-51.10-2.10","null","","","","","","","null","","","","","","","",""
"image-selector-fb","604","1345852","0.0-51.11-0.11","1740","pics2/SW3.jpg,pics2/VE1.jpg","","","","","","","false","0","","","sizeS.png","","",""
"image-slider-2AFC","605","1349112","0.0-51.11-1.11","3257","","","","-38","","","","","","","","sizeS.png","1745","-38",""
"html-keyboard-response","606","1349820","0.0-51.11-2.11","null","","","","","","","null","","","","","","","",""
"image-selector-fb","607","1352831","0.0-51.12-0.12","null","pics2/FR3.jpg,pics2/FR1.jpg","","","","","","","false","null","","","noS.png","","",""
"image-slider-2AFC","608","1355413","0.0-51.12-1.12","2578","","","","-30","","","","","","","","heartS.png","1786","-30",""
"html-keyboard-response","609","1356169","0.0-51.12-2.12","null","","","","","","","null","","","","","","","",""
"image-selector-fb","610","1359678","0.0-51.13-0.13","3001","pics2/FR1.jpg,pics2/VE4.jpg","","","","","","","false","0","","","sizeS.png","","",""
"image-slider-2AFC","611","1363705","0.0-51.13-1.13","4025","","","","-18","","","","","","","","sizeS.png","3320","-18",""
"html-keyboard-response","612","1364560","0.0-51.13-2.13","null","","","","","","","null","","","","","","","",""
"image-selector-fb","613","1367143","0.0-51.14-0.14","2076","pics2/SW1.jpg,pics2/SW3.jpg","","","","","","","true","1","","","heartS.png","","",""
"image-slider-2AFC","614","1370585","0.0-51.14-1.14","3439","","","","-27","","","","","","","","heartS.png","2878","-27",""
"html-keyboard-response","615","1371439","0.0-51.14-2.14","null","","","","","","","null","","","","","","","",""
"image-selector-fb","616","1374450","0.0-51.15-0.15","null","pics2/FR3.jpg,pics2/FR2.jpg","","","","","","","false","null","","","noS.png","","",""
"image-slider-2AFC","617","1376485","0.0-51.15-1.15","2031","","","","-10","","","","","","","","sizeS.png","1654","-10",""
"html-keyboard-response","618","1377343","0.0-51.15-2.15","null","","","","","","","null","","","","","","","",""
"image-selector-fb","619","1379137","0.0-51.16-0.16","1288","pics2/FR4.jpg,pics2/FR3.jpg","","","","","","","true","1","","","heartS.png","","",""
"image-slider-2AFC","620","1381012","0.0-51.16-1.16","1873","","","","78","","","","","","","","heartS.png","1179","78",""
"html-keyboard-response","621","1381869","0.0-51.16-2.16","null","","","","","","","null","","","","","","","",""
"image-selector-fb","622","1384877","0.0-51.17-0.17","null","pics2/FR3.jpg,pics2/SW1.jpg","","","","","","","false","null","","","noS.png","","",""
"image-slider-2AFC","623","1386777","0.0-51.17-1.17","1898","","","","-23","","","","","","","","sizeS.png","1155","-23",""
"html-keyboard-response","624","1387582","0.0-51.17-2.17","null","","","","","","","null","","","","","","","",""
"image-selector-fb","625","1389418","0.0-51.18-0.18","1327","pics2/SW4.jpg,pics2/VE1.jpg","","","","","","","false","0","","","sizeS.png","","",""
"image-slider-2AFC","626","1390595","0.0-51.18-1.18","1175","","","","19","","","","","","","","heartS.png","880","19",""
"html-keyboard-response","627","1391354","0.0-51.18-2.18","null","","","","","","","null","","","","","","","",""
"image-selector-fb","628","1392578","0.0-51.19-0.19","718","pics2/FR3.jpg,pics2/VE1.jpg","","","","","","","false","0","","","sizeS.png","","",""
"image-slider-2AFC","629","1394938","0.0-51.19-1.19","2358","","","","-36","","","","","","","","sizeS.png","1895","-36",""
"html-keyboard-response","630","1395642","0.0-51.19-2.19","null","","","","","","","null","","","","","","","",""
"image-selector-fb","631","1398650","0.0-51.20-0.20","null","pics2/FR4.jpg,pics2/FR1.jpg","","","","","","","false","null","","","noS.png","","",""
"image-slider-2AFC","632","1401361","0.0-51.20-1.20","2709","","","","38","","","","","","","","sizeS.png","1968","38",""
"html-keyboard-response","633","1402072","0.0-51.20-2.20","null","","","","","","","null","","","","","","","",""
"image-selector-fb","634","1403882","0.0-51.21-0.21","1305","pics2/FR6.jpg,pics2/SW5.jpg","","","","","","","false","0","","","sizeS.png","","",""
"image-slider-2AFC","635","1405213","0.0-51.21-1.21","1329","","","","14","","","","","","","","heartS.png","961","14",""
"html-keyboard-response","636","1406020","0.0-51.21-2.21","null","","","","","","","null","","","","","","","",""
"image-selector-fb","637","1407975","0.0-51.22-0.22","1449","pics2/SW5.jpg,pics2/FR2.jpg","","","","","","","true","1","","","heartS.png","","",""
"image-slider-2AFC","638","1410478","0.0-51.22-1.22","2500","","","","26","","","","","","","","sizeS.png","2124","26",""
"html-keyboard-response","639","1411284","0.0-51.22-2.22","null","","","","","","","null","","","","","","","",""
"image-selector-fb","640","1412712","0.0-51.23-0.23","920","pics2/FR2.jpg,pics2/FR4.jpg","","","","","","","false","0","","","heartS.png","","",""
"image-slider-2AFC","641","1414097","0.0-51.23-1.23","1383","","","","-24","","","","","","","","sizeS.png","974","-24",""
"html-keyboard-response","642","1414850","0.0-51.23-2.23","null","","","","","","","null","","","","","","","",""
"image-selector-fb","643","1416545","0.0-51.24-0.24","1191","pics2/VE1.jpg,pics2/FR6.jpg","","","","","","","false","0","","","heartS.png","","",""
"image-slider-2AFC","644","1418676","0.0-51.24-1.24","2128","","","","-21","","","","","","","","heartS.png","1737","-21",""
"html-keyboard-response","645","1419482","0.0-51.24-2.24","null","","","","","","","null","","","","","","","",""
"image-selector-fb","646","1422486","0.0-51.25-0.25","null","pics2/SW3.jpg,pics2/FR6.jpg","","","","","","","false","null","","","noS.png","","",""
"image-slider-2AFC","647","1425013","0.0-51.25-1.25","2522","","","","8","","","","","","","","heartS.png","2146","8",""
"html-keyboard-response","648","1425869","0.0-51.25-2.25","null","","","","","","","null","","","","","","","",""
"image-selector-fb","649","1427833","0.0-51.26-0.26","1459","pics2/FR2.jpg,pics2/VE4.jpg","","","","","","","true","1","","","heartS.png","","",""
"image-slider-2AFC","650","1429399","0.0-51.26-1.26","1562","","","","-8","","","","","","","","sizeS.png","1185","-8",""
"html-keyboard-response","651","1430109","0.0-51.26-2.26","null","","","","","","","null","","","","","","","",""
"image-selector-fb","652","1433124","0.0-51.27-0.27","null","pics2/FR3.jpg,pics2/SW4.jpg","","","","","","","false","null","","","noS.png","","",""
"image-slider-2AFC","653","1435078","0.0-51.27-1.27","1952","","","","-15","","","","","","","","sizeS.png","1184","-15",""
"html-keyboard-response","654","1435836","0.0-51.27-2.27","null","","","","","","","null","","","","","","","",""
"image-selector-fb","655","1437630","0.0-51.28-0.28","1285","pics2/FR3.jpg,pics2/FR6.jpg","","","","","","","false","0","","","sizeS.png","","",""
"image-slider-2AFC","656","1438911","0.0-51.28-1.28","1277","","","","-20","","","","","","","","heartS.png","812","-20",""
"html-keyboard-response","657","1439668","0.0-51.28-2.28","null","","","","","","","null","","","","","","","",""
"image-selector-fb","658","1442679","0.0-51.29-0.29","null","pics2/FR2.jpg,pics2/FR1.jpg","","","","","","","false","null","","","noS.png","","",""
"image-slider-2AFC","659","1445650","0.0-51.29-1.29","2968","","","","-19","","","","","","","","sizeS.png","2383","-19",""
"html-keyboard-response","660","1446403","0.0-51.29-2.29","null","","","","","","","null","","","","","","","",""
"image-selector-fb","661","1449224","0.0-51.30-0.30","2314","pics2/FR6.jpg,pics2/SW3.jpg","","","","","","","true","1","","","sizeS.png","","",""
"image-slider-2AFC","662","1450791","0.0-51.30-1.30","1564","","","","16","","","","","","","","heartS.png","1179","16",""
"html-keyboard-response","663","1451503","0.0-51.30-2.30","null","","","","","","","null","","","","","","","",""
"image-selector-fb","664","1454510","0.0-51.31-0.31","null","pics2/FR4.jpg,pics2/SW5.jpg","","","","","","","false","null","","","noS.png","","",""
"image-slider-2AFC","665","1456535","0.0-51.31-1.31","2022","","","","-50","","","","","","","","heartS.png","1320","-50",""
"html-keyboard-response","666","1457389","0.0-51.31-2.31","null","","","","","","","null","","","","","","","",""
"image-selector-fb","667","1460399","0.0-51.32-0.32","null","pics2/FR2.jpg,pics2/VE1.jpg","","","","","","","false","null","","","noS.png","","",""
"image-slider-2AFC","668","1462361","0.0-51.32-1.32","1959","","","","-17","","","","","","","","sizeS.png","1519","-17",""
"html-keyboard-response","669","1463217","0.0-51.32-2.32","null","","","","","","","null","","","","","","","",""
"image-selector-fb","670","1464948","0.0-51.33-0.33","1223","pics2/FR4.jpg,pics2/SW3.jpg","","","","","","","false","0","","","sizeS.png","","",""
"image-slider-2AFC","671","1466713","0.0-51.33-1.33","1762","","","","-33","","","","","","","","sizeS.png","1201","-33",""
"html-keyboard-response","672","1467468","0.0-51.33-2.33","null","","","","","","","null","","","","","","","",""
"image-selector-fb","673","1469721","0.0-51.34-0.34","1747","pics2/SW3.jpg,pics2/FR5.jpg","","","","","","","false","0","","","heartS.png","","",""
"image-slider-2AFC","674","1471473","0.0-51.34-1.34","1751","","","","-36","","","","","","","","sizeS.png","1269","-36",""
"html-keyboard-response","675","1472175","0.0-51.34-2.34","null","","","","","","","null","","","","","","","",""
"image-selector-fb","676","1475185","0.0-51.35-0.35","null","pics2/VE1.jpg,pics2/SW5.jpg","","","","","","","false","null","","","noS.png","","",""
"image-slider-2AFC","677","1477221","0.0-51.35-1.35","2032","","","","-49","","","","","","","","heartS.png","1361","-49",""
"html-keyboard-response","678","1477976","0.0-51.35-2.35","null","","","","","","","null","","","","","","","",""
"image-selector-fb","679","1479945","0.0-51.36-0.36","1464","pics2/FR4.jpg,pics2/SW1.jpg","","","","","","","false","0","","","sizeS.png","","",""
"image-slider-2AFC","680","1481454","0.0-51.36-1.36","1505","","","","-20","","","","","","","","sizeS.png","1081","-20",""
"html-keyboard-response","681","1482257","0.0-51.36-2.36","null","","","","","","","null","","","","","","","",""
"image-selector-fb","682","1483503","0.0-51.37-0.37","740","pics2/SW3.jpg,pics2/FR6.jpg","","","","","","","false","0","","","heartS.png","","",""
"image-slider-2AFC","683","1485693","0.0-51.37-1.37","2189","","","","-39","","","","","","","","heartS.png","1203","-39",""
"html-keyboard-response","684","1486498","0.0-51.37-2.37","null","","","","","","","null","","","","","","","",""
"image-selector-fb","685","1489506","0.0-51.38-0.38","null","pics2/SW4.jpg,pics2/SW5.jpg","","","","","","","false","null","","","noS.png","","",""
"image-slider-2AFC","686","1490814","0.0-51.38-1.38","1305","","","","-24","","","","","","","","heartS.png","929","-24",""
"html-keyboard-response","687","1491667","0.0-51.38-2.38","null","","","","","","","null","","","","","","","",""
"image-selector-fb","688","1493026","0.0-51.39-0.39","853","pics2/FR3.jpg,pics2/SW5.jpg","","","","","","","false","0","","","sizeS.png","","",""
"image-slider-2AFC","689","1494509","0.0-51.39-1.39","1480","","","","-28","","","","","","","","sizeS.png","999","-28",""
"html-keyboard-response","690","1495311","0.0-51.39-2.39","null","","","","","","","null","","","","","","","",""
"image-selector-fb","691","1498316","0.0-51.40-0.40","null","pics2/FR2.jpg,pics2/SW5.jpg","","","","","","","false","null","","","noS.png","","",""
"image-slider-2AFC","692","1501310","0.0-51.40-1.40","2991","","","","-7","","","","","","","","heartS.png","2111","-7",""
"html-keyboard-response","693","1502013","0.0-51.40-2.40","null","","","","","","","null","","","","","","","",""
"image-selector-fb","694","1503796","0.0-51.41-0.41","1277","pics2/FR4.jpg,pics2/FR5.jpg","","","","","","","false","0","","","heartS.png","","",""
"image-slider-2AFC","695","1506071","0.0-51.41-1.41","2272","","","","-51","","","","","","","","sizeS.png","1552","-51",""
"html-keyboard-response","696","1506929","0.0-51.41-2.41","null","","","","","","","null","","","","","","","",""
"image-selector-fb","697","1508759","0.0-51.42-0.42","1322","pics2/FR4.jpg,pics2/VE1.jpg","","","","","","","false","0","","","sizeS.png","","",""
"image-slider-2AFC","698","1512423","0.0-51.42-1.42","3660","","","","-39","","","","","","","","sizeS.png","2877","-39",""
"html-keyboard-response","699","1513277","0.0-51.42-2.42","null","","","","","","","null","","","","","","","",""
"image-selector-fb","700","1515230","0.0-51.43-0.43","1445","pics2/SW4.jpg,pics2/FR1.jpg","","","","","","","true","1","","","sizeS.png","","",""
"image-slider-2AFC","701","1517120","0.0-51.43-1.43","1887","","","","23","","","","","","","","sizeS.png","1413","23",""
"html-keyboard-response","702","1517976","0.0-51.43-2.43","null","","","","","","","null","","","","","","","",""
"image-selector-fb","703","1519618","0.0-51.44-0.44","1133","pics2/FR1.jpg,pics2/FR5.jpg","","","","","","","false","0","","","heartS.png","","",""
"image-slider-2AFC","704","1521307","0.0-51.44-1.44","1686","","","","-30","","","","","","","","heartS.png","1213","-30",""
"html-keyboard-response","705","1522113","0.0-51.44-2.44","null","","","","","","","null","","","","","","","",""
"image-selector-fb","706","1525122","0.0-51.45-0.45","null","pics2/VE4.jpg,pics2/VE1.jpg","","","","","","","false","null","","","noS.png","","",""
"image-slider-2AFC","707","1526939","0.0-51.45-1.45","1814","","","","13","","","","","","","","heartS.png","1285","13",""
"html-keyboard-response","708","1527797","0.0-51.45-2.45","null","","","","","","","null","","","","","","","",""
"image-selector-fb","709","1529499","0.0-51.46-0.46","1193","pics2/VE1.jpg,pics2/FR1.jpg","","","","","","","false","0","","","heartS.png","","",""
"image-slider-2AFC","710","1530773","0.0-51.46-1.46","1271","","","","6","","","","","","","","heartS.png","959","6",""
"html-keyboard-response","711","1531531","0.0-51.46-2.46","null","","","","","","","null","","","","","","","",""
