"trial_type","trial_index","time_elapsed","internal_node_id","rt","stimulus","button_pressed","success","response","cat","value","key_press","correct","image_click","first_click_rt","first_click_val","symbol","all_click_rt","all_click_val","view_history"
"pavlovia","0","17","0.0-0.0","","","","","","","","","","","","","","","",""
"html-button-response","1","3535","0.0-1.0","3515","<div style='width: 700px; font-size: 150%'><font size='40'>  Welcome to our study!</font><br><br><br> <small> Our experiment is about <i>decision making</i>. You will choose and rate different food items, such as these: <br><br> <div><img src='food_combo2.png', height = '400px'></img></div>","0","","","","","","","","","","","","",""
"html-button-response","2","5207","0.0-2.0","1670","<div style='width: 700px; font-size: 150%'><br><br><br><small> <u><i>This is a multi-part study.</i></u><br><br> In the first part you will rate 24 food items twice.<br><br><div><img src=""rat1.png"" style=""width: 25%""></img></div><br>In the second part (longest) you will make repeated choices and judgements concerning the food items.<br><br><div><img src=""mainx.png"" style=""width: 50%""></img></div><br>In the third and final part, you will rate the items again and answer few short questionnaires.<br><br><div><img src=""rat2.png"" style=""width: 50%""></img></div><br><br>","0","","","","","","","","","","","","",""
"fullscreen","3","8094","0.0-3.0","","","","true","","","","","","","","","","","",""
"html-button-response","4","81468","0.0-4.0","73373","<div style='width: 900px; font-size: 150%;' <font size='20%'> In the first part of the task you will use the mouse to rate food items on <i>2 scales</i> </font></div><br><br><div style='width: 900px'><div style='float: left; width: 50%; margin-right:2.5em'><img src='heartS.png'></img><p class='small' style='text-align: justify'>When you see the heart cue you will rate food items in terms of how much like them/would like to eat them <i>right now</i>. You will rate them on a continuous scale from left (strong dislike) to right (strong liking). Before submitting your rating, try imagining how the item tastes and how much you desire it.<br><br></p></div><div ><img src='sizeS.png'></img><p class='small' style='text-align: justify'>When you see the size cue, you will rate the same food items in terms of their size. The scale goes from left (tiny) to right (very large). You should assess picture size <i><u>relative</i></u> to the white background. <b>Remember:</b> rate the size of the picture, <u>not</u> the size of the item in real life. </p></div><div style='width: 900px'><br><br><b><i>Notice:</b> by starting the rating you agree that your sumbission might be rejected at an early stage and the experiment might end, if your size ratings are not at least modestly related to objective sizes, or if you repeat the same value ratings too many times. If you don't agree, please exit by closing the browser window. </i><br><br><br>","0","","","","","","","","","","","","",""
"html-button-response","5","82524","0.0-5.0","1055","<div><img src='heartS.png'></img></div><br><div style='text-align: justify; width: 700px'>Using the mouse, rate the <b><i>likeness</b></i> of the food items (how much you like them/would like to eat them <i>right now</i>). Far right-end of the scale indicates an item you <i>like a lot</i>. Far left-end indicates an item you <i>dislike a lot</i>. Think about each answer.   <ul><li>Try <b><i>not</b></i> to give identical rating to different items.</li><li>Use the whole scale, and <b><i>not</b></i> just the extremes</ul></div><br>","0","","","","","","","","","","","","",""
"image-slider-response","6","84730","0.0-6.0-0.0-0.0","2203","pics2/SW5.jpg","","","85","SW","","","","","","","","","",""
"image-slider-response","7","86043","0.0-6.0-0.0-0.1","1108","pics2/SW2.jpg","","","79","SW","","","","","","","","","",""
"image-slider-response","8","87415","0.0-6.0-0.0-0.2","1171","pics2/SW6.jpg","","","84","SW","","","","","","","","","",""
"image-slider-response","9","89160","0.0-6.0-0.0-0.3","1542","pics2/SA5.jpg","","","87","SA","","","","","","","","","",""
"image-slider-response","10","90869","0.0-6.0-0.0-0.4","1506","pics2/SA6.jpg","","","82","SA","","","","","","","","","",""
"image-slider-response","11","93013","0.0-6.0-0.0-0.5","1942","pics2/VE2.jpg","","","16","VE","","","","","","","","","",""
"image-slider-response","12","94815","0.0-6.0-0.0-0.6","1599","pics2/SA1.jpg","","","79","SA","","","","","","","","","",""
"image-slider-response","13","96860","0.0-6.0-0.0-0.7","1843","pics2/FR1.jpg","","","26","FR","","","","","","","","","",""
"image-slider-response","14","98461","0.0-6.0-0.0-0.8","1399","pics2/VE3.jpg","","","33","VE","","","","","","","","","",""
"image-slider-response","15","100706","0.0-6.0-0.0-0.9","2042","pics2/FR3.jpg","","","25","FR","","","","","","","","","",""
"image-slider-response","16","102907","0.0-6.0-0.0-0.10","1997","pics2/SW4.jpg","","","82","SW","","","","","","","","","",""
"image-slider-response","17","105344","0.0-6.0-0.0-0.11","2235","pics2/VE5.jpg","","","23","VE","","","","","","","","","",""
"image-slider-response","18","107370","0.0-6.0-0.0-0.12","1824","pics2/SW1.jpg","","","92","SW","","","","","","","","","",""
"image-slider-response","19","108823","0.0-6.0-0.0-0.13","1250","pics2/SA2.jpg","","","85","SA","","","","","","","","","",""
"image-slider-response","20","110808","0.0-6.0-0.0-0.14","1784","pics2/VE6.jpg","","","23","VE","","","","","","","","","",""
"image-slider-response","21","112216","0.0-6.0-0.0-0.15","1205","pics2/FR5.jpg","","","25","FR","","","","","","","","","",""
"image-slider-response","22","114790","0.0-6.0-0.0-0.16","2372","pics2/SA4.jpg","","","92","SA","","","","","","","","","",""
"image-slider-response","23","116582","0.0-6.0-0.0-0.17","1590","pics2/SW3.jpg","","","88","SW","","","","","","","","","",""
"image-slider-response","24","118147","0.0-6.0-0.0-0.18","1362","pics2/FR4.jpg","","","87","FR","","","","","","","","","",""
"image-slider-response","25","120828","0.0-6.0-0.0-0.19","2480","pics2/FR6.jpg","","","21","FR","","","","","","","","","",""
"image-slider-response","26","123354","0.0-6.0-0.0-0.20","2321","pics2/VE4.jpg","","","14","VE","","","","","","","","","",""
"image-slider-response","27","125322","0.0-6.0-0.0-0.21","1764","pics2/SA3.jpg","","","95","SA","","","","","","","","","",""
"image-slider-response","28","127696","0.0-6.0-0.0-0.22","2171","pics2/FR2.jpg","","","73","FR","","","","","","","","","",""
"image-slider-response","29","129520","0.0-6.0-0.0-0.23","1622","pics2/VE1.jpg","","","56","VE","","","","","","","","","",""
"html-button-response","30","130797","0.0-7.0","1075","<div style='width: 900px;'> <font size = 6><b> End of the first rating</b><br><br>","0","","","","","","","","","","","","",""
"html-button-response","31","132214","0.0-9.0","1416","<div ><img src='sizeS.png'></img></div><br><div style='text-align: justify; width: 700px'> Using the mouse, rate the <b><i>size</b></i> of the food items <b><i> relative to the white background.</b></i> Right-end of the scale indicates a <i>very large item</i>, which covers a large portion of the white rectangle. Left-end indicates a <i>very tiny</i> item which covers a tiny portion of the white rectangle.<br><br><i><u>Remember</i></u>: everything that is not the white background also contributes to item size (e.g. packing, plates, ect.)<br><br> Please keep in mind that if the accuracy of ratings do not allign well with actual sizes, the experiment will end.  As a result it will be consider incomplete and therefore no payment would be made. Good luck!<br><br></div><br>","0","","","","","","","","","","","","",""
"html-button-response","32","133678","0.0-10.0","1462","<div ><img src='sizeS.png'></img></div><br><b><font size=6>Examples of items that you might encounter</b><br><div style='width: 750px;'><div style='width: 33.33%; float:left'><br><br><br><i>Large Item</i><br><br><img src='large.jpg', width=200px></img></div><div style='float:right'><br><br><br><i>Small Item</i><br><br><img src='small.jpg', width=200px></img></div><div ><br><br><br><i>Medium Item</i><br><br><img src='med.jpg', width=200px></img></div></div><br><br>","0","","","","","","","","","","","","",""
"image-slider-response","33","135379","0.0-11.0-0.0-0.0","1700","pics2/SA5.jpg","","","66","null","","","","","","","","","",""
"image-slider-response","34","137794","0.0-11.0-0.0-0.1","2211","pics2/SW5.jpg","","","85","null","","","","","","","","","",""
"image-slider-response","35","140441","0.0-11.0-0.0-0.2","2445","pics2/SA1.jpg","","","99","null","","","","","","","","","",""
"image-slider-response","36","142967","0.0-11.0-0.0-0.3","2324","pics2/SA2.jpg","","","31","null","","","","","","","","","",""
"image-slider-response","37","144400","0.0-11.0-0.0-0.4","1230","pics2/FR3.jpg","","","33","null","","","","","","","","","",""
"image-slider-response","38","146768","0.0-11.0-0.0-0.5","2166","pics2/FR6.jpg","","","17","null","","","","","","","","","",""
"image-slider-response","39","148325","0.0-11.0-0.0-0.6","1354","pics2/SW1.jpg","","","82","null","","","","","","","","","",""
"image-slider-response","40","150702","0.0-11.0-0.0-0.7","2174","pics2/VE2.jpg","","","55","null","","","","","","","","","",""
"image-slider-response","41","152540","0.0-11.0-0.0-0.8","1633","pics2/SW3.jpg","","","74","null","","","","","","","","","",""
"image-slider-response","42","155810","0.0-11.0-0.0-0.9","3066","pics2/SA4.jpg","","","16","null","","","","","","","","","",""
"image-slider-response","43","157634","0.0-11.0-0.0-0.10","1622","pics2/FR5.jpg","","","32","null","","","","","","","","","",""
"image-slider-response","44","159544","0.0-11.0-0.0-0.11","1706","pics2/FR4.jpg","","","13","null","","","","","","","","","",""
"image-slider-response","45","161176","0.0-11.0-0.0-0.12","1429","pics2/VE3.jpg","","","21","null","","","","","","","","","",""
"image-slider-response","46","162817","0.0-11.0-0.0-0.13","1440","pics2/SW4.jpg","","","64","null","","","","","","","","","",""
"image-slider-response","47","164406","0.0-11.0-0.0-0.14","1387","pics2/SA6.jpg","","","62","null","","","","","","","","","",""
"image-slider-response","48","166824","0.0-11.0-0.0-0.15","2213","pics2/FR2.jpg","","","79","null","","","","","","","","","",""
"image-slider-response","49","168300","0.0-11.0-0.0-0.16","1272","pics2/VE6.jpg","","","72","null","","","","","","","","","",""
"image-slider-response","50","170613","0.0-11.0-0.0-0.17","2111","pics2/SW6.jpg","","","68","null","","","","","","","","","",""
"image-slider-response","51","172714","0.0-11.0-0.0-0.18","1898","pics2/VE4.jpg","","","62","null","","","","","","","","","",""
"image-slider-response","52","174996","0.0-11.0-0.0-0.19","2079","pics2/SW2.jpg","","","80","null","","","","","","","","","",""
"image-slider-response","53","176280","0.0-11.0-0.0-0.20","1081","pics2/VE5.jpg","","","78","null","","","","","","","","","",""
"image-slider-response","54","178265","0.0-11.0-0.0-0.21","1781","pics2/VE1.jpg","","","65","null","","","","","","","","","",""
"image-slider-response","55","180702","0.0-11.0-0.0-0.22","2233","pics2/FR1.jpg","","","83","null","","","","","","","","","",""
"image-slider-response","56","182511","0.0-11.0-0.0-0.23","1608","pics2/SA3.jpg","","","56","null","","","","","","","","","",""
"html-button-response","57","183848","0.0-12.0","1134","<div style='width: 900px;'> <font size = 6><b> End of the second rating</b><br><br>","0","","","","","","","","","","","","",""
"html-button-response","58","185260","0.0-13.0","1411","<div style='width: 900px;'>Now please rate the items for the second time. <br><br>This is not a memory test - you don't need to be consistent with your previous ratings. Just as before, try to make accurate judgements.<br><br>","0","","","","","","","","","","","","",""
"html-button-response","59","186037","0.0-14.0","776","<div><img src='heartS.png'></img></div><br><div style='text-align: justify; width: 700px'>Using the mouse, rate the <b><i>likeness</b></i> of the food items (how much you like them/would like to eat them <i>right now</i>). Far right-end of the scale indicates an item you <i>like a lot</i>. Far left-end indicates an item you <i>dislike a lot</i>. Think about each answer.   <ul><li>Try <b><i>not</b></i> to give identical rating to different items.</li><li>Use the whole scale, and <b><i>not</b></i> just the extremes</ul></div><br>","0","","","","","","","","","","","","",""
"image-slider-response","60","188361","0.0-15.0-0.0-0.0","2321","pics2/SA2.jpg","","","73","SA","","","","","","","","","",""
"image-slider-response","61","190074","0.0-15.0-0.0-0.1","1510","pics2/VE3.jpg","","","61","VE","","","","","","","","","",""
"image-slider-response","62","191955","0.0-15.0-0.0-0.2","1679","pics2/FR5.jpg","","","63","FR","","","","","","","","","",""
"image-slider-response","63","193600","0.0-15.0-0.0-0.3","1443","pics2/SW2.jpg","","","88","SW","","","","","","","","","",""
"image-slider-response","64","195273","0.0-15.0-0.0-0.4","1470","pics2/SA5.jpg","","","57","SA","","","","","","","","","",""
"image-slider-response","65","196981","0.0-15.0-0.0-0.5","1505","pics2/VE4.jpg","","","58","VE","","","","","","","","","",""
"image-slider-response","66","198702","0.0-15.0-0.0-0.6","1516","pics2/SW3.jpg","","","92","SW","","","","","","","","","",""
"image-slider-response","67","200055","0.0-15.0-0.0-0.7","1150","pics2/FR1.jpg","","","64","FR","","","","","","","","","",""
"image-slider-response","68","201844","0.0-15.0-0.0-0.8","1587","pics2/VE5.jpg","","","58","VE","","","","","","","","","",""
"image-slider-response","69","203189","0.0-15.0-0.0-0.9","1142","pics2/SA6.jpg","","","61","SA","","","","","","","","","",""
"image-slider-response","70","204894","0.0-15.0-0.0-0.10","1502","pics2/SW6.jpg","","","78","SW","","","","","","","","","",""
"image-slider-response","71","207891","0.0-15.0-0.0-0.11","2795","pics2/FR3.jpg","","","58","FR","","","","","","","","","",""
"image-slider-response","72","209958","0.0-15.0-0.0-0.12","1862","pics2/SW5.jpg","","","94","SW","","","","","","","","","",""
"image-slider-response","73","212321","0.0-15.0-0.0-0.13","2159","pics2/FR2.jpg","","","28","FR","","","","","","","","","",""
"image-slider-response","74","214683","0.0-15.0-0.0-0.14","2159","pics2/VE2.jpg","","","16","VE","","","","","","","","","",""
"image-slider-response","75","216199","0.0-15.0-0.0-0.15","1314","pics2/VE1.jpg","","","26","VE","","","","","","","","","",""
"image-slider-response","76","217672","0.0-15.0-0.0-0.16","1270","pics2/FR6.jpg","","","33","FR","","","","","","","","","",""
"image-slider-response","77","219236","0.0-15.0-0.0-0.17","1362","pics2/SA1.jpg","","","76","SA","","","","","","","","","",""
"image-slider-response","78","221102","0.0-15.0-0.0-0.18","1662","pics2/FR4.jpg","","","62","FR","","","","","","","","","",""
"image-slider-response","79","223139","0.0-15.0-0.0-0.19","1834","pics2/SA4.jpg","","","82","SA","","","","","","","","","",""
"image-slider-response","80","224876","0.0-15.0-0.0-0.20","1534","pics2/SA3.jpg","","","84","SA","","","","","","","","","",""
"image-slider-response","81","226804","0.0-15.0-0.0-0.21","1724","pics2/VE6.jpg","","","32","VE","","","","","","","","","",""
"image-slider-response","82","228521","0.0-15.0-0.0-0.22","1514","pics2/SW1.jpg","","","81","SW","","","","","","","","","",""
"image-slider-response","83","230115","0.0-15.0-0.0-0.23","1391","pics2/SW4.jpg","","","91","SW","","","","","","","","","",""
"call-function","84","230324","0.0-16.0","","","","","","","","","","","","","","","",""
"call-function","85","230328","0.0-17.0","","","","","","","","","","","","","","","",""
"html-button-response","86","231511","0.0-18.0","1182","<div style='width: 900px;'> <font size = 6><b> End of the first rating</b><br><br>","0","","","","","","","","","","","","",""
"html-button-response","87","232864","0.0-19.0","1352","<div ><img src='sizeS.png'></img></div><br><div style='text-align: justify; width: 700px'> Using the mouse, rate the <b><i>size</b></i> of the food items <b><i> relative to the white background.</b></i> Right-end of the scale indicates a <i>very large item</i>, which covers a large portion of the white rectangle. Left-end indicates a <i>very tiny</i> item which covers a tiny portion of the white rectangle.<br><br><i><u>Remember</i></u>: everything that is not the white background also contributes to item size (e.g. packing, plates, ect.)<br><br> Please keep in mind that if the accuracy of ratings do not allign well with actual sizes, the experiment will end.  As a result it will be consider incomplete and therefore no payment would be made. Good luck!<br><br></div><br>","0","","","","","","","","","","","","",""
"image-slider-response","88","234760","0.0-20.0-0.0-0.0","1895","pics2/SW4.jpg","","","74","null","","","","","","","","","",""
"image-slider-response","89","236759","0.0-20.0-0.0-0.1","1793","pics2/SW1.jpg","","","93","null","","","","","","","","","",""
"image-slider-response","90","238271","0.0-20.0-0.0-0.2","1310","pics2/SW6.jpg","","","72","null","","","","","","","","","",""
"image-slider-response","91","239892","0.0-20.0-0.0-0.3","1419","pics2/SA5.jpg","","","31","null","","","","","","","","","",""
"image-slider-response","92","242317","0.0-20.0-0.0-0.4","2223","pics2/FR2.jpg","","","58","null","","","","","","","","","",""
"image-slider-response","93","244978","0.0-20.0-0.0-0.5","2459","pics2/FR6.jpg","","","57","null","","","","","","","","","",""
"image-slider-response","94","246692","0.0-20.0-0.0-0.6","1512","pics2/SA3.jpg","","","85","null","","","","","","","","","",""
"image-slider-response","95","247901","0.0-20.0-0.0-0.7","1007","pics2/SA2.jpg","","","66","null","","","","","","","","","",""
"image-slider-response","96","249281","0.0-20.0-0.0-0.8","1176","pics2/VE5.jpg","","","70","null","","","","","","","","","",""
"image-slider-response","97","251186","0.0-20.0-0.0-0.9","1702","pics2/VE2.jpg","","","40","null","","","","","","","","","",""
"image-slider-response","98","252662","0.0-20.0-0.0-0.10","1274","pics2/SA4.jpg","","","75","null","","","","","","","","","",""
"image-slider-response","99","256348","0.0-20.0-0.0-0.11","3484","pics2/FR5.jpg","","","62","null","","","","","","","","","",""
"image-slider-response","100","258541","0.0-20.0-0.0-0.12","1989","pics2/VE4.jpg","","","62","null","","","","","","","","","",""
"image-slider-response","101","260307","0.0-20.0-0.0-0.13","1562","pics2/VE3.jpg","","","64","null","","","","","","","","","",""
"image-slider-response","102","262540","0.0-20.0-0.0-0.14","2029","pics2/SW3.jpg","","","83","null","","","","","","","","","",""
"image-slider-response","103","264132","0.0-20.0-0.0-0.15","1390","pics2/SW5.jpg","","","83","null","","","","","","","","","",""
"image-slider-response","104","265329","0.0-20.0-0.0-0.16","995","pics2/FR3.jpg","","","69","null","","","","","","","","","",""
"image-slider-response","105","267787","0.0-20.0-0.0-0.17","2256","pics2/SA1.jpg","","","92","null","","","","","","","","","",""
"image-slider-response","106","270168","0.0-20.0-0.0-0.18","2178","pics2/FR4.jpg","","","37","null","","","","","","","","","",""
"image-slider-response","107","271778","0.0-20.0-0.0-0.19","1407","pics2/VE6.jpg","","","26","null","","","","","","","","","",""
"image-slider-response","108","273318","0.0-20.0-0.0-0.20","1338","pics2/SW2.jpg","","","81","null","","","","","","","","","",""
"image-slider-response","109","274967","0.0-20.0-0.0-0.21","1446","pics2/FR1.jpg","","","76","null","","","","","","","","","",""
"image-slider-response","110","276359","0.0-20.0-0.0-0.22","1188","pics2/VE1.jpg","","","64","null","","","","","","","","","",""
"image-slider-response","111","277676","0.0-20.0-0.0-0.23","1113","pics2/SA6.jpg","","","59","null","","","","","","","","","",""
"call-function","112","277883","0.0-21.0","","","","","","","","","","","","","","","",""
"html-button-response","113","279125","0.0-22.0","1241","<div style='width: 900px;'> <font size = 6><b> End of the second rating</b><br><br>","0","","","","","","","","","","","","",""
"pavlovia","114","279135","0.0-23.0","","","","","","","","","","","","","","","",""
"html-keyboard-response","115","284138","0.0-24.0","null","<div style='width: 700px;'> <font size=6><b>SHORT BREAK</font></b><br><br><i> Please wait 5 seconds to continue</i></div> ","","","","","","null","","","","","","","",""
"pavlovia","116","284140","0.0-25.0","","","","","","","","","","","","","","","",""
"html-button-response","117","285617","0.0-26.0","1476","<div style='width: 700px;'>In the main part of the study, you will be choosing between 2 items. When it's time to choose,  this symbol will appear: <br><br><img src='chooseS.png'></img><br><br>Below, a cue will signify the type of choice: </div><br><div style='width: 700px;'><div style='float: left; width: 50%'><img src='heartS.png'></img><p class='small'>Heart cue means you should choose the item you <b><i>prefer</b></i> more.</p></div><div class='float: right; width:50%'><img src='sizeS.png'></img><p class='small'>Size cue means you should choose the <b><i>larger</b></i> item. </p></div></div><br><div style='width: 700px;'>When you click, a green square will appear around the item you chose.<br></div><div><br>","0","","","","","","","","","","","","",""
"image-selector-fb-tut","118","288309","0.0-27.0","1687","0232.jpg,0123.jpg","","","","","","","false","0","","","","","",""
"image-selector-fb-tut","119","290642","0.0-28.0","1329","0232.jpg,0123.jpg","","","","","","","true","1","","","","","",""
"html-button-response","120","291521","0.0-29.0","878","<div style='width: 900px;'>Your choices should be both <b><i>fast and accurate</b></i>. <br><br>You will have <i>4 seconds</i> to make each choice, which should be enough consider the options and click on one of the items.<br><br>","0","","","","","","","","","","","","",""
"html-button-response","121","292474","0.0-30.0","950","<div style='width: 900px;'>Additionally, on some choice trials you will see the <b><i>no-choice cue</b></i>: <br><br><img src='noS.png'></img> <br><br>This cue means you can't make any choice. You can examine the items, but  can't click on any of them. Just wait patiently for the cue to dissapear.<br><br>","0","","","","","","","","","","","","",""
"image-selector-fb-tut","122","294483","0.0-31.0","null","0232.jpg,0123.jpg","","","","","","","false","null","","","","","",""
"html-button-response","123","295767","0.0-32.0","1282","<div style='width: 900px;'>After each choice the items will remain on the screen and you will see this symbol: <br><br><img src='judgeS.png'></img> <br><br>This means you should rate<b> the magnitude of the difference</b> between the items using a scale: </div><br><div style='width: 900px; '><div style='float: left; width: 50%; margin-right: 2.5em; align-self:left'><img src='heartS.png'></img><p class='small' style = 'text-align: justify;'>Heart cue means you should rate <b>how much you prefer</b> one of the items over the other. Moving the scale indicator to the left means you prefer the left one; moving it to the right - right one. The more you prefer one of them, the more towards that side you should move the scale indicator. </p></div><div class='float: right; width: 50%; margin-left: 2.5em;'><img src='sizeS.png'></img><p class='small' style='text-align: justify'>Size cue means you should rate <b>how much larger</b> is one of the items over the other. Moving the scale indicator to the left means you think the left is larger; moving it to the right - right one. The greater the difference in size, the more towards that side you should move the scale indicator.</div><br>","0","","","","","","","","","","","","",""
"image-slider-2AFC-tut","124","299247","0.0-33.0","3476","","","","71","","","","","","","","","","",""
"image-slider-2AFC-tut","125","302071","0.0-34.0","2821","","","","36","","","","","","1989","36","","","",""
"html-button-response","126","304164","0.0-35.0","2092","<br><br><font size = 36><b> Examples </b></font><br><br><i> 1) I would like to eat some croissants a <b>lot more</b> than doritos right now:</i><br><img src='ex1.PNG', width='62%'></img><br><br><br><i> 2) I would like to eat some doritos a <b>bit more</b> than croissants right now, but just slightly:</i><br><img src='ex2.PNG' width='62%'></img>","0","","","","","","","","","","","","",""
"html-button-response","127","305181","0.0-36.0","1015","<div style='width: 900px;'><i>Now you know everything you need to do the task!</i> <br><br>Let's start by doing a <b>short training</b>, so you'll get used to how it works. </div><br>","0","","","","","","","","","","","","",""
"image-selector-fb","128","306701","0.0-37.0-0.0","1015","pics2/FR3.jpg,pics2/VE3.jpg","","","","","","","false","0","","","sizeS.png","","",""
"image-slider-2AFC","129","308941","0.0-37.0-1.0","2236","","","","-53","","","","","","","","sizeS.png","1749","-53",""
"html-keyboard-response","130","309695","0.0-37.0-2.0","null","","","","","","","null","","","","","","","",""
"image-selector-fb","131","311671","0.0-37.1-0.1","1471","pics2/FR3.jpg,pics2/FR1.jpg","","","","","","","true","1","","","sizeS.png","","",""
"image-slider-2AFC","132","313362","0.0-37.1-1.1","1688","","","","45","","","","","","","","sizeS.png","856","45",""
"html-keyboard-response","133","314115","0.0-37.1-2.1","null","","","","","","","null","","","","","","","",""
"image-selector-fb","134","315629","0.0-37.2-0.2","1011","pics2/FR6.jpg,pics2/VE3.jpg","","","","","","","true","1","","","heartS.png","","",""
"image-slider-2AFC","135","318765","0.0-37.2-1.2","3134","","","","13","","","","","","","","heartS.png","2681","13",""
"html-keyboard-response","136","319570","0.0-37.2-2.2","null","","","","","","","null","","","","","","","",""
"image-selector-fb","137","321181","0.0-37.3-0.3","1106","pics2/FR6.jpg,pics2/VE1.jpg","","","","","","","false","0","","","heartS.png","","",""
"image-slider-2AFC","138","323387","0.0-37.3-1.3","2205","","","","-46","","","","","","","","sizeS.png","1393","-46",""
"html-keyboard-response","139","324240","0.0-37.3-2.3","null","","","","","","","null","","","","","","","",""
"image-selector-fb","140","325498","0.0-37.4-0.4","754","pics2/FR3.jpg,pics2/FR2.jpg","","","","","","","false","0","","","sizeS.png","","",""
"image-slider-2AFC","141","327403","0.0-37.4-1.4","1902","","","","-27","","","","","","","","sizeS.png","1406","-27",""
"html-keyboard-response","142","328106","0.0-37.4-2.4","null","","","","","","","null","","","","","","","",""
"image-selector-fb","143","331112","0.0-37.5-0.5","null","pics2/VE5.jpg,pics2/FR5.jpg","","","","","","","false","null","","","noS.png","","",""
"image-slider-2AFC","144","334677","0.0-37.5-1.5","3564","","","","41","","","","","","","","sizeS.png","2683","41",""
"html-keyboard-response","145","335531","0.0-37.5-2.5","null","","","","","","","null","","","","","","","",""
"image-selector-fb","146","338538","0.0-37.6-0.6","null","pics2/VE6.jpg,pics2/VE5.jpg","","","","","","","false","null","","","noS.png","","",""
"image-slider-2AFC","147","341601","0.0-37.6-1.6","3061","","","","39","","","","","","","","heartS.png","1913","39",""
"html-keyboard-response","148","342355","0.0-37.6-2.6","null","","","","","","","null","","","","","","","",""
"image-selector-fb","149","344157","0.0-37.7-0.7","1298","pics2/SA6.jpg,pics2/VE4.jpg","","","","","","","false","0","","","heartS.png","","",""
"image-slider-2AFC","150","345575","0.0-37.7-1.7","1417","","","","-43","","","","","","","","heartS.png","625","-43",""
"html-keyboard-response","151","346329","0.0-37.7-2.7","null","","","","","","","null","","","","","","","",""
"image-selector-fb","152","347663","0.0-37.8-0.8","828","pics2/SA6.jpg,pics2/FR5.jpg","","","","","","","true","1","","","heartS.png","","",""
"image-slider-2AFC","153","349446","0.0-37.8-1.8","1780","","","","30","","","","","","","","sizeS.png","860","30",""
"html-keyboard-response","154","350298","0.0-37.8-2.8","null","","","","","","","null","","","","","","","",""
"image-selector-fb","155","351454","0.0-37.9-0.9","652","pics2/FR6.jpg,pics2/VE5.jpg","","","","","","","false","0","","","heartS.png","","",""
"image-slider-2AFC","156","353052","0.0-37.9-1.9","1596","","","","-30","","","","","","","","sizeS.png","795","-30",""
"html-keyboard-response","157","353805","0.0-37.9-2.9","null","","","","","","","null","","","","","","","",""
"image-selector-fb","158","355035","0.0-37.10-0.10","726","pics2/FR2.jpg,pics2/FR6.jpg","","","","","","","false","0","","","sizeS.png","","",""
"image-slider-2AFC","159","356538","0.0-37.10-1.10","1501","","","","-34","","","","","","","","sizeS.png","600","-34",""
"html-keyboard-response","160","357341","0.0-37.10-2.10","null","","","","","","","null","","","","","","","",""
"image-selector-fb","161","358527","0.0-37.11-0.11","684","pics2/VE2.jpg,pics2/VE1.jpg","","","","","","","true","1","","","heartS.png","","",""
"image-slider-2AFC","162","360116","0.0-37.11-1.11","1587","","","","27","","","","","","","","heartS.png","698","27",""
"html-keyboard-response","163","360819","0.0-37.11-2.11","null","","","","","","","null","","","","","","","",""
"html-button-response","164","362969","0.0-38.0","2149","<i><font size=10>Good job!</font></i> <br><br>Before we begin, you have a chance to review the rules, in case something was not clear.<br><br>","0","","","","","","","","","","","","",""
"instructions","165","366231","0.0-39.0","3261","","","","","","","","","","","","","","","[{""page_index"":0,""viewing_time"":1120},{""page_index"":1,""viewing_time"":1219},{""page_index"":2,""viewing_time"":921}]"
"html-button-response","166","367174","0.0-40.0","943","<div style='width: 900px;'> <font size='40'>Great! Now you're ready to begin</font><br><br>The main part of the experiment will consist of <u>3 blocks</u>. Each block consists of 66 decisions and judgements. You will have time for a short break between blocks.<br><br><br><i><u>Do your best to respond within the time limit.</u></i><br><br><i> Press the button to start the experiment<br><br></i>","0","","","","","","","","","","","","",""
"image-selector-fb","167","368533","0.0-41.0-0.0","855","pics2/SA2.jpg,pics2/FR4.jpg","","","","","","","true","1","","","heartS.png","","",""
"image-slider-2AFC","168","369813","0.0-41.0-1.0","1278","","","","44","","","","","","","","heartS.png","630","44",""
"html-keyboard-response","169","370666","0.0-41.0-2.0","null","","","","","","","null","","","","","","","",""
"image-selector-fb","170","371915","0.0-41.1-0.1","746","pics2/SA4.jpg,pics2/SA1.jpg","","","","","","","false","0","","","heartS.png","","",""
"image-slider-2AFC","171","373314","0.0-41.1-1.1","1397","","","","-37","","","","","","","","heartS.png","532","-37",""
"html-keyboard-response","172","374169","0.0-41.1-2.1","null","","","","","","","null","","","","","","","",""
"image-selector-fb","173","375640","0.0-41.2-0.2","966","pics2/SW4.jpg,pics2/SW2.jpg","","","","","","","false","0","","","heartS.png","","",""
"image-slider-2AFC","174","376823","0.0-41.2-1.2","1182","","","","-36","","","","","","","","heartS.png","698","-36",""
"html-keyboard-response","175","377676","0.0-41.2-2.2","null","","","","","","","null","","","","","","","",""
"image-selector-fb","176","380682","0.0-41.3-0.3","null","pics2/SA5.jpg,pics2/SW6.jpg","","","","","","","false","null","","","noS.png","","",""
"image-slider-2AFC","177","383271","0.0-41.3-1.3","2587","","","","42","","","","","","","","sizeS.png","1939","42",""
"html-keyboard-response","178","384074","0.0-41.3-2.3","null","","","","","","","null","","","","","","","",""
"image-selector-fb","179","385465","0.0-41.4-0.4","887","pics2/SW1.jpg,pics2/SA2.jpg","","","","","","","false","0","","","sizeS.png","","",""
"image-slider-2AFC","180","387100","0.0-41.4-1.4","1633","","","","-50","","","","","","","","sizeS.png","577","-50",""
"html-keyboard-response","181","387953","0.0-41.4-2.4","null","","","","","","","null","","","","","","","",""
"image-selector-fb","182","389399","0.0-41.5-0.5","942","pics2/SW2.jpg,pics2/SA2.jpg","","","","","","","false","0","","","sizeS.png","","",""
"image-slider-2AFC","183","390649","0.0-41.5-1.5","1248","","","","-71","","","","","","","","heartS.png","696","-71",""
"html-keyboard-response","184","391402","0.0-41.5-2.5","null","","","","","","","null","","","","","","","",""
"image-selector-fb","185","392824","0.0-41.6-0.6","918","pics2/SW3.jpg,pics2/SA2.jpg","","","","","","","false","0","","","heartS.png","","",""
"image-slider-2AFC","186","394311","0.0-41.6-1.6","1485","","","","-62","","","","","","","","sizeS.png","629","-62",""
"html-keyboard-response","187","395014","0.0-41.6-2.6","null","","","","","","","null","","","","","","","",""
"image-selector-fb","188","397030","0.0-41.7-0.7","1513","pics2/SA2.jpg,pics2/SA5.jpg","","","","","","","true","1","","","heartS.png","","",""
"image-slider-2AFC","189","399237","0.0-41.7-1.7","2205","","","","13","","","","","","","","sizeS.png","549,1767","28,13",""
"html-keyboard-response","190","399989","0.0-41.7-2.7","null","","","","","","","null","","","","","","","",""
"image-selector-fb","191","402995","0.0-41.8-0.8","null","pics2/SW6.jpg,pics2/SA2.jpg","","","","","","","false","null","","","noS.png","","",""
"image-slider-2AFC","192","405228","0.0-41.8-1.8","2232","","","","-43","","","","","","","","sizeS.png","1743","-43",""
"html-keyboard-response","193","405931","0.0-41.8-2.8","null","","","","","","","null","","","","","","","",""
"image-selector-fb","194","408937","0.0-41.9-0.9","null","pics2/SA5.jpg,pics2/SW2.jpg","","","","","","","false","null","","","noS.png","","",""
"image-slider-2AFC","195","411672","0.0-41.9-1.9","2733","","","","36","","","","","","","","sizeS.png","2165","36",""
"html-keyboard-response","196","412525","0.0-41.9-2.9","null","","","","","","","null","","","","","","","",""
"image-selector-fb","197","415532","0.0-41.10-0.10","null","pics2/SA4.jpg,pics2/SW3.jpg","","","","","","","false","null","","","noS.png","","",""
"image-slider-2AFC","198","418005","0.0-41.10-1.10","2470","","","","49","","","","","","","","sizeS.png","1886","49",""
"html-keyboard-response","199","418808","0.0-41.10-2.10","null","","","","","","","null","","","","","","","",""
"image-selector-fb","200","420411","0.0-41.11-0.11","1098","pics2/SW4.jpg,pics2/FR4.jpg","","","","","","","false","0","","","sizeS.png","","",""
"image-slider-2AFC","201","421490","0.0-41.11-1.11","1077","","","","-42","","","","","","","","sizeS.png","524","-42",""
"html-keyboard-response","202","422194","0.0-41.11-2.11","null","","","","","","","null","","","","","","","",""
"image-selector-fb","203","423592","0.0-41.12-0.12","895","pics2/FR4.jpg,pics2/SW6.jpg","","","","","","","false","0","","","heartS.png","","",""
"image-slider-2AFC","204","425504","0.0-41.12-1.12","1911","","","","-12","","","","","","","","sizeS.png","1423","-12",""
"html-keyboard-response","205","426357","0.0-41.12-2.12","null","","","","","","","null","","","","","","","",""
"image-selector-fb","206","427686","0.0-41.13-0.13","825","pics2/FR4.jpg,pics2/SA2.jpg","","","","","","","true","1","","","sizeS.png","","",""
"image-slider-2AFC","207","428849","0.0-41.13-1.13","1161","","","","25","","","","","","","","sizeS.png","666","25",""
"html-keyboard-response","208","429552","0.0-41.13-2.13","null","","","","","","","null","","","","","","","",""
"image-selector-fb","209","431124","0.0-41.14-0.14","1069","pics2/SW2.jpg,pics2/FR4.jpg","","","","","","","false","0","","","sizeS.png","","",""
"image-slider-2AFC","210","432535","0.0-41.14-1.14","1407","","","","-54","","","","","","","","sizeS.png","607","-54",""
"html-keyboard-response","211","433237","0.0-41.14-2.14","null","","","","","","","null","","","","","","","",""
"image-selector-fb","212","434643","0.0-41.15-0.15","901","pics2/SW4.jpg,pics2/SA3.jpg","","","","","","","false","0","","","sizeS.png","","",""
"image-slider-2AFC","213","435668","0.0-41.15-1.15","1024","","","","-67","","","","","","","","heartS.png","505","-67",""
"html-keyboard-response","214","436521","0.0-41.15-2.15","null","","","","","","","null","","","","","","","",""
"image-selector-fb","215","439526","0.0-41.16-0.16","null","pics2/SW4.jpg,pics2/FR4.jpg","","","","","","","false","null","","","noS.png","","",""
"image-slider-2AFC","216","442126","0.0-41.16-1.16","2598","","","","-86","","","","","","","","heartS.png","2093","-86",""
"html-keyboard-response","217","442879","0.0-41.16-2.16","null","","","","","","","null","","","","","","","",""
"image-selector-fb","218","445885","0.0-41.17-0.17","null","pics2/SW6.jpg,pics2/SW1.jpg","","","","","","","false","null","","","noS.png","","",""
"image-slider-2AFC","219","448071","0.0-41.17-1.17","2185","","","","70","","","","","","","","sizeS.png","1457","70",""
"html-keyboard-response","220","448875","0.0-41.17-2.17","null","","","","","","","null","","","","","","","",""
"image-selector-fb","221","451882","0.0-41.18-0.18","null","pics2/SA1.jpg,pics2/SW2.jpg","","","","","","","false","null","","","noS.png","","",""
"image-slider-2AFC","222","454291","0.0-41.18-1.18","2407","","","","-56","","","","","","","","heartS.png","1554","-56",""
"html-keyboard-response","223","455045","0.0-41.18-2.18","null","","","","","","","null","","","","","","","",""
"image-selector-fb","224","457595","0.0-41.19-0.19","2046","pics2/SW2.jpg,pics2/SA1.jpg","","","","","","","false","0","","","sizeS.png","","",""
"image-slider-2AFC","225","459209","0.0-41.19-1.19","1613","","","","-31","","","","","","","","sizeS.png","1189","-31",""
"html-keyboard-response","226","459962","0.0-41.19-2.19","null","","","","","","","null","","","","","","","",""
"image-selector-fb","227","462967","0.0-41.20-0.20","null","pics2/SW3.jpg,pics2/FR4.jpg","","","","","","","false","null","","","noS.png","","",""
"image-slider-2AFC","228","465644","0.0-41.20-1.20","2674","","","","-50","","","","","","","","heartS.png","2194","-50",""
"html-keyboard-response","229","466448","0.0-41.20-2.20","null","","","","","","","null","","","","","","","",""
"image-selector-fb","230","467823","0.0-41.21-0.21","871","pics2/SW6.jpg,pics2/SW3.jpg","","","","","","","false","0","","","sizeS.png","","",""
"image-slider-2AFC","231","469738","0.0-41.21-1.21","1914","","","","-48","","","","","","","","heartS.png","1057","-48",""
"html-keyboard-response","232","470491","0.0-41.21-2.21","null","","","","","","","null","","","","","","","",""
"image-selector-fb","233","473496","0.0-41.22-0.22","null","pics2/SW6.jpg,pics2/SA1.jpg","","","","","","","false","null","","","noS.png","","",""
"image-slider-2AFC","234","476440","0.0-41.22-1.22","2943","","","","-64","","","","","","","","heartS.png","2351","-64",""
"html-keyboard-response","235","477193","0.0-41.22-2.22","null","","","","","","","null","","","","","","","",""
"image-selector-fb","236","480198","0.0-41.23-0.23","null","pics2/SA2.jpg,pics2/FR4.jpg","","","","","","","false","null","","","noS.png","","",""
"image-slider-2AFC","237","483054","0.0-41.23-1.23","2855","","","","43","","","","","","","","sizeS.png","1991","43",""
"html-keyboard-response","238","483757","0.0-41.23-2.23","null","","","","","","","null","","","","","","","",""
"image-selector-fb","239","485952","0.0-41.24-0.24","1687","pics2/SW6.jpg,pics2/SA4.jpg","","","","","","","false","0","","","heartS.png","","",""
"image-slider-2AFC","240","487348","0.0-41.24-1.24","1393","","","","-56","","","","","","","","sizeS.png","497","-56",""
"html-keyboard-response","241","488102","0.0-41.24-2.24","null","","","","","","","null","","","","","","","",""
"image-selector-fb","242","491108","0.0-41.25-0.25","null","pics2/SA4.jpg,pics2/SW2.jpg","","","","","","","false","null","","","noS.png","","",""
"image-slider-2AFC","243","493991","0.0-41.25-1.25","2882","","","","56","","","","","","","","heartS.png","2034","56",""
"html-keyboard-response","244","494844","0.0-41.25-2.25","null","","","","","","","null","","","","","","","",""
"image-selector-fb","245","496883","0.0-41.26-0.26","1534","pics2/SA2.jpg,pics2/SW2.jpg","","","","","","","true","1","","","heartS.png","","",""
"image-slider-2AFC","246","498399","0.0-41.26-1.26","1515","","","","50","","","","","","","","sizeS.png","562","50",""
"html-keyboard-response","247","499102","0.0-41.26-2.26","null","","","","","","","null","","","","","","","",""
"image-selector-fb","248","500514","0.0-41.27-0.27","907","pics2/SA5.jpg,pics2/SA2.jpg","","","","","","","false","0","","","sizeS.png","","",""
"image-slider-2AFC","249","501597","0.0-41.27-1.27","1081","","","","-55","","","","","","","","heartS.png","545","-55",""
"html-keyboard-response","250","502400","0.0-41.27-2.27","null","","","","","","","null","","","","","","","",""
"image-selector-fb","251","503752","0.0-41.28-0.28","848","pics2/SW2.jpg,pics2/SW6.jpg","","","","","","","false","0","","","sizeS.png","","",""
"image-slider-2AFC","252","505258","0.0-41.28-1.28","1505","","","","-33","","","","","","","","heartS.png","961","-33",""
"html-keyboard-response","253","506062","0.0-41.28-2.28","null","","","","","","","null","","","","","","","",""
"image-selector-fb","254","509068","0.0-41.29-0.29","null","pics2/SA4.jpg,pics2/SA1.jpg","","","","","","","false","null","","","noS.png","","",""
"image-slider-2AFC","255","511787","0.0-41.29-1.29","2716","","","","76","","","","","","","","sizeS.png","1829","76",""
"html-keyboard-response","256","512639","0.0-41.29-2.29","null","","","","","","","null","","","","","","","",""
"image-selector-fb","257","514523","0.0-41.30-0.30","1379","pics2/SW3.jpg,pics2/SA1.jpg","","","","","","","false","0","","","heartS.png","","",""
"image-slider-2AFC","258","515865","0.0-41.30-1.30","1339","","","","-48","","","","","","","","heartS.png","539","-48",""
"html-keyboard-response","259","516619","0.0-41.30-2.30","null","","","","","","","null","","","","","","","",""
"image-selector-fb","260","518345","0.0-41.31-0.31","1222","pics2/SA5.jpg,pics2/SW1.jpg","","","","","","","true","1","","","heartS.png","","",""
"image-slider-2AFC","261","519488","0.0-41.31-1.31","1141","","","","59","","","","","","","","sizeS.png","553","59",""
"html-keyboard-response","262","520291","0.0-41.31-2.31","null","","","","","","","null","","","","","","","",""
"image-selector-fb","263","521894","0.0-41.32-0.32","1099","pics2/SW5.jpg,pics2/SA4.jpg","","","","","","","false","0","","","heartS.png","","",""
"image-slider-2AFC","264","523397","0.0-41.32-1.32","1502","","","","-60","","","","","","","","heartS.png","538","-60",""
"html-keyboard-response","265","524251","0.0-41.32-2.32","null","","","","","","","null","","","","","","","",""
"image-selector-fb","266","527257","0.0-41.33-0.33","null","pics2/SW4.jpg,pics2/SA1.jpg","","","","","","","false","null","","","noS.png","","",""
"image-slider-2AFC","267","530233","0.0-41.33-1.33","2974","","","","-44","","","","","","","","heartS.png","2118","-44",""
"html-keyboard-response","268","530936","0.0-41.33-2.33","null","","","","","","","null","","","","","","","",""
"image-selector-fb","269","532308","0.0-41.34-0.34","866","pics2/SA2.jpg,pics2/SA4.jpg","","","","","","","true","1","","","heartS.png","","",""
"image-slider-2AFC","270","533822","0.0-41.34-1.34","1512","","","","39","","","","","","","","sizeS.png","600","39",""
"html-keyboard-response","271","534525","0.0-41.34-2.34","null","","","","","","","null","","","","","","","",""
"image-selector-fb","272","535850","0.0-41.35-0.35","821","pics2/SA4.jpg,pics2/SW2.jpg","","","","","","","true","1","","","heartS.png","","",""
"image-slider-2AFC","273","537108","0.0-41.35-1.35","1257","","","","44","","","","","","","","sizeS.png","729","44",""
"html-keyboard-response","274","537961","0.0-41.35-2.35","null","","","","","","","null","","","","","","","",""
"image-selector-fb","275","539171","0.0-41.36-0.36","706","pics2/SW4.jpg,pics2/SA5.jpg","","","","","","","false","0","","","heartS.png","","",""
"image-slider-2AFC","276","540482","0.0-41.36-1.36","1309","","","","-49","","","","","","","","heartS.png","470","-49",""
"html-keyboard-response","277","541187","0.0-41.36-2.36","null","","","","","","","null","","","","","","","",""
"image-selector-fb","278","542705","0.0-41.37-0.37","1014","pics2/SW4.jpg,pics2/SW3.jpg","","","","","","","true","1","","","sizeS.png","","",""
"image-slider-2AFC","279","544049","0.0-41.37-1.37","1342","","","","43","","","","","","","","sizeS.png","819","43",""
"html-keyboard-response","280","544802","0.0-41.37-2.37","null","","","","","","","null","","","","","","","",""
"image-selector-fb","281","546544","0.0-41.38-0.38","1238","pics2/SW3.jpg,pics2/SW4.jpg","","","","","","","false","0","","","heartS.png","","",""
"image-slider-2AFC","282","548407","0.0-41.38-1.38","1862","","","","-54","","","","","","","","heartS.png","962","-54",""
"html-keyboard-response","283","549210","0.0-41.38-2.38","null","","","","","","","null","","","","","","","",""
"image-selector-fb","284","550856","0.0-41.39-0.39","1140","pics2/SA4.jpg,pics2/SA2.jpg","","","","","","","false","0","","","sizeS.png","","",""
"image-slider-2AFC","285","553175","0.0-41.39-1.39","2317","","","","-28","","","","","","","","sizeS.png","1364","-28",""
"html-keyboard-response","286","554028","0.0-41.39-2.39","null","","","","","","","null","","","","","","","",""
"image-selector-fb","287","555470","0.0-41.40-0.40","937","pics2/FR4.jpg,pics2/SW1.jpg","","","","","","","true","1","","","heartS.png","","",""
"image-slider-2AFC","288","557125","0.0-41.40-1.40","1653","","","","68","","","","","","","","heartS.png","1076","68",""
"html-keyboard-response","289","557979","0.0-41.40-2.40","null","","","","","","","null","","","","","","","",""
"image-selector-fb","290","559717","0.0-41.41-0.41","1232","pics2/SA1.jpg,pics2/SW6.jpg","","","","","","","false","0","","","sizeS.png","","",""
"image-slider-2AFC","291","560804","0.0-41.41-1.41","1084","","","","-49","","","","","","","","heartS.png","548","-49",""
"html-keyboard-response","292","561557","0.0-41.41-2.41","null","","","","","","","null","","","","","","","",""
"image-selector-fb","293","564562","0.0-41.42-0.42","null","pics2/SA4.jpg,pics2/SA3.jpg","","","","","","","false","null","","","noS.png","","",""
"image-slider-2AFC","294","567003","0.0-41.42-1.42","2440","","","","55","","","","","","","","sizeS.png","1529","55",""
"html-keyboard-response","295","567855","0.0-41.42-2.42","null","","","","","","","null","","","","","","","",""
"image-selector-fb","296","569447","0.0-41.43-0.43","1087","pics2/SA5.jpg,pics2/SW2.jpg","","","","","","","true","1","","","heartS.png","","",""
"image-slider-2AFC","297","570504","0.0-41.43-1.43","1055","","","","56","","","","","","","","heartS.png","519","56",""
"html-keyboard-response","298","571357","0.0-41.43-2.43","null","","","","","","","null","","","","","","","",""
"image-selector-fb","299","574362","0.0-41.44-0.44","null","pics2/SA1.jpg,pics2/FR4.jpg","","","","","","","false","null","","","noS.png","","",""
"image-slider-2AFC","300","576880","0.0-41.44-1.44","2517","","","","-61","","","","","","","","sizeS.png","1640","-61",""
"html-keyboard-response","301","577733","0.0-41.44-2.44","null","","","","","","","null","","","","","","","",""
"image-selector-fb","302","580740","0.0-41.45-0.45","null","pics2/SW2.jpg,pics2/SA3.jpg","","","","","","","false","null","","","noS.png","","",""
"image-slider-2AFC","303","582776","0.0-41.45-1.45","2033","","","","-55","","","","","","","","sizeS.png","1554","-55",""
"html-keyboard-response","304","583629","0.0-41.45-2.45","null","","","","","","","null","","","","","","","",""
"image-selector-fb","305","585107","0.0-41.46-0.46","974","pics2/SA4.jpg,pics2/FR4.jpg","","","","","","","false","0","","","sizeS.png","","",""
"image-slider-2AFC","306","586678","0.0-41.46-1.46","1569","","","","-53","","","","","","","","heartS.png","673","-53",""
"html-keyboard-response","307","587532","0.0-41.46-2.46","null","","","","","","","null","","","","","","","",""
"image-selector-fb","308","589503","0.0-41.47-0.47","1469","pics2/SA1.jpg,pics2/SW2.jpg","","","","","","","true","1","","","heartS.png","","",""
"image-slider-2AFC","309","590452","0.0-41.47-1.47","947","","","","45","","","","","","","","heartS.png","444","45",""
"html-keyboard-response","310","591255","0.0-41.47-2.47","null","","","","","","","null","","","","","","","",""
"image-selector-fb","311","592628","0.0-41.48-0.48","868","pics2/SW2.jpg,pics2/SA3.jpg","","","","","","","false","0","","","sizeS.png","","",""
"image-slider-2AFC","312","594154","0.0-41.48-1.48","1525","","","","-62","","","","","","","","heartS.png","596","-62",""
"html-keyboard-response","313","595007","0.0-41.48-2.48","null","","","","","","","null","","","","","","","",""
"image-selector-fb","314","596234","0.0-41.49-0.49","721","pics2/SA2.jpg,pics2/SA1.jpg","","","","","","","true","1","","","heartS.png","","",""
"image-slider-2AFC","315","597361","0.0-41.49-1.49","1125","","","","32","","","","","","","","heartS.png","514","32",""
"html-keyboard-response","316","598063","0.0-41.49-2.49","null","","","","","","","null","","","","","","","",""
"image-selector-fb","317","601069","0.0-41.50-0.50","null","pics2/SA5.jpg,pics2/SA4.jpg","","","","","","","false","null","","","noS.png","","",""
"image-slider-2AFC","318","603673","0.0-41.50-1.50","2602","","","","50","","","","","","","","heartS.png","1738","50",""
"html-keyboard-response","319","604476","0.0-41.50-2.50","null","","","","","","","null","","","","","","","",""
"image-selector-fb","320","606765","0.0-41.51-0.51","1785","pics2/SA1.jpg,pics2/SW1.jpg","","","","","","","true","1","","","sizeS.png","","",""
"image-slider-2AFC","321","608200","0.0-41.51-1.51","1433","","","","50","","","","","","","","sizeS.png","649","50",""
"html-keyboard-response","322","609003","0.0-41.51-2.51","null","","","","","","","null","","","","","","","",""
"image-selector-fb","323","610546","0.0-41.52-0.52","1037","pics2/SA1.jpg,pics2/SA4.jpg","","","","","","","false","0","","","sizeS.png","","",""
"image-slider-2AFC","324","612758","0.0-41.52-1.52","2209","","","","42","","","","","","","","heartS.png","1361","42",""
"html-keyboard-response","325","613461","0.0-41.52-2.52","null","","","","","","","null","","","","","","","",""
"image-selector-fb","326","616466","0.0-41.53-0.53","null","pics2/SW4.jpg,pics2/SA3.jpg","","","","","","","false","null","","","noS.png","","",""
"image-slider-2AFC","327","618609","0.0-41.53-1.53","2141","","","","-62","","","","","","","","heartS.png","1289","-62",""
"html-keyboard-response","328","619362","0.0-41.53-2.53","null","","","","","","","null","","","","","","","",""
"image-selector-fb","329","620793","0.0-41.54-0.54","924","pics2/FR4.jpg,pics2/SW2.jpg","","","","","","","true","1","","","heartS.png","","",""
"image-slider-2AFC","330","623192","0.0-41.54-1.54","2396","","","","45","","","","","","","","sizeS.png","1203","45",""
"html-keyboard-response","331","623894","0.0-41.54-2.54","null","","","","","","","null","","","","","","","",""
"image-selector-fb","332","625119","0.0-41.55-0.55","719","pics2/SW6.jpg,pics2/SA1.jpg","","","","","","","false","0","","","heartS.png","","",""
"image-slider-2AFC","333","626821","0.0-41.55-1.55","1701","","","","-23","","","","","","","","heartS.png","940","-23",""
"html-keyboard-response","334","627674","0.0-41.55-2.55","null","","","","","","","null","","","","","","","",""
"image-selector-fb","335","628812","0.0-41.56-0.56","633","pics2/SW5.jpg,pics2/FR4.jpg","","","","","","","false","0","","","heartS.png","","",""
"image-slider-2AFC","336","630723","0.0-41.56-1.56","1910","","","","-62","","","","","","","","sizeS.png","690","-62",""
"html-keyboard-response","337","631426","0.0-41.56-2.56","null","","","","","","","null","","","","","","","",""
"image-selector-fb","338","632636","0.0-41.57-0.57","703","pics2/SW5.jpg,pics2/SA3.jpg","","","","","","","false","0","","","heartS.png","","",""
"image-slider-2AFC","339","633572","0.0-41.57-1.57","934","","","","-52","","","","","","","","heartS.png","486","-52",""
"html-keyboard-response","340","634276","0.0-41.57-2.57","null","","","","","","","null","","","","","","","",""
"image-selector-fb","341","635559","0.0-41.58-0.58","778","pics2/SW1.jpg,pics2/SW2.jpg","","","","","","","false","0","","","heartS.png","","",""
"image-slider-2AFC","342","636586","0.0-41.58-1.58","1025","","","","-63","","","","","","","","sizeS.png","528","-63",""
"html-keyboard-response","343","637340","0.0-41.58-2.58","null","","","","","","","null","","","","","","","",""
"image-selector-fb","344","638368","0.0-41.59-0.59","524","pics2/SW6.jpg,pics2/SA5.jpg","","","","","","","false","0","","","heartS.png","","",""
"image-slider-2AFC","345","639759","0.0-41.59-1.59","1389","","","","-54","","","","","","","","sizeS.png","540","-54",""
"html-keyboard-response","346","640562","0.0-41.59-2.59","null","","","","","","","null","","","","","","","",""
"image-selector-fb","347","642221","0.0-41.60-0.60","1155","pics2/FR4.jpg,pics2/SA5.jpg","","","","","","","false","0","","","heartS.png","","",""
"image-slider-2AFC","348","643324","0.0-41.60-1.60","1101","","","","-16","","","","","","","","sizeS.png","645","-16",""
"html-keyboard-response","349","644127","0.0-41.60-2.60","null","","","","","","","null","","","","","","","",""
"image-selector-fb","350","647134","0.0-41.61-0.61","null","pics2/SA1.jpg,pics2/SW1.jpg","","","","","","","false","null","","","noS.png","","",""
"image-slider-2AFC","351","648899","0.0-41.61-1.61","1762","","","","60","","","","","","","","heartS.png","1178","60",""
"html-keyboard-response","352","649601","0.0-41.61-2.61","null","","","","","","","null","","","","","","","",""
"image-selector-fb","353","651090","0.0-41.62-0.62","984","pics2/FR4.jpg,pics2/SA3.jpg","","","","","","","true","1","","","sizeS.png","","",""
"image-slider-2AFC","354","652833","0.0-41.62-1.62","1741","","","","33","","","","","","","","sizeS.png","773","33",""
"html-keyboard-response","355","653686","0.0-41.62-2.62","null","","","","","","","null","","","","","","","",""
"image-selector-fb","356","656692","0.0-41.63-0.63","null","pics2/SW4.jpg,pics2/SW2.jpg","","","","","","","false","null","","","noS.png","","",""
"image-slider-2AFC","357","659112","0.0-41.63-1.63","2417","","","","-38","","","","","","","","sizeS.png","1963","-38",""
"html-keyboard-response","358","659865","0.0-41.63-2.63","null","","","","","","","null","","","","","","","",""
"image-selector-fb","359","661148","0.0-41.64-0.64","778","pics2/SA1.jpg,pics2/FR4.jpg","","","","","","","false","0","","","sizeS.png","","",""
"image-slider-2AFC","360","662006","0.0-41.64-1.64","856","","","","-54","","","","","","","","sizeS.png","408","-54",""
"html-keyboard-response","361","662859","0.0-41.64-2.64","null","","","","","","","null","","","","","","","",""
"image-selector-fb","362","664450","0.0-41.65-0.65","1086","pics2/SA5.jpg,pics2/SA3.jpg","","","","","","","true","1","","","sizeS.png","","",""
"image-slider-2AFC","363","666428","0.0-41.65-1.65","1977","","","","25","","","","","","","","heartS.png","1440","25",""
"html-keyboard-response","364","667282","0.0-41.65-2.65","null","","","","","","","null","","","","","","","",""
"pavlovia","365","667295","0.0-42.0","","","","","","","","","","","","","","","",""
"html-keyboard-response","366","672298","0.0-43.0","null","<div style='width: 700px;'> <font size=6><b>SHORT BREAK</font></b><br><br><i> Please wait 5 seconds to continue</i></div> ","","","","","","null","","","","","","","",""
"pavlovia","367","672299","0.0-44.0","","","","","","","","","","","","","","","",""
"html-button-response","368","674343","0.0-45.0","2042","<div style='width: 700px;'> <font size=6><b>BLOCK 2</font></b><br><br>Press the button whenever you feel ready to start the second block (there are 3 in total)</div>","0","","","","","","","","","","","","",""
"image-selector-fb","369","677347","0.0-46.0-0.0","null","pics2/SW5.jpg,pics2/FR4.jpg","","","","","","","false","null","","","noS.png","","",""
"image-slider-2AFC","370","680102","0.0-46.0-1.0","2753","","","","-44","","","","","","","","heartS.png","1952","-44",""
"html-keyboard-response","371","680955","0.0-46.0-2.0","null","","","","","","","null","","","","","","","",""
"image-selector-fb","372","683960","0.0-46.1-0.1","null","pics2/SW3.jpg,pics2/SW2.jpg","","","","","","","false","null","","","noS.png","","",""
"image-slider-2AFC","373","686353","0.0-46.1-1.1","2391","","","","-38","","","","","","","","sizeS.png","1264","-38",""
"html-keyboard-response","374","687056","0.0-46.1-2.1","null","","","","","","","null","","","","","","","",""
"image-selector-fb","375","690061","0.0-46.2-0.2","null","pics2/SA2.jpg,pics2/SA3.jpg","","","","","","","false","null","","","noS.png","","",""
"image-slider-2AFC","376","692496","0.0-46.2-1.2","2432","","","","41","","","","","","","","sizeS.png","1924","41",""
"html-keyboard-response","377","693199","0.0-46.2-2.2","null","","","","","","","null","","","","","","","",""
"image-selector-fb","378","694568","0.0-46.3-0.3","865","pics2/SW4.jpg,pics2/SA2.jpg","","","","","","","false","0","","","sizeS.png","","",""
"image-slider-2AFC","379","696478","0.0-46.3-1.3","1909","","","","-44","","","","","","","","heartS.png","1017","-44",""
"html-keyboard-response","380","697281","0.0-46.3-2.3","null","","","","","","","null","","","","","","","",""
"image-selector-fb","381","700287","0.0-46.4-0.4","null","pics2/SW6.jpg,pics2/SW2.jpg","","","","","","","false","null","","","noS.png","","",""
"image-slider-2AFC","382","702555","0.0-46.4-1.4","2266","","","","-62","","","","","","","","sizeS.png","1507","-62",""
"html-keyboard-response","383","703258","0.0-46.4-2.4","null","","","","","","","null","","","","","","","",""
"image-selector-fb","384","704690","0.0-46.5-0.5","929","pics2/SA2.jpg,pics2/SW5.jpg","","","","","","","true","1","","","heartS.png","","",""
"image-slider-2AFC","385","706137","0.0-46.5-1.5","1445","","","","36","","","","","","","","heartS.png","956","36",""
"html-keyboard-response","386","706890","0.0-46.5-2.5","null","","","","","","","null","","","","","","","",""
"image-selector-fb","387","707943","0.0-46.6-0.6","550","pics2/SW6.jpg,pics2/SW5.jpg","","","","","","","false","0","","","sizeS.png","","",""
"image-slider-2AFC","388","709511","0.0-46.6-1.6","1565","","","","-58","","","","","","","","heartS.png","505","-58",""
"html-keyboard-response","389","710314","0.0-46.6-2.6","null","","","","","","","null","","","","","","","",""
"image-selector-fb","390","712375","0.0-46.7-0.7","1557","pics2/SW3.jpg,pics2/SW5.jpg","","","","","","","false","0","","","heartS.png","","",""
"image-slider-2AFC","391","714437","0.0-46.7-1.7","2061","","","","-54","","","","","","","","heartS.png","1157","-54",""
"html-keyboard-response","392","715242","0.0-46.7-2.7","null","","","","","","","null","","","","","","","",""
"image-selector-fb","393","716532","0.0-46.8-0.8","786","pics2/SA3.jpg,pics2/SW3.jpg","","","","","","","true","1","","","sizeS.png","","",""
"image-slider-2AFC","394","717915","0.0-46.8-1.8","1381","","","","42","","","","","","","","sizeS.png","846","42",""
"html-keyboard-response","395","718718","0.0-46.8-2.8","null","","","","","","","null","","","","","","","",""
"image-selector-fb","396","721324","0.0-46.9-0.9","2102","pics2/SW5.jpg,pics2/SW3.jpg","","","","","","","false","0","","","sizeS.png","","",""
"image-slider-2AFC","397","722850","0.0-46.9-1.9","1525","","","","-36","","","","","","","","sizeS.png","1038","-36",""
"html-keyboard-response","398","723705","0.0-46.9-2.9","null","","","","","","","null","","","","","","","",""
"image-selector-fb","399","725297","0.0-46.10-0.10","1089","pics2/SA4.jpg,pics2/SA3.jpg","","","","","","","true","1","","","sizeS.png","","",""
"image-slider-2AFC","400","726416","0.0-46.10-1.10","1117","","","","52","","","","","","","","sizeS.png","581","52",""
"html-keyboard-response","401","727119","0.0-46.10-2.10","null","","","","","","","null","","","","","","","",""
"image-selector-fb","402","728591","0.0-46.11-0.11","968","pics2/SA1.jpg,pics2/SA2.jpg","","","","","","","false","0","","","sizeS.png","","",""
"image-slider-2AFC","403","730423","0.0-46.11-1.11","1829","","","","-88","","","","","","","","heartS.png","986","-88",""
"html-keyboard-response","404","731276","0.0-46.11-2.11","null","","","","","","","null","","","","","","","",""
"image-selector-fb","405","732518","0.0-46.12-0.12","739","pics2/SW3.jpg,pics2/SA3.jpg","","","","","","","false","0","","","heartS.png","","",""
"image-slider-2AFC","406","734052","0.0-46.12-1.12","1533","","","","-58","","","","","","","","sizeS.png","640","-58",""
"html-keyboard-response","407","734755","0.0-46.12-2.12","null","","","","","","","null","","","","","","","",""
"image-selector-fb","408","737761","0.0-46.13-0.13","null","pics2/SA4.jpg,pics2/SW4.jpg","","","","","","","false","null","","","noS.png","","",""
"image-slider-2AFC","409","740307","0.0-46.13-1.13","2543","","","","59","","","","","","","","heartS.png","1623","59",""
"html-keyboard-response","410","741062","0.0-46.13-2.13","null","","","","","","","null","","","","","","","",""
"image-selector-fb","411","744067","0.0-46.14-0.14","null","pics2/SA5.jpg,pics2/SW4.jpg","","","","","","","false","null","","","noS.png","","",""
"image-slider-2AFC","412","746040","0.0-46.14-1.14","1970","","","","52","","","","","","","","sizeS.png","1351","52",""
"html-keyboard-response","413","746843","0.0-46.14-2.14","null","","","","","","","null","","","","","","","",""
"image-selector-fb","414","749376","0.0-46.15-0.15","2030","pics2/SW3.jpg,pics2/SA4.jpg","","","","","","","false","0","","","heartS.png","","",""
"image-slider-2AFC","415","750919","0.0-46.15-1.15","1541","","","","-51","","","","","","","","sizeS.png","722","-51",""
"html-keyboard-response","416","751672","0.0-46.15-2.15","null","","","","","","","null","","","","","","","",""
"image-selector-fb","417","752933","0.0-46.16-0.16","757","pics2/SW1.jpg,pics2/SW5.jpg","","","","","","","false","0","","","sizeS.png","","",""
"image-slider-2AFC","418","754041","0.0-46.16-1.16","1105","","","","-41","","","","","","","","heartS.png","610","-41",""
"html-keyboard-response","419","754743","0.0-46.16-2.16","null","","","","","","","null","","","","","","","",""
"image-selector-fb","420","756003","0.0-46.17-0.17","756","pics2/SW4.jpg,pics2/SW5.jpg","","","","","","","true","1","","","sizeS.png","","",""
"image-slider-2AFC","421","758007","0.0-46.17-1.17","2002","","","","77","","","","","","","","sizeS.png","769","77",""
"html-keyboard-response","422","758810","0.0-46.17-2.17","null","","","","","","","null","","","","","","","",""
"image-selector-fb","423","759777","0.0-46.18-0.18","463","pics2/SW1.jpg,pics2/SA4.jpg","","","","","","","false","0","","","heartS.png","","",""
"image-slider-2AFC","424","761213","0.0-46.18-1.18","1434","","","","-40","","","","","","","","sizeS.png","969","-40",""
"html-keyboard-response","425","761967","0.0-46.18-2.18","null","","","","","","","null","","","","","","","",""
"image-selector-fb","426","764970","0.0-46.19-0.19","null","pics2/SA2.jpg,pics2/SW1.jpg","","","","","","","false","null","","","noS.png","","",""
"image-slider-2AFC","427","768008","0.0-46.19-1.19","3036","","","","92","","","","","","","","heartS.png","2220","92",""
"html-keyboard-response","428","768763","0.0-46.19-2.19","null","","","","","","","null","","","","","","","",""
"image-selector-fb","429","770015","0.0-46.20-0.20","748","pics2/FR4.jpg,pics2/SW5.jpg","","","","","","","true","1","","","sizeS.png","","",""
"image-slider-2AFC","430","771067","0.0-46.20-1.20","1050","","","","41","","","","","","","","heartS.png","504","41",""
"html-keyboard-response","431","771871","0.0-46.20-2.20","null","","","","","","","null","","","","","","","",""
"image-selector-fb","432","773165","0.0-46.21-0.21","790","pics2/SA4.jpg,pics2/SW3.jpg","","","","","","","true","1","","","sizeS.png","","",""
"image-slider-2AFC","433","775635","0.0-46.21-1.21","2468","","","","86","","","","","","","","heartS.png","1518","86",""
"html-keyboard-response","434","776387","0.0-46.21-2.21","null","","","","","","","null","","","","","","","",""
"image-selector-fb","435","777307","0.0-46.22-0.22","415","pics2/SA3.jpg,pics2/SA5.jpg","","","","","","","false","0","","","heartS.png","","",""
"image-slider-2AFC","436","778422","0.0-46.22-1.22","1113","","","","-48","","","","","","","","heartS.png","642","-48",""
"html-keyboard-response","437","779125","0.0-46.22-2.22","null","","","","","","","null","","","","","","","",""
"image-selector-fb","438","782131","0.0-46.23-0.23","null","pics2/SA1.jpg,pics2/SA3.jpg","","","","","","","false","null","","","noS.png","","",""
"image-slider-2AFC","439","784779","0.0-46.23-1.23","2646","","","","65","","","","","","","","sizeS.png","1813","65",""
"html-keyboard-response","440","785482","0.0-46.23-2.23","null","","","","","","","null","","","","","","","",""
"image-selector-fb","441","788486","0.0-46.24-0.24","null","pics2/SW4.jpg,pics2/SW5.jpg","","","","","","","false","null","","","noS.png","","",""
"image-slider-2AFC","442","791026","0.0-46.24-1.24","2539","","","","-57","","","","","","","","sizeS.png","1507","-57",""
"html-keyboard-response","443","791880","0.0-46.24-2.24","null","","","","","","","null","","","","","","","",""
"image-selector-fb","444","794885","0.0-46.25-0.25","null","pics2/SA3.jpg,pics2/FR4.jpg","","","","","","","false","null","","","noS.png","","",""
"image-slider-2AFC","445","797805","0.0-46.25-1.25","2917","","","","61","","","","","","","","heartS.png","1652","61",""
"html-keyboard-response","446","798508","0.0-46.25-2.25","null","","","","","","","null","","","","","","","",""
"image-selector-fb","447","801473","0.0-46.26-0.26","2460","pics2/SA2.jpg,pics2/SW3.jpg","","","","","","","true","1","","","sizeS.png","","",""
"image-slider-2AFC","448","803085","0.0-46.26-1.26","1609","","","","69","","","","","","","","heartS.png","1049","69",""
"html-keyboard-response","449","803938","0.0-46.26-2.26","null","","","","","","","null","","","","","","","",""
"image-selector-fb","450","806943","0.0-46.27-0.27","null","pics2/SA5.jpg,pics2/SA3.jpg","","","","","","","false","null","","","noS.png","","",""
"image-slider-2AFC","451","808879","0.0-46.27-1.27","1934","","","","-30","","","","","","","","heartS.png","1357","-30",""
"html-keyboard-response","452","809683","0.0-46.27-2.27","null","","","","","","","null","","","","","","","",""
"image-selector-fb","453","812071","0.0-46.28-0.28","1884","pics2/SA3.jpg,pics2/SW2.jpg","","","","","","","true","1","","","heartS.png","","",""
"image-slider-2AFC","454","813470","0.0-46.28-1.28","1397","","","","36","","","","","","","","heartS.png","469","36",""
"html-keyboard-response","455","814173","0.0-46.28-2.28","null","","","","","","","null","","","","","","","",""
"image-selector-fb","456","815965","0.0-46.29-0.29","1289","pics2/SA3.jpg,pics2/SW1.jpg","","","","","","","true","1","","","heartS.png","","",""
"image-slider-2AFC","457","820913","0.0-46.29-1.29","4944","","","","31","","","","","","","","sizeS.png","4481","31",""
"html-keyboard-response","458","821717","0.0-46.29-2.29","null","","","","","","","null","","","","","","","",""
"image-selector-fb","459","823193","0.0-46.30-0.30","973","pics2/FR4.jpg,pics2/SW3.jpg","","","","","","","true","1","","","sizeS.png","","",""
"image-slider-2AFC","460","824155","0.0-46.30-1.30","960","","","","35","","","","","","","","heartS.png","456","35",""
"html-keyboard-response","461","824859","0.0-46.30-2.30","null","","","","","","","null","","","","","","","",""
"image-selector-fb","462","826135","0.0-46.31-0.31","768","pics2/SA5.jpg,pics2/FR4.jpg","","","","","","","true","1","","","sizeS.png","","",""
"image-slider-2AFC","463","827073","0.0-46.31-1.31","936","","","","46","","","","","","","","sizeS.png","353","46",""
"html-keyboard-response","464","827927","0.0-46.31-2.31","null","","","","","","","null","","","","","","","",""
"image-selector-fb","465","829540","0.0-46.32-0.32","1109","pics2/SW5.jpg,pics2/SA2.jpg","","","","","","","false","0","","","sizeS.png","","",""
"image-slider-2AFC","466","831527","0.0-46.32-1.32","1985","","","","-100","","","","","","","","heartS.png","1177","-100",""
"html-keyboard-response","467","832280","0.0-46.32-2.32","null","","","","","","","null","","","","","","","",""
"image-selector-fb","468","835286","0.0-46.33-0.33","null","pics2/SA5.jpg,pics2/SW3.jpg","","","","","","","false","null","","","noS.png","","",""
"image-slider-2AFC","469","837134","0.0-46.33-1.33","1847","","","","33","","","","","","","","heartS.png","1243","33",""
"html-keyboard-response","470","837887","0.0-46.33-2.33","null","","","","","","","null","","","","","","","",""
"image-selector-fb","471","839589","0.0-46.34-0.34","1198","pics2/SA3.jpg,pics2/SA4.jpg","","","","","","","false","0","","","heartS.png","","",""
"image-slider-2AFC","472","840852","0.0-46.34-1.34","1259","","","","-37","","","","","","","","heartS.png","768","-37",""
"html-keyboard-response","473","841706","0.0-46.34-2.34","null","","","","","","","null","","","","","","","",""
"image-selector-fb","474","843331","0.0-46.35-0.35","1121","pics2/FR4.jpg,pics2/SA4.jpg","","","","","","","true","1","","","heartS.png","","",""
"image-slider-2AFC","475","844558","0.0-46.35-1.35","1225","","","","36","","","","","","","","sizeS.png","633","36",""
"html-keyboard-response","476","845412","0.0-46.35-2.35","null","","","","","","","null","","","","","","","",""
"image-selector-fb","477","848417","0.0-46.36-0.36","null","pics2/SW3.jpg,pics2/SA3.jpg","","","","","","","false","null","","","noS.png","","",""
"image-slider-2AFC","478","850946","0.0-46.36-1.36","2526","","","","-60","","","","","","","","heartS.png","1519","-60",""
"html-keyboard-response","479","851649","0.0-46.36-2.36","null","","","","","","","null","","","","","","","",""
"image-selector-fb","480","853509","0.0-46.37-0.37","1356","pics2/SA5.jpg,pics2/SW3.jpg","","","","","","","true","1","","","sizeS.png","","",""
"image-slider-2AFC","481","854447","0.0-46.37-1.37","936","","","","60","","","","","","","","sizeS.png","417","60",""
"html-keyboard-response","482","855201","0.0-46.37-2.37","null","","","","","","","null","","","","","","","",""
"image-selector-fb","483","856826","0.0-46.38-0.38","1118","pics2/SA2.jpg,pics2/SW1.jpg","","","","","","","true","1","","","heartS.png","","",""
"image-slider-2AFC","484","858214","0.0-46.38-1.38","1385","","","","69","","","","","","","","heartS.png","577","69",""
"html-keyboard-response","485","859067","0.0-46.38-2.38","null","","","","","","","null","","","","","","","",""
"image-selector-fb","486","860437","0.0-46.39-0.39","864","pics2/SW4.jpg,pics2/SA4.jpg","","","","","","","false","0","","","heartS.png","","",""
"image-slider-2AFC","487","862469","0.0-46.39-1.39","2030","","","","-72","","","","","","","","heartS.png","601,1534","71,-72",""
"html-keyboard-response","488","863222","0.0-46.39-2.39","null","","","","","","","null","","","","","","","",""
"image-selector-fb","489","866229","0.0-46.40-0.40","null","pics2/SA4.jpg,pics2/FR4.jpg","","","","","","","false","null","","","noS.png","","",""
"image-slider-2AFC","490","868268","0.0-46.40-1.40","2036","","","","-60","","","","","","","","sizeS.png","1213","-60",""
"html-keyboard-response","491","868973","0.0-46.40-2.40","null","","","","","","","null","","","","","","","",""
"image-selector-fb","492","870151","0.0-46.41-0.41","673","pics2/SA1.jpg,pics2/SA3.jpg","","","","","","","false","0","","","sizeS.png","","",""
"image-slider-2AFC","493","871641","0.0-46.41-1.41","1489","","","","-40","","","","","","","","heartS.png","504","-40",""
"html-keyboard-response","494","872444","0.0-46.41-2.41","null","","","","","","","null","","","","","","","",""
"image-selector-fb","495","875450","0.0-46.42-0.42","null","pics2/SA5.jpg,pics2/FR4.jpg","","","","","","","false","null","","","noS.png","","",""
"image-slider-2AFC","496","877885","0.0-46.42-1.42","2433","","","","71","","","","","","","","heartS.png","1829","71",""
"html-keyboard-response","497","878637","0.0-46.42-2.42","null","","","","","","","null","","","","","","","",""
"image-selector-fb","498","880083","0.0-46.43-0.43","941","pics2/SW6.jpg,pics2/SW1.jpg","","","","","","","true","1","","","heartS.png","","",""
"image-slider-2AFC","499","881301","0.0-46.43-1.43","1216","","","","72","","","","","","","","heartS.png","704","72",""
"html-keyboard-response","500","882005","0.0-46.43-2.43","null","","","","","","","null","","","","","","","",""
"image-selector-fb","501","883386","0.0-46.44-0.44","876","pics2/SA5.jpg,pics2/SA1.jpg","","","","","","","true","1","","","heartS.png","","",""
"image-slider-2AFC","502","886160","0.0-46.44-1.44","2773","","","","62","","","","","","","","sizeS.png","1721","62",""
"html-keyboard-response","503","887015","0.0-46.44-2.44","null","","","","","","","null","","","","","","","",""
"image-selector-fb","504","887951","0.0-46.45-0.45","431","pics2/SA1.jpg,pics2/SW4.jpg","","","","","","","false","0","","","sizeS.png","","",""
"image-slider-2AFC","505","889489","0.0-46.45-1.45","1535","","","","-75","","","","","","","","sizeS.png","527","-75",""
"html-keyboard-response","506","890293","0.0-46.45-2.45","null","","","","","","","null","","","","","","","",""
"image-selector-fb","507","893298","0.0-46.46-0.46","null","pics2/SW6.jpg,pics2/SW3.jpg","","","","","","","false","null","","","noS.png","","",""
"image-slider-2AFC","508","895300","0.0-46.46-1.46","2000","","","","84","","","","","","","","heartS.png","1111","84",""
"html-keyboard-response","509","896003","0.0-46.46-2.46","null","","","","","","","null","","","","","","","",""
"image-selector-fb","510","897403","0.0-46.47-0.47","895","pics2/SA5.jpg,pics2/SA4.jpg","","","","","","","true","1","","","heartS.png","","",""
"image-slider-2AFC","511","898850","0.0-46.47-1.47","1446","","","","68","","","","","","","","heartS.png","661","68",""
"html-keyboard-response","512","899603","0.0-46.47-2.47","null","","","","","","","null","","","","","","","",""
"image-selector-fb","513","901338","0.0-46.48-0.48","1229","pics2/SA4.jpg,pics2/SW1.jpg","","","","","","","true","1","","","sizeS.png","","",""
"image-slider-2AFC","514","902799","0.0-46.48-1.48","1459","","","","65","","","","","","","","heartS.png","667","65",""
"html-keyboard-response","515","903652","0.0-46.48-2.48","null","","","","","","","null","","","","","","","",""
"image-selector-fb","516","906658","0.0-46.49-0.49","null","pics2/SW2.jpg,pics2/FR4.jpg","","","","","","","false","null","","","noS.png","","",""
"image-slider-2AFC","517","908647","0.0-46.49-1.49","1987","","","","-57","","","","","","","","sizeS.png","1508","-57",""
"html-keyboard-response","518","909450","0.0-46.49-2.49","null","","","","","","","null","","","","","","","",""
"image-selector-fb","519","911874","0.0-46.50-0.50","1920","pics2/SA3.jpg,pics2/SA2.jpg","","","","","","","false","0","","","sizeS.png","","",""
"image-slider-2AFC","520","913420","0.0-46.50-1.50","1543","","","","-40","","","","","","","","heartS.png","631","-40",""
"html-keyboard-response","521","914273","0.0-46.50-2.50","null","","","","","","","null","","","","","","","",""
"image-selector-fb","522","915456","0.0-46.51-0.51","678","pics2/SA5.jpg,pics2/SW4.jpg","","","","","","","true","1","","","sizeS.png","","",""
"image-slider-2AFC","523","918059","0.0-46.51-1.51","2602","","","","62","","","","","","","","sizeS.png","856","62",""
"html-keyboard-response","524","918762","0.0-46.51-2.51","null","","","","","","","null","","","","","","","",""
"image-selector-fb","525","921246","0.0-46.52-0.52","1980","pics2/SA5.jpg,pics2/SW5.jpg","","","","","","","true","1","","","sizeS.png","","",""
"image-slider-2AFC","526","922780","0.0-46.52-1.52","1532","","","","56","","","","","","","","sizeS.png","607","56",""
"html-keyboard-response","527","923534","0.0-46.52-2.52","null","","","","","","","null","","","","","","","",""
"image-selector-fb","528","924601","0.0-46.53-0.53","565","pics2/SW6.jpg,pics2/SA2.jpg","","","","","","","false","0","","","sizeS.png","","",""
"image-slider-2AFC","529","926327","0.0-46.53-1.53","1723","","","","-44","","","","","","","","sizeS.png","706","-44",""
"html-keyboard-response","530","927030","0.0-46.53-2.53","null","","","","","","","null","","","","","","","",""
"image-selector-fb","531","930036","0.0-46.54-0.54","null","pics2/SA4.jpg,pics2/SA2.jpg","","","","","","","false","null","","","noS.png","","",""
"image-slider-2AFC","532","932160","0.0-46.54-1.54","2122","","","","-46","","","","","","","","heartS.png","1643","-46",""
"html-keyboard-response","533","932913","0.0-46.54-2.54","null","","","","","","","null","","","","","","","",""
"image-selector-fb","534","934183","0.0-46.55-0.55","766","pics2/SW5.jpg,pics2/SW2.jpg","","","","","","","false","0","","","heartS.png","","",""
"image-slider-2AFC","535","935565","0.0-46.55-1.55","1380","","","","-62","","","","","","","","heartS.png","448","-62",""
"html-keyboard-response","536","936368","0.0-46.55-2.55","null","","","","","","","null","","","","","","","",""
"image-selector-fb","537","939373","0.0-46.56-0.56","null","pics2/SA2.jpg,pics2/SW4.jpg","","","","","","","false","null","","","noS.png","","",""
"image-slider-2AFC","538","942214","0.0-46.56-1.56","2838","","","","67","","","","","","","","heartS.png","1597","67",""
"html-keyboard-response","539","943066","0.0-46.56-2.56","null","","","","","","","null","","","","","","","",""
"image-selector-fb","540","945319","0.0-46.57-0.57","1749","pics2/SW2.jpg,pics2/SW5.jpg","","","","","","","true","1","","","sizeS.png","","",""
"image-slider-2AFC","541","946747","0.0-46.57-1.57","1426","","","","58","","","","","","","","sizeS.png","513","58",""
"html-keyboard-response","542","947601","0.0-46.57-2.57","null","","","","","","","null","","","","","","","",""
"image-selector-fb","543","948798","0.0-46.58-0.58","693","pics2/SW1.jpg,pics2/SW6.jpg","","","","","","","false","0","","","sizeS.png","","",""
"image-slider-2AFC","544","950081","0.0-46.58-1.58","1280","","","","-34","","","","","","","","sizeS.png","792","-34",""
"html-keyboard-response","545","950783","0.0-46.58-2.58","null","","","","","","","null","","","","","","","",""
"image-selector-fb","546","951832","0.0-46.59-0.59","544","pics2/SW6.jpg,pics2/FR4.jpg","","","","","","","false","0","","","sizeS.png","","",""
"image-slider-2AFC","547","954895","0.0-46.59-1.59","3060","","","","-52","","","","","","","","heartS.png","1412","-52",""
"html-keyboard-response","548","955648","0.0-46.59-2.59","null","","","","","","","null","","","","","","","",""
"image-selector-fb","549","957083","0.0-46.60-0.60","930","pics2/SW4.jpg,pics2/SW6.jpg","","","","","","","false","0","","","sizeS.png","","",""
"image-slider-2AFC","550","957861","0.0-46.60-1.60","777","","","","-28","","","","","","","","heartS.png","328","-28",""
"html-keyboard-response","551","958664","0.0-46.60-2.60","null","","","","","","","null","","","","","","","",""
"image-selector-fb","552","961669","0.0-46.61-0.61","null","pics2/SA2.jpg,pics2/SW3.jpg","","","","","","","false","null","","","noS.png","","",""
"image-slider-2AFC","553","964047","0.0-46.61-1.61","2376","","","","64","","","","","","","","sizeS.png","1788","64",""
"html-keyboard-response","554","964800","0.0-46.61-2.61","null","","","","","","","null","","","","","","","",""
"image-selector-fb","555","967805","0.0-46.62-0.62","null","pics2/SA5.jpg,pics2/SW5.jpg","","","","","","","false","null","","","noS.png","","",""
"image-slider-2AFC","556","970015","0.0-46.62-1.62","2208","","","","44","","","","","","","","sizeS.png","1175","44",""
"html-keyboard-response","557","970818","0.0-46.62-2.62","null","","","","","","","null","","","","","","","",""
"image-selector-fb","558","972038","0.0-46.63-0.63","715","pics2/SA3.jpg,pics2/SW6.jpg","","","","","","","true","1","","","heartS.png","","",""
"image-slider-2AFC","559","973340","0.0-46.63-1.63","1299","","","","53","","","","","","","","heartS.png","692","53",""
"html-keyboard-response","560","974193","0.0-46.63-2.63","null","","","","","","","null","","","","","","","",""
"image-selector-fb","561","977200","0.0-46.64-0.64","null","pics2/SW6.jpg,pics2/SW4.jpg","","","","","","","false","null","","","noS.png","","",""
"image-slider-2AFC","562","979484","0.0-46.64-1.64","2281","","","","60","","","","","","","","sizeS.png","1409","60",""
"html-keyboard-response","563","980237","0.0-46.64-2.64","null","","","","","","","null","","","","","","","",""
"image-selector-fb","564","981671","0.0-46.65-0.65","929","pics2/SW3.jpg,pics2/SA5.jpg","","","","","","","false","0","","","heartS.png","","",""
"image-slider-2AFC","565","982881","0.0-46.65-1.65","1208","","","","-49","","","","","","","","sizeS.png","712","-49",""
"html-keyboard-response","566","983735","0.0-46.65-2.65","null","","","","","","","null","","","","","","","",""
"pavlovia","567","983753","0.0-47.0","","","","","","","","","","","","","","","",""
"html-keyboard-response","568","988755","0.0-48.0","null","<div style='width: 700px;'> <font size=6><b>SHORT BREAK</font></b><br><br><i> Please wait 5 seconds to continue</i></div> ","","","","","","null","","","","","","","",""
"pavlovia","569","988757","0.0-49.0","","","","","","","","","","","","","","","",""
"html-button-response","570","992239","0.0-50.0","3480","<div style='width: 700px;'> <font size=6><b>BLOCK 3</font></b><br><br>Press the button whenever you feel ready to start the third and final block</div>","0","","","","","","","","","","","","",""
"image-selector-fb","571","995244","0.0-51.0-0.0","null","pics2/SW6.jpg,pics2/SW5.jpg","","","","","","","false","null","","","noS.png","","",""
"image-slider-2AFC","572","997117","0.0-51.0-1.0","1870","","","","54","","","","","","","","sizeS.png","1318","54",""
"html-keyboard-response","573","997920","0.0-51.0-2.0","null","","","","","","","null","","","","","","","",""
"image-selector-fb","574","999223","0.0-51.1-0.1","796","pics2/SA3.jpg,pics2/SA1.jpg","","","","","","","true","1","","","heartS.png","","",""
"image-slider-2AFC","575","1000603","0.0-51.1-1.1","1378","","","","36","","","","","","","","sizeS.png","526","36",""
"html-keyboard-response","576","1001459","0.0-51.1-2.1","null","","","","","","","null","","","","","","","",""
"image-selector-fb","577","1002616","0.0-51.2-0.2","652","pics2/SW3.jpg,pics2/FR4.jpg","","","","","","","false","0","","","heartS.png","","",""
"image-slider-2AFC","578","1003947","0.0-51.2-1.2","1329","","","","-46","","","","","","","","heartS.png","458","-46",""
"html-keyboard-response","579","1004700","0.0-51.2-2.2","null","","","","","","","null","","","","","","","",""
"image-selector-fb","580","1007707","0.0-51.3-0.3","null","pics2/SW2.jpg,pics2/SW1.jpg","","","","","","","false","null","","","noS.png","","",""
"image-slider-2AFC","581","1009741","0.0-51.3-1.3","2032","","","","75","","","","","","","","heartS.png","1224","75",""
"html-keyboard-response","582","1010544","0.0-51.3-2.3","null","","","","","","","null","","","","","","","",""
"image-selector-fb","583","1013550","0.0-51.4-0.4","null","pics2/SA3.jpg,pics2/SW1.jpg","","","","","","","false","null","","","noS.png","","",""
"image-slider-2AFC","584","1015611","0.0-51.4-1.4","2060","","","","73","","","","","","","","sizeS.png","1316","73",""
"html-keyboard-response","585","1016316","0.0-51.4-2.4","null","","","","","","","null","","","","","","","",""
"image-selector-fb","586","1019323","0.0-51.5-0.5","null","pics2/SA5.jpg,pics2/SA2.jpg","","","","","","","false","null","","","noS.png","","",""
"image-slider-2AFC","587","1021532","0.0-51.5-1.5","2207","","","","-37","","","","","","","","sizeS.png","1319","-37",""
"html-keyboard-response","588","1022285","0.0-51.5-2.5","null","","","","","","","null","","","","","","","",""
"image-selector-fb","589","1023515","0.0-51.6-0.6","723","pics2/SA5.jpg,pics2/SW6.jpg","","","","","","","false","0","","","sizeS.png","","",""
"image-slider-2AFC","590","1024601","0.0-51.6-1.6","1085","","","","-40","","","","","","","","heartS.png","633","-40",""
"html-keyboard-response","591","1025355","0.0-51.6-2.6","null","","","","","","","null","","","","","","","",""
"image-selector-fb","592","1026761","0.0-51.7-0.7","902","pics2/SW6.jpg,pics2/SW2.jpg","","","","","","","false","0","","","heartS.png","","",""
"image-slider-2AFC","593","1028220","0.0-51.7-1.7","1457","","","","-37","","","","","","","","sizeS.png","984","-37",""
"html-keyboard-response","594","1029022","0.0-51.7-2.7","null","","","","","","","null","","","","","","","",""
"image-selector-fb","595","1030470","0.0-51.8-0.8","944","pics2/SA2.jpg,pics2/SA3.jpg","","","","","","","true","1","","","heartS.png","","",""
"image-slider-2AFC","596","1031897","0.0-51.8-1.8","1424","","","","51","","","","","","","","sizeS.png","706","51",""
"html-keyboard-response","597","1032701","0.0-51.8-2.8","null","","","","","","","null","","","","","","","",""
"image-selector-fb","598","1035068","0.0-51.9-0.9","1859","pics2/SW1.jpg,pics2/SA1.jpg","","","","","","","false","0","","","heartS.png","","",""
"image-slider-2AFC","599","1037188","0.0-51.9-1.9","2117","","","","-23","","","","","","","","heartS.png","1621","-23",""
"html-keyboard-response","600","1037941","0.0-51.9-2.9","null","","","","","","","null","","","","","","","",""
"image-selector-fb","601","1040949","0.0-51.10-0.10","null","pics2/SW2.jpg,pics2/SW5.jpg","","","","","","","false","null","","","noS.png","","",""
"image-slider-2AFC","602","1043198","0.0-51.10-1.10","2246","","","","57","","","","","","","","heartS.png","1391","57",""
"html-keyboard-response","603","1043951","0.0-51.10-2.10","null","","","","","","","null","","","","","","","",""
"image-selector-fb","604","1046957","0.0-51.11-0.11","null","pics2/SW6.jpg,pics2/FR4.jpg","","","","","","","false","null","","","noS.png","","",""
"image-slider-2AFC","605","1049217","0.0-51.11-1.11","2257","","","","-60","","","","","","","","heartS.png","1405","-60",""
"html-keyboard-response","606","1049920","0.0-51.11-2.11","null","","","","","","","null","","","","","","","",""
"image-selector-fb","607","1051647","0.0-51.12-0.12","1223","pics2/SW1.jpg,pics2/SW3.jpg","","","","","","","false","0","","","sizeS.png","","",""
"image-slider-2AFC","608","1053047","0.0-51.12-1.12","1399","","","","-63","","","","","","","","heartS.png","514","-63",""
"html-keyboard-response","609","1053902","0.0-51.12-2.12","null","","","","","","","null","","","","","","","",""
"image-selector-fb","610","1054997","0.0-51.13-0.13","591","pics2/SW4.jpg,pics2/SA1.jpg","","","","","","","false","0","","","heartS.png","","",""
"image-slider-2AFC","611","1056281","0.0-51.13-1.13","1281","","","","-41","","","","","","","","sizeS.png","457","-41",""
"html-keyboard-response","612","1057034","0.0-51.13-2.13","null","","","","","","","null","","","","","","","",""
"image-selector-fb","613","1060039","0.0-51.14-0.14","null","pics2/SW3.jpg,pics2/SW1.jpg","","","","","","","false","null","","","noS.png","","",""
"image-slider-2AFC","614","1063180","0.0-51.14-1.14","3138","","","","45","","","","","","","","sizeS.png","2290","45",""
"html-keyboard-response","615","1063933","0.0-51.14-2.14","null","","","","","","","null","","","","","","","",""
"image-selector-fb","616","1065579","0.0-51.15-0.15","1141","pics2/SW5.jpg,pics2/SW4.jpg","","","","","","","false","0","","","heartS.png","","",""
"image-slider-2AFC","617","1066897","0.0-51.15-1.15","1317","","","","-40","","","","","","","","sizeS.png","502","-40",""
"html-keyboard-response","618","1067601","0.0-51.15-2.15","null","","","","","","","null","","","","","","","",""
"image-selector-fb","619","1069393","0.0-51.16-0.16","1286","pics2/SW5.jpg,pics2/SW6.jpg","","","","","","","true","1","","","heartS.png","","",""
"image-slider-2AFC","620","1071031","0.0-51.16-1.16","1637","","","","42","","","","","","","","heartS.png","748","42",""
"html-keyboard-response","621","1071885","0.0-51.16-2.16","null","","","","","","","null","","","","","","","",""
"image-selector-fb","622","1072909","0.0-51.17-0.17","521","pics2/SA4.jpg,pics2/SW6.jpg","","","","","","","false","0","","","sizeS.png","","",""
"image-slider-2AFC","623","1074073","0.0-51.17-1.17","1162","","","","-36","","","","","","","","sizeS.png","561","-36",""
"html-keyboard-response","624","1074928","0.0-51.17-2.17","null","","","","","","","null","","","","","","","",""
"image-selector-fb","625","1078003","0.0-51.18-0.18","2570","pics2/SA4.jpg,pics2/SW4.jpg","","","","","","","false","0","","","sizeS.png","","",""
"image-slider-2AFC","626","1079633","0.0-51.18-1.18","1628","","","","-14","","","","","","","","heartS.png","1069","-14",""
"html-keyboard-response","627","1080437","0.0-51.18-2.18","null","","","","","","","null","","","","","","","",""
"image-selector-fb","628","1083219","0.0-51.19-0.19","2277","pics2/SA4.jpg,pics2/SA5.jpg","","","","","","","true","1","","","sizeS.png","","",""
"image-slider-2AFC","629","1085032","0.0-51.19-1.19","1811","","","","34","","","","","","","","sizeS.png","841","34",""
"html-keyboard-response","630","1085735","0.0-51.19-2.19","null","","","","","","","null","","","","","","","",""
"image-selector-fb","631","1088267","0.0-51.20-0.20","2028","pics2/SA3.jpg,pics2/SW4.jpg","","","","","","","true","1","","","heartS.png","","",""
"image-slider-2AFC","632","1089685","0.0-51.20-1.20","1416","","","","45","","","","","","","","sizeS.png","784","45",""
"html-keyboard-response","633","1090489","0.0-51.20-2.20","null","","","","","","","null","","","","","","","",""
"image-selector-fb","634","1094996","0.0-51.21-0.21","null","pics2/SW2.jpg,pics2/SW1.jpg","","","","","","","false","null","","","sizeS.png","","",""
"image-slider-2AFC","635","1094997","0.0-51.21-1.21","null","","","","null","","","","","","","","sizeS.png","","",""
"html-keyboard-response","636","1095850","0.0-51.21-2.21","null","","","","","","","null","","","","","","","",""
"image-selector-fb","637","1098856","0.0-51.22-0.22","null","pics2/SA4.jpg,pics2/SW1.jpg","","","","","","","false","null","","","noS.png","","",""
"image-slider-2AFC","638","1101140","0.0-51.22-1.22","2282","","","","65","","","","","","","","heartS.png","1490","65",""
"html-keyboard-response","639","1101944","0.0-51.22-2.22","null","","","","","","","null","","","","","","","",""
"image-selector-fb","640","1104949","0.0-51.23-0.23","null","pics2/SA2.jpg,pics2/SW2.jpg","","","","","","","false","null","","","noS.png","","",""
"image-slider-2AFC","641","1107059","0.0-51.23-1.23","2109","","","","70","","","","","","","","heartS.png","1108","70",""
"html-keyboard-response","642","1107814","0.0-51.23-2.23","null","","","","","","","null","","","","","","","",""
"image-selector-fb","643","1110820","0.0-51.24-0.24","null","pics2/SW3.jpg,pics2/SW5.jpg","","","","","","","false","null","","","noS.png","","",""
"image-slider-2AFC","644","1112521","0.0-51.24-1.24","1700","","","","57","","","","","","","","sizeS.png","1134","57",""
"html-keyboard-response","645","1113275","0.0-51.24-2.24","null","","","","","","","null","","","","","","","",""
"image-selector-fb","646","1114797","0.0-51.25-0.25","1018","pics2/SW5.jpg,pics2/SA5.jpg","","","","","","","false","0","","","heartS.png","","",""
"image-slider-2AFC","647","1115751","0.0-51.25-1.25","953","","","","-43","","","","","","","","heartS.png","506","-43",""
"html-keyboard-response","648","1116456","0.0-51.25-2.25","null","","","","","","","null","","","","","","","",""
"image-selector-fb","649","1119462","0.0-51.26-0.26","null","pics2/SW3.jpg,pics2/SA1.jpg","","","","","","","false","null","","","noS.png","","",""
"image-slider-2AFC","650","1121302","0.0-51.26-1.26","1838","","","","-69","","","","","","","","heartS.png","998","-69",""
"html-keyboard-response","651","1122005","0.0-51.26-2.26","null","","","","","","","null","","","","","","","",""
"image-selector-fb","652","1125011","0.0-51.27-0.27","null","pics2/FR4.jpg,pics2/SW1.jpg","","","","","","","false","null","","","noS.png","","",""
"image-slider-2AFC","653","1127120","0.0-51.27-1.27","2106","","","","69","","","","","","","","heartS.png","1307","69",""
"html-keyboard-response","654","1127873","0.0-51.27-2.27","null","","","","","","","null","","","","","","","",""
"image-selector-fb","655","1129102","0.0-51.28-0.28","726","pics2/SW5.jpg,pics2/SA1.jpg","","","","","","","false","0","","","heartS.png","","",""
"image-slider-2AFC","656","1130493","0.0-51.28-1.28","1389","","","","-70","","","","","","","","sizeS.png","603","-70",""
"html-keyboard-response","657","1131297","0.0-51.28-2.28","null","","","","","","","null","","","","","","","",""
"image-selector-fb","658","1134301","0.0-51.29-0.29","null","pics2/SA5.jpg,pics2/SA1.jpg","","","","","","","false","null","","","noS.png","","",""
"image-slider-2AFC","659","1136364","0.0-51.29-1.29","2060","","","","66","","","","","","","","heartS.png","1037","66",""
"html-keyboard-response","660","1137218","0.0-51.29-2.29","null","","","","","","","null","","","","","","","",""
"image-selector-fb","661","1138706","0.0-51.30-0.30","984","pics2/SW4.jpg,pics2/SW1.jpg","","","","","","","true","1","","","heartS.png","","",""
"image-slider-2AFC","662","1140178","0.0-51.30-1.30","1469","","","","74","","","","","","","","sizeS.png","558","74",""
"html-keyboard-response","663","1140881","0.0-51.30-2.30","null","","","","","","","null","","","","","","","",""
"image-selector-fb","664","1143886","0.0-51.31-0.31","null","pics2/SW4.jpg,pics2/SW1.jpg","","","","","","","false","null","","","noS.png","","",""
"image-slider-2AFC","665","1146399","0.0-51.31-1.31","2510","","","","65","","","","","","","","sizeS.png","1710","65",""
"html-keyboard-response","666","1147153","0.0-51.31-2.31","null","","","","","","","null","","","","","","","",""
"image-selector-fb","667","1148555","0.0-51.32-0.32","897","pics2/SA2.jpg,pics2/SW4.jpg","","","","","","","true","1","","","heartS.png","","",""
"image-slider-2AFC","668","1149469","0.0-51.32-1.32","912","","","","53","","","","","","","","heartS.png","280","53",""
"html-keyboard-response","669","1150222","0.0-51.32-2.32","null","","","","","","","null","","","","","","","",""
"image-selector-fb","670","1151703","0.0-51.33-0.33","978","pics2/SW1.jpg,pics2/SA3.jpg","","","","","","","false","0","","","sizeS.png","","",""
"image-slider-2AFC","671","1152867","0.0-51.33-1.33","1163","","","","-61","","","","","","","","sizeS.png","587","-61",""
"html-keyboard-response","672","1153621","0.0-51.33-2.33","null","","","","","","","null","","","","","","","",""
"image-selector-fb","673","1154968","0.0-51.34-0.34","844","pics2/SW3.jpg,pics2/SW1.jpg","","","","","","","true","1","","","heartS.png","","",""
"image-slider-2AFC","674","1156311","0.0-51.34-1.34","1341","","","","48","","","","","","","","heartS.png","533","48",""
"html-keyboard-response","675","1157114","0.0-51.34-2.34","null","","","","","","","null","","","","","","","",""
"image-selector-fb","676","1158454","0.0-51.35-0.35","836","pics2/SA1.jpg,pics2/SA5.jpg","","","","","","","false","0","","","sizeS.png","","",""
"image-slider-2AFC","677","1159509","0.0-51.35-1.35","1053","","","","-45","","","","","","","","heartS.png","554","-45",""
"html-keyboard-response","678","1160315","0.0-51.35-2.35","null","","","","","","","null","","","","","","","",""
"image-selector-fb","679","1163320","0.0-51.36-0.36","null","pics2/SA4.jpg,pics2/SW5.jpg","","","","","","","false","null","","","noS.png","","",""
"image-slider-2AFC","680","1165004","0.0-51.36-1.36","1682","","","","63","","","","","","","","heartS.png","1098","63",""
"html-keyboard-response","681","1165857","0.0-51.36-2.36","null","","","","","","","null","","","","","","","",""
"image-selector-fb","682","1168863","0.0-51.37-0.37","null","pics2/SA1.jpg,pics2/SW5.jpg","","","","","","","false","null","","","noS.png","","",""
"image-slider-2AFC","683","1170740","0.0-51.37-1.37","1875","","","","-49","","","","","","","","heartS.png","1259","-49",""
"html-keyboard-response","684","1171545","0.0-51.37-2.37","null","","","","","","","null","","","","","","","",""
"image-selector-fb","685","1172925","0.0-51.38-0.38","877","pics2/SW2.jpg,pics2/SW4.jpg","","","","","","","true","1","","","sizeS.png","","",""
"image-slider-2AFC","686","1174528","0.0-51.38-1.38","1600","","","","45","","","","","","","","sizeS.png","609","45",""
"html-keyboard-response","687","1175231","0.0-51.38-2.38","null","","","","","","","null","","","","","","","",""
"image-selector-fb","688","1178235","0.0-51.39-0.39","null","pics2/SW5.jpg,pics2/SW1.jpg","","","","","","","false","null","","","noS.png","","",""
"image-slider-2AFC","689","1179503","0.0-51.39-1.39","1266","","","","53","","","","","","","","sizeS.png","713","53",""
"html-keyboard-response","690","1180207","0.0-51.39-2.39","null","","","","","","","null","","","","","","","",""
"image-selector-fb","691","1181658","0.0-51.40-0.40","945","pics2/SW6.jpg,pics2/SA3.jpg","","","","","","","false","0","","","sizeS.png","","",""
"image-slider-2AFC","692","1182716","0.0-51.40-1.40","1055","","","","-46","","","","","","","","sizeS.png","552","-46",""
"html-keyboard-response","693","1183419","0.0-51.40-2.40","null","","","","","","","null","","","","","","","",""
"image-selector-fb","694","1186425","0.0-51.41-0.41","null","pics2/SA2.jpg,pics2/SA1.jpg","","","","","","","false","null","","","noS.png","","",""
"image-slider-2AFC","695","1188765","0.0-51.41-1.41","2339","","","","66","","","","","","","","sizeS.png","1779","66",""
"html-keyboard-response","696","1189569","0.0-51.41-2.41","null","","","","","","","null","","","","","","","",""
"image-selector-fb","697","1192574","0.0-51.42-0.42","null","pics2/SA5.jpg,pics2/SW1.jpg","","","","","","","false","null","","","noS.png","","",""
"image-slider-2AFC","698","1194945","0.0-51.42-1.42","2367","","","","60","","","","","","","","sizeS.png","1751","60",""
"html-keyboard-response","699","1195799","0.0-51.42-2.42","null","","","","","","","null","","","","","","","",""
"image-selector-fb","700","1197762","0.0-51.43-0.43","1460","pics2/SW3.jpg,pics2/SW6.jpg","","","","","","","false","0","","","heartS.png","","",""
"image-slider-2AFC","701","1198646","0.0-51.43-1.43","882","","","","-47","","","","","","","","sizeS.png","410","-47",""
"html-keyboard-response","702","1199350","0.0-51.43-2.43","null","","","","","","","null","","","","","","","",""
"image-selector-fb","703","1200584","0.0-51.44-0.44","731","pics2/FR4.jpg,pics2/SA1.jpg","","","","","","","true","1","","","heartS.png","","",""
"image-slider-2AFC","704","1202100","0.0-51.44-1.44","1514","","","","48","","","","","","","","heartS.png","547","48",""
"html-keyboard-response","705","1202803","0.0-51.44-2.44","null","","","","","","","null","","","","","","","",""
"image-selector-fb","706","1204381","0.0-51.45-0.45","1072","pics2/SW2.jpg,pics2/SA5.jpg","","","","","","","false","0","","","sizeS.png","","",""
"image-slider-2AFC","707","1206795","0.0-51.45-1.45","2410","","","","-40","","","","","","","","heartS.png","1953","-40",""
"html-keyboard-response","708","1207548","0.0-51.45-2.45","null","","","","","","","null","","","","","","","",""
"image-selector-fb","709","1208813","0.0-51.46-0.46","761","pics2/SW1.jpg,pics2/FR4.jpg","","","","","","","false","0","","","sizeS.png","","",""
"image-slider-2AFC","710","1209704","0.0-51.46-1.46","888","","","","-59","","","","","","","","heartS.png","456","-59",""
"html-keyboard-response","711","1210557","0.0-51.46-2.46","null","","","","","","","null","","","","","","","",""
"image-selector-fb","712","1213564","0.0-51.47-0.47","null","pics2/SW6.jpg,pics2/SA3.jpg","","","","","","","false","null","","","noS.png","","",""
"image-slider-2AFC","713","1216109","0.0-51.47-1.47","2543","","","","-63","","","","","","","","heartS.png","1763","-63",""
