"trial_type","trial_index","time_elapsed","internal_node_id","rt","stimulus","button_pressed","success","response","cat","value","key_press","correct","image_click","first_click_rt","first_click_val","symbol","all_click_rt","all_click_val","view_history"
"pavlovia","0","3","0.0-0.0","","","","","","","","","","","","","","","",""
"html-button-response","1","10065","0.0-1.0","10060","<div style='width: 700px; font-size: 150%'><font size='40'>  Welcome to our study!</font><br><br><br> <small> Our experiment is about <i>decision making</i>. You will choose and rate different food items, such as these: <br><br> <div><img src='food_combo2.png', height = '400px'></img></div>","0","","","","","","","","","","","","",""
"html-button-response","2","11696","0.0-2.0","1629","<div style='width: 700px; font-size: 150%'><br><br><br><small> <u><i>This is a multi-part study.</i></u><br><br> In the first part you will rate 24 food items twice.<br><br><div><img src=""rat1.png"" style=""width: 25%""></img></div><br>In the second part (longest) you will make repeated choices and judgements concerning the food items.<br><br><div><img src=""mainx.png"" style=""width: 50%""></img></div><br>In the third and final part, you will rate the items again and answer few short questionnaires.<br><br><div><img src=""rat2.png"" style=""width: 50%""></img></div><br><br>","0","","","","","","","","","","","","",""
"fullscreen","3","13873","0.0-3.0","","","","true","","","","","","","","","","","",""
"html-button-response","4","64134","0.0-4.0","50257","<div style='width: 900px; font-size: 150%;' <font size='20%'> In the first part of the task you will use the mouse to rate food items on <i>2 scales</i> </font></div><br><br><div style='width: 900px'><div style='float: left; width: 50%; margin-right:2.5em'><img src='heartS.png'></img><p class='small' style='text-align: justify'>When you see the heart cue you will rate food items in terms of how much like them/would like to eat them <i>right now</i>. You will rate them on a continuous scale from left (strong dislike) to right (strong liking). Before submitting your rating, try imagining how the item tastes and how much you desire it.<br><br></p></div><div ><img src='sizeS.png'></img><p class='small' style='text-align: justify'>When you see the size cue, you will rate the same food items in terms of their size. The scale goes from left (tiny) to right (very large). You should assess picture size <i><u>relative</i></u> to the white background. <b>Remember:</b> rate the size of the picture, <u>not</u> the size of the item in real life. </p></div><div style='width: 900px'><br><br><b><i>Notice:</b> by starting the rating you agree that your sumbission might be rejected at an early stage and the experiment might end, if your size ratings are not at least modestly related to objective sizes, or if you repeat the same value ratings too many times. If you don't agree, please exit by closing the browser window. </i><br><br><br>","0","","","","","","","","","","","","",""
"html-button-response","5","68874","0.0-5.0","4737","<div><img src='heartS.png'></img></div><br><div style='text-align: justify; width: 700px'>Using the mouse, rate the <b><i>likeness</b></i> of the food items (how much you like them/would like to eat them <i>right now</i>). Far right-end of the scale indicates an item you <i>like a lot</i>. Far left-end indicates an item you <i>dislike a lot</i>. Think about each answer.   <ul><li>Try <b><i>not</b></i> to give identical rating to different items.</li><li>Use the whole scale, and <b><i>not</b></i> just the extremes</ul></div><br>","0","","","","","","","","","","","","",""
"image-slider-response","6","75394","0.0-6.0-0.0-0.0","6509","pics2/FR6.jpg","","","80","FR","","","","","","","","","",""
"image-slider-response","7","78721","0.0-6.0-0.0-0.1","3121","pics2/SA3.jpg","","","68","SA","","","","","","","","","",""
"image-slider-response","8","83285","0.0-6.0-0.0-0.2","4359","pics2/SW3.jpg","","","97","SW","","","","","","","","","",""
"image-slider-response","9","87347","0.0-6.0-0.0-0.3","3857","pics2/SW1.jpg","","","50","SW","","","","","","","","","",""
"image-slider-response","10","90592","0.0-6.0-0.0-0.4","3040","pics2/SA1.jpg","","","85","SA","","","","","","","","","",""
"image-slider-response","11","93955","0.0-6.0-0.0-0.5","3158","pics2/SW4.jpg","","","50","SW","","","","","","","","","",""
"image-slider-response","12","98225","0.0-6.0-0.0-0.6","4065","pics2/FR5.jpg","","","36","FR","","","","","","","","","",""
"image-slider-response","13","102358","0.0-6.0-0.0-0.7","3928","pics2/FR2.jpg","","","70","FR","","","","","","","","","",""
"image-slider-response","14","106000","0.0-6.0-0.0-0.8","3437","pics2/SW2.jpg","","","30","SW","","","","","","","","","",""
"image-slider-response","15","110699","0.0-6.0-0.0-0.9","4494","pics2/VE6.jpg","","","32","VE","","","","","","","","","",""
"image-slider-response","16","114864","0.0-6.0-0.0-0.10","3959","pics2/SA4.jpg","","","100","SA","","","","","","","","","",""
"image-slider-response","17","118883","0.0-6.0-0.0-0.11","3815","pics2/SA2.jpg","","","65","SA","","","","","","","","","",""
"image-slider-response","18","122794","0.0-6.0-0.0-0.12","3706","pics2/VE4.jpg","","","37","VE","","","","","","","","","",""
"image-slider-response","19","126623","0.0-6.0-0.0-0.13","3624","pics2/SA6.jpg","","","10","SA","","","","","","","","","",""
"image-slider-response","20","133764","0.0-6.0-0.0-0.14","6935","pics2/SW5.jpg","","","68","SW","","","","","","","","","",""
"image-slider-response","21","137580","0.0-6.0-0.0-0.15","3611","pics2/VE3.jpg","","","35","VE","","","","","","","","","",""
"image-slider-response","22","140839","0.0-6.0-0.0-0.16","3054","pics2/SW6.jpg","","","89","SW","","","","","","","","","",""
"image-slider-response","23","144614","0.0-6.0-0.0-0.17","3570","pics2/VE1.jpg","","","17","VE","","","","","","","","","",""
"image-slider-response","24","149763","0.0-6.0-0.0-0.18","4943","pics2/FR3.jpg","","","99","FR","","","","","","","","","",""
"image-slider-response","25","153213","0.0-6.0-0.0-0.19","3245","pics2/SA5.jpg","","","73","SA","","","","","","","","","",""
"image-slider-response","26","156329","0.0-6.0-0.0-0.20","2911","pics2/FR4.jpg","","","84","FR","","","","","","","","","",""
"image-slider-response","27","160047","0.0-6.0-0.0-0.21","3512","pics2/VE2.jpg","","","21","VE","","","","","","","","","",""
"image-slider-response","28","165814","0.0-6.0-0.0-0.22","5563","pics2/VE5.jpg","","","51","VE","","","","","","","","","",""
"image-slider-response","29","170487","0.0-6.0-0.0-0.23","4468","pics2/FR1.jpg","","","74","FR","","","","","","","","","",""
"html-button-response","30","172667","0.0-7.0","1976","<div style='width: 900px;'> <font size = 6><b> End of the first rating</b><br><br>","0","","","","","","","","","","","","",""
"html-button-response","31","186347","0.0-9.0","13678","<div ><img src='sizeS.png'></img></div><br><div style='text-align: justify; width: 700px'> Using the mouse, rate the <b><i>size</b></i> of the food items <b><i> relative to the white background.</b></i> Right-end of the scale indicates a <i>very large item</i>, which covers a large portion of the white rectangle. Left-end indicates a <i>very tiny</i> item which covers a tiny portion of the white rectangle.<br><br><i><u>Remember</i></u>: everything that is not the white background also contributes to item size (e.g. packing, plates, ect.)<br><br> Please keep in mind that if the accuracy of ratings do not allign well with actual sizes, the experiment will end.  As a result it will be consider incomplete and therefore no payment would be made. Good luck!<br><br></div><br>","0","","","","","","","","","","","","",""
"html-button-response","32","191100","0.0-10.0","4748","<div ><img src='sizeS.png'></img></div><br><b><font size=6>Examples of items that you might encounter</b><br><div style='width: 750px;'><div style='width: 33.33%; float:left'><br><br><br><i>Large Item</i><br><br><img src='large.jpg', width=200px></img></div><div style='float:right'><br><br><br><i>Small Item</i><br><br><img src='small.jpg', width=200px></img></div><div ><br><br><br><i>Medium Item</i><br><br><img src='med.jpg', width=200px></img></div></div><br><br>","0","","","","","","","","","","","","",""
"image-slider-response","33","194954","0.0-11.0-0.0-0.0","3849","pics2/VE1.jpg","","","73","null","","","","","","","","","",""
"image-slider-response","34","199290","0.0-11.0-0.0-0.1","4132","pics2/SW1.jpg","","","84","null","","","","","","","","","",""
"image-slider-response","35","204986","0.0-11.0-0.0-0.2","5491","pics2/SW4.jpg","","","57","null","","","","","","","","","",""
"image-slider-response","36","213045","0.0-11.0-0.0-0.3","7855","pics2/SA1.jpg","","","90","null","","","","","","","","","",""
"image-slider-response","37","219706","0.0-11.0-0.0-0.4","6457","pics2/SA2.jpg","","","41","null","","","","","","","","","",""
"image-slider-response","38","223356","0.0-11.0-0.0-0.5","3442","pics2/FR1.jpg","","","42","null","","","","","","","","","",""
"image-slider-response","39","228678","0.0-11.0-0.0-0.6","5116","pics2/FR5.jpg","","","63","null","","","","","","","","","",""
"image-slider-response","40","233552","0.0-11.0-0.0-0.7","4669","pics2/SA5.jpg","","","25","null","","","","","","","","","",""
"image-slider-response","41","237355","0.0-11.0-0.0-0.8","3598","pics2/SW5.jpg","","","80","null","","","","","","","","","",""
"image-slider-response","42","240718","0.0-11.0-0.0-0.9","3159","pics2/SW3.jpg","","","80","null","","","","","","","","","",""
"image-slider-response","43","246310","0.0-11.0-0.0-0.10","5386","pics2/FR2.jpg","","","94","null","","","","","","","","","",""
"image-slider-response","44","250868","0.0-11.0-0.0-0.11","4352","pics2/VE4.jpg","","","53","null","","","","","","","","","",""
"image-slider-response","45","253214","0.0-11.0-0.0-0.12","2141","pics2/SA3.jpg","","","50","null","","","","","","","","","",""
"image-slider-response","46","258984","0.0-11.0-0.0-0.13","5565","pics2/VE6.jpg","","","26","null","","","","","","","","","",""
"image-slider-response","47","262400","0.0-11.0-0.0-0.14","3211","pics2/FR6.jpg","","","33","null","","","","","","","","","",""
"image-slider-response","48","264630","0.0-11.0-0.0-0.15","2026","pics2/SA6.jpg","","","50","null","","","","","","","","","",""
"image-slider-response","49","268067","0.0-11.0-0.0-0.16","3232","pics2/VE3.jpg","","","70","null","","","","","","","","","",""
"image-slider-response","50","271090","0.0-11.0-0.0-0.17","2816","pics2/SW6.jpg","","","50","null","","","","","","","","","",""
"image-slider-response","51","274267","0.0-11.0-0.0-0.18","2973","pics2/FR4.jpg","","","79","null","","","","","","","","","",""
"image-slider-response","52","277641","0.0-11.0-0.0-0.19","3168","pics2/SW2.jpg","","","100","null","","","","","","","","","",""
"image-slider-response","53","281332","0.0-11.0-0.0-0.20","3487","pics2/VE5.jpg","","","65","null","","","","","","","","","",""
"image-slider-response","54","284908","0.0-11.0-0.0-0.21","3371","pics2/FR3.jpg","","","79","null","","","","","","","","","",""
"image-slider-response","55","288158","0.0-11.0-0.0-0.22","3045","pics2/SA4.jpg","","","33","null","","","","","","","","","",""
"image-slider-response","56","291791","0.0-11.0-0.0-0.23","3428","pics2/VE2.jpg","","","75","null","","","","","","","","","",""
"html-button-response","57","293719","0.0-12.0","1724","<div style='width: 900px;'> <font size = 6><b> End of the second rating</b><br><br>","0","","","","","","","","","","","","",""
"html-button-response","58","306968","0.0-13.0","13247","<div style='width: 900px;'>Now please rate the items for the second time. <br><br>This is not a memory test - you don't need to be consistent with your previous ratings. Just as before, try to make accurate judgements.<br><br>","0","","","","","","","","","","","","",""
"html-button-response","59","308963","0.0-14.0","1991","<div><img src='heartS.png'></img></div><br><div style='text-align: justify; width: 700px'>Using the mouse, rate the <b><i>likeness</b></i> of the food items (how much you like them/would like to eat them <i>right now</i>). Far right-end of the scale indicates an item you <i>like a lot</i>. Far left-end indicates an item you <i>dislike a lot</i>. Think about each answer.   <ul><li>Try <b><i>not</b></i> to give identical rating to different items.</li><li>Use the whole scale, and <b><i>not</b></i> just the extremes</ul></div><br>","0","","","","","","","","","","","","",""
"image-slider-response","60","311798","0.0-15.0-0.0-0.0","2830","pics2/FR3.jpg","","","99","FR","","","","","","","","","",""
"image-slider-response","61","315032","0.0-15.0-0.0-0.1","3029","pics2/VE5.jpg","","","63","VE","","","","","","","","","",""
"image-slider-response","62","317478","0.0-15.0-0.0-0.2","2240","pics2/SA5.jpg","","","50","SA","","","","","","","","","",""
"image-slider-response","63","320331","0.0-15.0-0.0-0.3","2649","pics2/SA3.jpg","","","77","SA","","","","","","","","","",""
"image-slider-response","64","325101","0.0-15.0-0.0-0.4","4565","pics2/SW6.jpg","","","93","SW","","","","","","","","","",""
"image-slider-response","65","328816","0.0-15.0-0.0-0.5","3511","pics2/SA4.jpg","","","100","SA","","","","","","","","","",""
"image-slider-response","66","332447","0.0-15.0-0.0-0.6","3426","pics2/FR4.jpg","","","80","FR","","","","","","","","","",""
"image-slider-response","67","336136","0.0-15.0-0.0-0.7","3483","pics2/SA1.jpg","","","50","SA","","","","","","","","","",""
"image-slider-response","68","339577","0.0-15.0-0.0-0.8","3236","pics2/VE2.jpg","","","33","VE","","","","","","","","","",""
"image-slider-response","69","343653","0.0-15.0-0.0-0.9","3871","pics2/FR2.jpg","","","82","FR","","","","","","","","","",""
"image-slider-response","70","346279","0.0-15.0-0.0-0.10","2420","pics2/FR1.jpg","","","83","FR","","","","","","","","","",""
"image-slider-response","71","351653","0.0-15.0-0.0-0.11","5170","pics2/FR6.jpg","","","81","FR","","","","","","","","","",""
"image-slider-response","72","354646","0.0-15.0-0.0-0.12","2787","pics2/VE3.jpg","","","31","VE","","","","","","","","","",""
"image-slider-response","73","361771","0.0-15.0-0.0-0.13","6920","pics2/SW5.jpg","","","52","SW","","","","","","","","","",""
"image-slider-response","74","364994","0.0-15.0-0.0-0.14","3018","pics2/VE4.jpg","","","43","VE","","","","","","","","","",""
"image-slider-response","75","368081","0.0-15.0-0.0-0.15","2883","pics2/SW2.jpg","","","23","SW","","","","","","","","","",""
"image-slider-response","76","372624","0.0-15.0-0.0-0.16","4338","pics2/SA6.jpg","","","0","SA","","","","","","","","","",""
"image-slider-response","77","379486","0.0-15.0-0.0-0.17","6656","pics2/VE1.jpg","","","18","VE","","","","","","","","","",""
"image-slider-response","78","382844","0.0-15.0-0.0-0.18","3154","pics2/SW1.jpg","","","81","SW","","","","","","","","","",""
"image-slider-response","79","386060","0.0-15.0-0.0-0.19","3012","pics2/SA2.jpg","","","81","SA","","","","","","","","","",""
"image-slider-response","80","390576","0.0-15.0-0.0-0.20","4309","pics2/SW4.jpg","","","53","SW","","","","","","","","","",""
"image-slider-response","81","393100","0.0-15.0-0.0-0.21","2317","pics2/VE6.jpg","","","50","VE","","","","","","","","","",""
"image-slider-response","82","396210","0.0-15.0-0.0-0.22","2906","pics2/SW3.jpg","","","100","SW","","","","","","","","","",""
"image-slider-response","83","399443","0.0-15.0-0.0-0.23","3028","pics2/FR5.jpg","","","37","FR","","","","","","","","","",""
"call-function","84","399666","0.0-16.0","","","","","","","","","","","","","","","",""
"call-function","85","399672","0.0-17.0","","","","","","","","","","","","","","","",""
"html-button-response","86","401047","0.0-18.0","1374","<div style='width: 900px;'> <font size = 6><b> End of the first rating</b><br><br>","0","","","","","","","","","","","","",""
"html-button-response","87","405041","0.0-19.0","3990","<div ><img src='sizeS.png'></img></div><br><div style='text-align: justify; width: 700px'> Using the mouse, rate the <b><i>size</b></i> of the food items <b><i> relative to the white background.</b></i> Right-end of the scale indicates a <i>very large item</i>, which covers a large portion of the white rectangle. Left-end indicates a <i>very tiny</i> item which covers a tiny portion of the white rectangle.<br><br><i><u>Remember</i></u>: everything that is not the white background also contributes to item size (e.g. packing, plates, ect.)<br><br> Please keep in mind that if the accuracy of ratings do not allign well with actual sizes, the experiment will end.  As a result it will be consider incomplete and therefore no payment would be made. Good luck!<br><br></div><br>","0","","","","","","","","","","","","",""
"image-slider-response","88","412505","0.0-20.0-0.0-0.0","7461","pics2/VE1.jpg","","","95","null","","","","","","","","","",""
"image-slider-response","89","417409","0.0-20.0-0.0-0.1","4699","pics2/VE4.jpg","","","75","null","","","","","","","","","",""
"image-slider-response","90","423600","0.0-20.0-0.0-0.2","5987","pics2/FR4.jpg","","","87","null","","","","","","","","","",""
"image-slider-response","91","427900","0.0-20.0-0.0-0.3","4095","pics2/VE3.jpg","","","93","null","","","","","","","","","",""
"image-slider-response","92","433130","0.0-20.0-0.0-0.4","5026","pics2/SW5.jpg","","","66","null","","","","","","","","","",""
"image-slider-response","93","438375","0.0-20.0-0.0-0.5","5040","pics2/SA6.jpg","","","62","null","","","","","","","","","",""
"image-slider-response","94","440872","0.0-20.0-0.0-0.6","2294","pics2/SA5.jpg","","","50","null","","","","","","","","","",""
"image-slider-response","95","443967","0.0-20.0-0.0-0.7","2890","pics2/SW1.jpg","","","100","null","","","","","","","","","",""
"image-slider-response","96","447748","0.0-20.0-0.0-0.8","3577","pics2/FR3.jpg","","","81","null","","","","","","","","","",""
"image-slider-response","97","449896","0.0-20.0-0.0-0.9","1943","pics2/SW6.jpg","","","50","null","","","","","","","","","",""
"image-slider-response","98","454032","0.0-20.0-0.0-0.10","3932","pics2/VE5.jpg","","","71","null","","","","","","","","","",""
"image-slider-response","99","457107","0.0-20.0-0.0-0.11","2870","pics2/SA1.jpg","","","100","null","","","","","","","","","",""
"image-slider-response","100","461978","0.0-20.0-0.0-0.12","4666","pics2/SW4.jpg","","","74","null","","","","","","","","","",""
"image-slider-response","101","466240","0.0-20.0-0.0-0.13","4057","pics2/FR2.jpg","","","100","null","","","","","","","","","",""
"image-slider-response","102","469782","0.0-20.0-0.0-0.14","3338","pics2/SA4.jpg","","","33","null","","","","","","","","","",""
"image-slider-response","103","471837","0.0-20.0-0.0-0.15","1850","pics2/SA3.jpg","","","50","null","","","","","","","","","",""
"image-slider-response","104","475888","0.0-20.0-0.0-0.16","3847","pics2/VE2.jpg","","","81","null","","","","","","","","","",""
"image-slider-response","105","480709","0.0-20.0-0.0-0.17","4616","pics2/SW3.jpg","","","92","null","","","","","","","","","",""
"image-slider-response","106","482823","0.0-20.0-0.0-0.18","1910","pics2/FR6.jpg","","","50","null","","","","","","","","","",""
"image-slider-response","107","484711","0.0-20.0-0.0-0.19","1685","pics2/SA2.jpg","","","50","null","","","","","","","","","",""
"image-slider-response","108","487746","0.0-20.0-0.0-0.20","2831","pics2/VE6.jpg","","","43","null","","","","","","","","","",""
"image-slider-response","109","490822","0.0-20.0-0.0-0.21","2871","pics2/FR5.jpg","","","74","null","","","","","","","","","",""
"image-slider-response","110","496830","0.0-20.0-0.0-0.22","5804","pics2/SW2.jpg","","","100","null","","","","","","","","","",""
"image-slider-response","111","500829","0.0-20.0-0.0-0.23","3793","pics2/FR1.jpg","","","70","null","","","","","","","","","",""
"call-function","112","501043","0.0-21.0","","","","","","","","","","","","","","","",""
"html-button-response","113","502584","0.0-22.0","1540","<div style='width: 900px;'> <font size = 6><b> End of the second rating</b><br><br>","0","","","","","","","","","","","","",""
"pavlovia","114","502608","0.0-23.0","","","","","","","","","","","","","","","",""
"html-keyboard-response","115","507615","0.0-24.0","null","<div style='width: 700px;'> <font size=6><b>SHORT BREAK</font></b><br><br><i> Please wait 5 seconds to continue</i></div> ","","","","","","null","","","","","","","",""
"pavlovia","116","507620","0.0-25.0","","","","","","","","","","","","","","","",""
"html-button-response","117","518251","0.0-26.0","10628","<div style='width: 700px;'>In the main part of the study, you will be choosing between 2 items. When it's time to choose,  this symbol will appear: <br><br><img src='chooseS.png'></img><br><br>Below, a cue will signify the type of choice: </div><br><div style='width: 700px;'><div style='float: left; width: 50%'><img src='heartS.png'></img><p class='small'>Heart cue means you should choose the item you <b><i>prefer</b></i> more.</p></div><div class='float: right; width:50%'><img src='sizeS.png'></img><p class='small'>Size cue means you should choose the <b><i>larger</b></i> item. </p></div></div><br><div style='width: 700px;'>When you click, a green square will appear around the item you chose.<br></div><div><br>","0","","","","","","","","","","","","",""
"image-selector-fb-tut","118","523843","0.0-27.0","4580","0232.jpg,0123.jpg","","","","","","","false","0","","","","","",""
"image-selector-fb-tut","119","529415","0.0-28.0","4563","0232.jpg,0123.jpg","","","","","","","true","1","","","","","",""
"html-button-response","120","536254","0.0-29.0","6836","<div style='width: 900px;'>Your choices should be both <b><i>fast and accurate</b></i>. <br><br>You will have <i>4 seconds</i> to make each choice, which should be enough consider the options and click on one of the items.<br><br>","0","","","","","","","","","","","","",""
"html-button-response","121","545860","0.0-30.0","9603","<div style='width: 900px;'>Additionally, on some choice trials you will see the <b><i>no-choice cue</b></i>: <br><br><img src='noS.png'></img> <br><br>This cue means you can't make any choice. You can examine the items, but  can't click on any of them. Just wait patiently for the cue to dissapear.<br><br>","0","","","","","","","","","","","","",""
"image-selector-fb-tut","122","547881","0.0-31.0","null","0232.jpg,0123.jpg","","","","","","","false","null","","","","","",""
"html-button-response","123","566811","0.0-32.0","18925","<div style='width: 900px;'>After each choice the items will remain on the screen and you will see this symbol: <br><br><img src='judgeS.png'></img> <br><br>This means you should rate<b> the magnitude of the difference</b> between the items using a scale: </div><br><div style='width: 900px; '><div style='float: left; width: 50%; margin-right: 2.5em; align-self:left'><img src='heartS.png'></img><p class='small' style = 'text-align: justify;'>Heart cue means you should rate <b>how much you prefer</b> one of the items over the other. Moving the scale indicator to the left means you prefer the left one; moving it to the right - right one. The more you prefer one of them, the more towards that side you should move the scale indicator. </p></div><div class='float: right; width: 50%; margin-left: 2.5em;'><img src='sizeS.png'></img><p class='small' style='text-align: justify'>Size cue means you should rate <b>how much larger</b> is one of the items over the other. Moving the scale indicator to the left means you think the left is larger; moving it to the right - right one. The greater the difference in size, the more towards that side you should move the scale indicator.</div><br>","0","","","","","","","","","","","","",""
"image-slider-2AFC-tut","124","571842","0.0-33.0","5024","","","","50","","","","","","","","","","",""
"image-slider-2AFC-tut","125","578367","0.0-34.0","6522","","","","59","","","","","","5162","59","","","",""
"html-button-response","126","590163","0.0-35.0","11793","<br><br><font size = 36><b> Examples </b></font><br><br><i> 1) I would like to eat some croissants a <b>lot more</b> than doritos right now:</i><br><img src='ex1.PNG', width='62%'></img><br><br><br><i> 2) I would like to eat some doritos a <b>bit more</b> than croissants right now, but just slightly:</i><br><img src='ex2.PNG' width='62%'></img>","0","","","","","","","","","","","","",""
"html-button-response","127","593375","0.0-36.0","3210","<div style='width: 900px;'><i>Now you know everything you need to do the task!</i> <br><br>Let's start by doing a <b>short training</b>, so you'll get used to how it works. </div><br>","0","","","","","","","","","","","","",""
"image-selector-fb","128","596389","0.0-37.0-0.0","null","pics2/VE4.jpg,pics2/SA6.jpg","","","","","","","false","null","","","noS.png","","",""
"image-slider-2AFC","129","601398","0.0-37.0-1.0","null","","","","null","","","","","","","","sizeS.png","","",""
"html-keyboard-response","130","602103","0.0-37.0-2.0","null","","","","","","","null","","","","","","","",""
"image-selector-fb","131","605419","0.0-37.1-0.1","2803","pics2/SW5.jpg,pics2/SA6.jpg","","","","","","","false","0","","","heartS.png","","",""
"image-slider-2AFC","132","610426","0.0-37.1-1.1","null","","","","null","","","","","","","","sizeS.png","2940,3956","34,97",""
"html-keyboard-response","133","611281","0.0-37.1-2.1","null","","","","","","","null","","","","","","","",""
"image-selector-fb","134","614294","0.0-37.2-0.2","null","pics2/VE4.jpg,pics2/SW4.jpg","","","","","","","false","null","","","noS.png","","",""
"image-slider-2AFC","135","619302","0.0-37.2-1.2","null","","","","null","","","","","","","","sizeS.png","","",""
"html-keyboard-response","136","620105","0.0-37.2-2.2","null","","","","","","","null","","","","","","","",""
"image-selector-fb","137","623116","0.0-37.3-0.3","null","pics2/SA6.jpg,pics2/SW4.jpg","","","","","","","false","null","","","noS.png","","",""
"image-slider-2AFC","138","628123","0.0-37.3-1.3","null","","","","null","","","","","","","","heartS.png","","",""
"html-keyboard-response","139","628827","0.0-37.3-2.3","null","","","","","","","null","","","","","","","",""
"image-selector-fb","140","632393","0.0-37.4-0.4","3055","pics2/FR5.jpg,pics2/VE2.jpg","","","","","","","true","1","","","sizeS.png","","",""
"image-slider-2AFC","141","637399","0.0-37.4-1.4","null","","","","null","","","","","","","","sizeS.png","","",""
"html-keyboard-response","142","638253","0.0-37.4-2.4","null","","","","","","","null","","","","","","","",""
"image-selector-fb","143","641266","0.0-37.5-0.5","2504","pics2/SW5.jpg,pics2/VE5.jpg","","","","","","","false","0","","","heartS.png","","",""
"image-slider-2AFC","144","645465","0.0-37.5-1.5","4194","","","","66","","","","","","","","heartS.png","2213,3198","31,66",""
"html-keyboard-response","145","646319","0.0-37.5-2.5","null","","","","","","","null","","","","","","","",""
"image-selector-fb","146","649328","0.0-37.6-0.6","null","pics2/VE4.jpg,pics2/VE5.jpg","","","","","","","false","null","","","noS.png","","",""
"image-slider-2AFC","147","653788","0.0-37.6-1.6","4455","","","","28","","","","","","","","heartS.png","3168","28",""
"html-keyboard-response","148","654492","0.0-37.6-2.6","null","","","","","","","null","","","","","","","",""
"image-selector-fb","149","658115","0.0-37.7-0.7","3114","pics2/VE6.jpg,pics2/VE3.jpg","","","","","","","true","1","","","sizeS.png","","",""
"image-slider-2AFC","150","662282","0.0-37.7-1.7","4162","","","","29","","","","","","","","sizeS.png","3096","29",""
"html-keyboard-response","151","663036","0.0-37.7-2.7","null","","","","","","","null","","","","","","","",""
"image-selector-fb","152","665914","0.0-37.8-0.8","2369","pics2/SW5.jpg,pics2/SW4.jpg","","","","","","","false","0","","","heartS.png","","",""
"image-slider-2AFC","153","670920","0.0-37.8-1.8","null","","","","null","","","","","","","","sizeS.png","3604","-49",""
"html-keyboard-response","154","671624","0.0-37.8-2.8","null","","","","","","","null","","","","","","","",""
"image-selector-fb","155","674632","0.0-37.9-0.9","2499","pics2/VE1.jpg,pics2/VE3.jpg","","","","","","","true","1","","","heartS.png","","",""
"image-slider-2AFC","156","679638","0.0-37.9-1.9","null","","","","null","","","","","","","","sizeS.png","4144","-66",""
"html-keyboard-response","157","680391","0.0-37.9-2.9","null","","","","","","","null","","","","","","","",""
"image-selector-fb","158","683243","0.0-37.10-0.10","2344","pics2/SW5.jpg,pics2/VE2.jpg","","","","","","","false","0","","","heartS.png","","",""
"image-slider-2AFC","159","685668","0.0-37.10-1.10","2420","","","","56","","","","","","","","heartS.png","1454","56",""
"html-keyboard-response","160","686521","0.0-37.10-2.10","null","","","","","","","null","","","","","","","",""
"image-selector-fb","161","689021","0.0-37.11-0.11","1991","pics2/SA5.jpg,pics2/SW4.jpg","","","","","","","true","1","","","heartS.png","","",""
"image-slider-2AFC","162","691692","0.0-37.11-1.11","2666","","","","45","","","","","","","","sizeS.png","1664","45",""
"html-keyboard-response","163","692395","0.0-37.11-2.11","null","","","","","","","null","","","","","","","",""
"html-button-response","164","695819","0.0-38.0","3421","<i><font size=10>Good job!</font></i> <br><br>Before we begin, you have a chance to review the rules, in case something was not clear.<br><br>","0","","","","","","","","","","","","",""
"instructions","165","748665","0.0-39.0","52844","","","","","","","","","","","","","","","[{""page_index"":0,""viewing_time"":11618},{""page_index"":1,""viewing_time"":2573},{""page_index"":2,""viewing_time"":38652}]"
"html-button-response","166","750912","0.0-40.0","2245","<div style='width: 900px;'> <font size='40'>Great! Now you're ready to begin</font><br><br>The main part of the experiment will consist of <u>3 blocks</u>. Each block consists of 66 decisions and judgements. You will have time for a short break between blocks.<br><br><br><i><u>Do your best to respond within the time limit.</u></i><br><br><i> Press the button to start the experiment<br><br></i>","0","","","","","","","","","","","","",""
"image-selector-fb","167","753922","0.0-41.0-0.0","null","pics2/SW6.jpg,pics2/SW1.jpg","","","","","","","false","null","","","noS.png","","",""
"image-slider-2AFC","168","757357","0.0-41.0-1.0","3431","","","","-43","","","","","","","","heartS.png","2417","-43",""
"html-keyboard-response","169","758211","0.0-41.0-2.0","null","","","","","","","null","","","","","","","",""
"image-selector-fb","170","762116","0.0-41.1-0.1","3396","pics2/SA4.jpg,pics2/FR3.jpg","","","","","","","true","1","","","sizeS.png","","",""
"image-slider-2AFC","171","767122","0.0-41.1-1.1","null","","","","null","","","","","","","","sizeS.png","3534","40",""
"html-keyboard-response","172","767826","0.0-41.1-2.1","null","","","","","","","null","","","","","","","",""
"image-selector-fb","173","770159","0.0-41.2-0.2","1824","pics2/SA3.jpg,pics2/SW6.jpg","","","","","","","true","1","","","heartS.png","","",""
"image-slider-2AFC","174","772689","0.0-41.2-1.2","2525","","","","85","","","","","","","","heartS.png","1462","85",""
"html-keyboard-response","175","773393","0.0-41.2-2.2","null","","","","","","","null","","","","","","","",""
"image-selector-fb","176","776390","0.0-41.3-0.3","2489","pics2/SW1.jpg,pics2/SA1.jpg","","","","","","","false","0","","","heartS.png","","",""
"image-slider-2AFC","177","779681","0.0-41.3-1.3","3286","","","","-32","","","","","","","","sizeS.png","2340","-32",""
"html-keyboard-response","178","780435","0.0-41.3-2.3","null","","","","","","","null","","","","","","","",""
"image-selector-fb","179","783446","0.0-41.4-0.4","null","pics2/FR4.jpg,pics2/SA1.jpg","","","","","","","false","null","","","noS.png","","",""
"image-slider-2AFC","180","787030","0.0-41.4-1.4","3580","","","","55","","","","","","","","heartS.png","2560","55",""
"html-keyboard-response","181","787783","0.0-41.4-2.4","null","","","","","","","null","","","","","","","",""
"image-selector-fb","182","790481","0.0-41.5-0.5","2190","pics2/FR3.jpg,pics2/FR4.jpg","","","","","","","false","0","","","heartS.png","","",""
"image-slider-2AFC","183","793649","0.0-41.5-1.5","3164","","","","-68","","","","","","","","heartS.png","2264","-68",""
"html-keyboard-response","184","794503","0.0-41.5-2.5","null","","","","","","","null","","","","","","","",""
"image-selector-fb","185","797027","0.0-41.6-0.6","2014","pics2/FR4.jpg,pics2/FR2.jpg","","","","","","","false","0","","","heartS.png","","",""
"image-slider-2AFC","186","799614","0.0-41.6-1.6","2582","","","","-19","","","","","","","","heartS.png","1552","-19",""
"html-keyboard-response","187","800418","0.0-41.6-2.6","null","","","","","","","null","","","","","","","",""
"image-selector-fb","188","802415","0.0-41.7-0.7","1488","pics2/SW6.jpg,pics2/FR6.jpg","","","","","","","false","0","","","heartS.png","","",""
"image-slider-2AFC","189","804738","0.0-41.7-1.7","2318","","","","-81","","","","","","","","heartS.png","1155","-81",""
"html-keyboard-response","190","805542","0.0-41.7-2.7","null","","","","","","","null","","","","","","","",""
"image-selector-fb","191","808553","0.0-41.8-0.8","null","pics2/SA1.jpg,pics2/FR3.jpg","","","","","","","false","null","","","noS.png","","",""
"image-slider-2AFC","192","811262","0.0-41.8-1.8","2705","","","","-77","","","","","","","","sizeS.png","1700","-77",""
"html-keyboard-response","193","811965","0.0-41.8-2.8","null","","","","","","","null","","","","","","","",""
"image-selector-fb","194","814794","0.0-41.9-0.9","2320","pics2/SW1.jpg,pics2/FR4.jpg","","","","","","","false","0","","","heartS.png","","",""
"image-slider-2AFC","195","817056","0.0-41.9-1.9","2257","","","","-50","","","","","","","","heartS.png","1292","-50",""
"html-keyboard-response","196","817910","0.0-41.9-2.9","null","","","","","","","null","","","","","","","",""
"image-selector-fb","197","821015","0.0-41.10-0.10","2597","pics2/SW3.jpg,pics2/SA4.jpg","","","","","","","true","1","","","heartS.png","","",""
"image-slider-2AFC","198","824188","0.0-41.10-1.10","3168","","","","-34","","","","","","","","sizeS.png","1597,2272","-58,-34",""
"html-keyboard-response","199","824892","0.0-41.10-2.10","null","","","","","","","null","","","","","","","",""
"image-selector-fb","200","827085","0.0-41.11-0.11","1685","pics2/SA3.jpg,pics2/SA4.jpg","","","","","","","true","1","","","heartS.png","","",""
"image-slider-2AFC","201","829250","0.0-41.11-1.11","2160","","","","86","","","","","","","","heartS.png","1100","86",""
"html-keyboard-response","202","829955","0.0-41.11-2.11","null","","","","","","","null","","","","","","","",""
"image-selector-fb","203","832965","0.0-41.12-0.12","null","pics2/FR6.jpg,pics2/SW1.jpg","","","","","","","false","null","","","noS.png","","",""
"image-slider-2AFC","204","836211","0.0-41.12-1.12","3241","","","","67","","","","","","","","sizeS.png","1320,2213","83,67",""
"html-keyboard-response","205","837015","0.0-41.12-2.12","null","","","","","","","null","","","","","","","",""
"image-selector-fb","206","839671","0.0-41.13-0.13","2147","pics2/SW3.jpg,pics2/FR3.jpg","","","","","","","false","0","","","heartS.png","","",""
"image-slider-2AFC","207","842473","0.0-41.13-1.13","2797","","","","-58","","","","","","","","heartS.png","1856","-58",""
"html-keyboard-response","208","843327","0.0-41.13-2.13","null","","","","","","","null","","","","","","","",""
"image-selector-fb","209","846054","0.0-41.14-0.14","2219","pics2/SA4.jpg,pics2/FR2.jpg","","","","","","","true","1","","","sizeS.png","","",""
"image-slider-2AFC","210","849038","0.0-41.14-1.14","2980","","","","-61","","","","","","","","heartS.png","2063","-61",""
"html-keyboard-response","211","849892","0.0-41.14-2.14","null","","","","","","","null","","","","","","","",""
"image-selector-fb","212","852906","0.0-41.15-0.15","null","pics2/FR3.jpg,pics2/SA4.jpg","","","","","","","false","null","","","noS.png","","",""
"image-slider-2AFC","213","856131","0.0-41.15-1.15","3219","","","","-67","","","","","","","","sizeS.png","2327","-67",""
"html-keyboard-response","214","856985","0.0-41.15-2.15","null","","","","","","","null","","","","","","","",""
"image-selector-fb","215","859887","0.0-41.16-0.16","2392","pics2/SA2.jpg,pics2/FR2.jpg","","","","","","","true","1","","","sizeS.png","","",""
"image-slider-2AFC","216","864143","0.0-41.16-1.16","4252","","","","-64","","","","","","","","heartS.png","3383","-64",""
"html-keyboard-response","217","864847","0.0-41.16-2.16","null","","","","","","","null","","","","","","","",""
"image-selector-fb","218","867353","0.0-41.17-0.17","1995","pics2/FR6.jpg,pics2/SA4.jpg","","","","","","","true","1","","","heartS.png","","",""
"image-slider-2AFC","219","869995","0.0-41.17-1.17","2637","","","","-40","","","","","","","","sizeS.png","1555","-40",""
"html-keyboard-response","220","870849","0.0-41.17-2.17","null","","","","","","","null","","","","","","","",""
"image-selector-fb","221","874328","0.0-41.18-0.18","2970","pics2/SA3.jpg,pics2/SA1.jpg","","","","","","","true","1","","","heartS.png","","",""
"image-slider-2AFC","222","876809","0.0-41.18-1.18","2476","","","","38","","","","","","","","heartS.png","1437","38",""
"html-keyboard-response","223","877613","0.0-41.18-2.18","null","","","","","","","null","","","","","","","",""
"image-selector-fb","224","880623","0.0-41.19-0.19","null","pics2/SA1.jpg,pics2/SA4.jpg","","","","","","","false","null","","","noS.png","","",""
"image-slider-2AFC","225","884968","0.0-41.19-1.19","4340","","","","67","","","","","","","","heartS.png","3368","67",""
"html-keyboard-response","226","885772","0.0-41.19-2.19","null","","","","","","","null","","","","","","","",""
"image-selector-fb","227","888782","0.0-41.20-0.20","null","pics2/FR2.jpg,pics2/FR1.jpg","","","","","","","false","null","","","noS.png","","",""
"image-slider-2AFC","228","892433","0.0-41.20-1.20","3647","","","","-31","","","","","","","","sizeS.png","2635","-31",""
"html-keyboard-response","229","893187","0.0-41.20-2.20","null","","","","","","","null","","","","","","","",""
"image-selector-fb","230","896837","0.0-41.21-0.21","3141","pics2/SA1.jpg,pics2/FR2.jpg","","","","","","","true","1","","","sizeS.png","","",""
"image-slider-2AFC","231","900932","0.0-41.21-1.21","4091","","","","5","","","","","","","","sizeS.png","2849","5",""
"html-keyboard-response","232","901786","0.0-41.21-2.21","null","","","","","","","null","","","","","","","",""
"image-selector-fb","233","906245","0.0-41.22-0.22","3952","pics2/SA1.jpg,pics2/SW3.jpg","","","","","","","false","0","","","sizeS.png","","",""
"image-slider-2AFC","234","908891","0.0-41.22-1.22","2642","","","","76","","","","","","","","heartS.png","1503","76",""
"html-keyboard-response","235","909695","0.0-41.22-2.22","null","","","","","","","null","","","","","","","",""
"image-selector-fb","236","912705","0.0-41.23-0.23","null","pics2/SA2.jpg,pics2/SW6.jpg","","","","","","","false","null","","","noS.png","","",""
"image-slider-2AFC","237","917382","0.0-41.23-1.23","4673","","","","63","","","","","","","","heartS.png","3768","63",""
"html-keyboard-response","238","918086","0.0-41.23-2.23","null","","","","","","","null","","","","","","","",""
"image-selector-fb","239","921098","0.0-41.24-0.24","null","pics2/SA3.jpg,pics2/SW1.jpg","","","","","","","false","null","","","noS.png","","",""
"image-slider-2AFC","240","924773","0.0-41.24-1.24","3670","","","","40","","","","","","","","sizeS.png","2707","40",""
"html-keyboard-response","241","925626","0.0-41.24-2.24","null","","","","","","","null","","","","","","","",""
"image-selector-fb","242","928636","0.0-41.25-0.25","null","pics2/SW6.jpg,pics2/SW3.jpg","","","","","","","false","null","","","noS.png","","",""
"image-slider-2AFC","243","931907","0.0-41.25-1.25","3266","","","","60","","","","","","","","sizeS.png","2152","60",""
"html-keyboard-response","244","932711","0.0-41.25-2.25","null","","","","","","","null","","","","","","","",""
"image-selector-fb","245","936284","0.0-41.26-0.26","3065","pics2/FR4.jpg,pics2/SA1.jpg","","","","","","","false","0","","","heartS.png","","",""
"image-slider-2AFC","246","939314","0.0-41.26-1.26","3026","","","","-10","","","","","","","","heartS.png","2055","-10",""
"html-keyboard-response","247","940067","0.0-41.26-2.26","null","","","","","","","null","","","","","","","",""
"image-selector-fb","248","944069","0.0-41.27-0.27","3493","pics2/SA2.jpg,pics2/FR1.jpg","","","","","","","true","1","","","sizeS.png","","",""
"image-slider-2AFC","249","946917","0.0-41.27-1.27","2843","","","","-18","","","","","","","","heartS.png","1703","-18",""
"html-keyboard-response","250","947671","0.0-41.27-2.27","null","","","","","","","null","","","","","","","",""
"image-selector-fb","251","950327","0.0-41.28-0.28","2148","pics2/SW1.jpg,pics2/SA4.jpg","","","","","","","true","1","","","heartS.png","","",""
"image-slider-2AFC","252","952963","0.0-41.28-1.28","2631","","","","-62","","","","","","","","sizeS.png","1726","-62",""
"html-keyboard-response","253","953817","0.0-41.28-2.28","null","","","","","","","null","","","","","","","",""
"image-selector-fb","254","956426","0.0-41.29-0.29","2101","pics2/SW3.jpg,pics2/SA3.jpg","","","","","","","false","0","","","heartS.png","","",""
"image-slider-2AFC","255","959046","0.0-41.29-1.29","2615","","","","-86","","","","","","","","heartS.png","1627","-86",""
"html-keyboard-response","256","959751","0.0-41.29-2.29","null","","","","","","","null","","","","","","","",""
"image-selector-fb","257","962866","0.0-41.30-0.30","2604","pics2/FR1.jpg,pics2/SW1.jpg","","","","","","","true","1","","","sizeS.png","","",""
"image-slider-2AFC","258","965399","0.0-41.30-1.30","2528","","","","47","","","","","","","","heartS.png","1562","47",""
"html-keyboard-response","259","966253","0.0-41.30-2.30","null","","","","","","","null","","","","","","","",""
"image-selector-fb","260","969110","0.0-41.31-0.31","2347","pics2/SW3.jpg,pics2/FR6.jpg","","","","","","","false","0","","","heartS.png","","",""
"image-slider-2AFC","261","971423","0.0-41.31-1.31","2308","","","","-37","","","","","","","","heartS.png","1335","-37",""
"html-keyboard-response","262","972227","0.0-41.31-2.31","null","","","","","","","null","","","","","","","",""
"image-selector-fb","263","975237","0.0-41.32-0.32","null","pics2/SA2.jpg,pics2/SA1.jpg","","","","","","","false","null","","","noS.png","","",""
"image-slider-2AFC","264","979658","0.0-41.32-1.32","4416","","","","59","","","","","","","","sizeS.png","3366","59",""
"html-keyboard-response","265","980411","0.0-41.32-2.32","null","","","","","","","null","","","","","","","",""
"image-selector-fb","266","983421","0.0-41.33-0.33","null","pics2/FR3.jpg,pics2/SW3.jpg","","","","","","","false","null","","","noS.png","","",""
"image-slider-2AFC","267","986403","0.0-41.33-1.33","2977","","","","64","","","","","","","","heartS.png","1939","64",""
"html-keyboard-response","268","987107","0.0-41.33-2.33","null","","","","","","","null","","","","","","","",""
"image-selector-fb","269","990117","0.0-41.34-0.34","null","pics2/SA3.jpg,pics2/FR3.jpg","","","","","","","false","null","","","noS.png","","",""
"image-slider-2AFC","270","995016","0.0-41.34-1.34","4894","","","","57","","","","","","","","heartS.png","3976","57",""
"html-keyboard-response","271","995869","0.0-41.34-2.34","null","","","","","","","null","","","","","","","",""
"image-selector-fb","272","999167","0.0-41.35-0.35","2790","pics2/FR3.jpg,pics2/SA3.jpg","","","","","","","false","0","","","sizeS.png","","",""
"image-slider-2AFC","273","1001486","0.0-41.35-1.35","2314","","","","-43","","","","","","","","heartS.png","1401","-43",""
"html-keyboard-response","274","1002240","0.0-41.35-2.35","null","","","","","","","null","","","","","","","",""
"image-selector-fb","275","1004552","0.0-41.36-0.36","1803","pics2/FR1.jpg,pics2/SW6.jpg","","","","","","","true","1","","","heartS.png","","",""
"image-slider-2AFC","276","1007144","0.0-41.36-1.36","2587","","","","62","","","","","","","","heartS.png","1524","62",""
"html-keyboard-response","277","1007898","0.0-41.36-2.36","null","","","","","","","null","","","","","","","",""
"image-selector-fb","278","1011087","0.0-41.37-0.37","2673","pics2/FR1.jpg,pics2/FR6.jpg","","","","","","","false","0","","","heartS.png","","",""
"image-slider-2AFC","279","1015007","0.0-41.37-1.37","3915","","","","-46","","","","","","","","sizeS.png","2987","-46",""
"html-keyboard-response","280","1015811","0.0-41.37-2.37","null","","","","","","","null","","","","","","","",""
"image-selector-fb","281","1019863","0.0-41.38-0.38","3544","pics2/FR2.jpg,pics2/SW3.jpg","","","","","","","false","0","","","sizeS.png","","",""
"image-slider-2AFC","282","1023367","0.0-41.38-1.38","3499","","","","-33","","","","","","","","sizeS.png","2537","-33",""
"html-keyboard-response","283","1024071","0.0-41.38-2.38","null","","","","","","","null","","","","","","","",""
"image-selector-fb","284","1027304","0.0-41.39-0.39","2724","pics2/SA4.jpg,pics2/FR4.jpg","","","","","","","true","1","","","sizeS.png","","",""
"image-slider-2AFC","285","1030275","0.0-41.39-1.39","2968","","","","24","","","","","","","","sizeS.png","1889","24",""
"html-keyboard-response","286","1030979","0.0-41.39-2.39","null","","","","","","","null","","","","","","","",""
"image-selector-fb","287","1033469","0.0-41.40-0.40","1982","pics2/SA4.jpg,pics2/FR1.jpg","","","","","","","true","1","","","sizeS.png","","",""
"image-slider-2AFC","288","1036925","0.0-41.40-1.40","3452","","","","-44","","","","","","","","heartS.png","1389,2533","41,-44",""
"html-keyboard-response","289","1037629","0.0-41.40-2.40","null","","","","","","","null","","","","","","","",""
"image-selector-fb","290","1040203","0.0-41.41-0.41","2065","pics2/SA2.jpg,pics2/FR6.jpg","","","","","","","true","1","","","sizeS.png","","",""
"image-slider-2AFC","291","1043134","0.0-41.41-1.41","2927","","","","27","","","","","","","","sizeS.png","1914","27",""
"html-keyboard-response","292","1043938","0.0-41.41-2.41","null","","","","","","","null","","","","","","","",""
"image-selector-fb","293","1047061","0.0-41.42-0.42","2615","pics2/SA3.jpg,pics2/FR1.jpg","","","","","","","true","1","","","heartS.png","","",""
"image-slider-2AFC","294","1049858","0.0-41.42-1.42","2792","","","","36","","","","","","","","heartS.png","1754","36",""
"html-keyboard-response","295","1050711","0.0-41.42-2.42","null","","","","","","","null","","","","","","","",""
"image-selector-fb","296","1053724","0.0-41.43-0.43","null","pics2/FR4.jpg,pics2/FR3.jpg","","","","","","","false","null","","","noS.png","","",""
"image-slider-2AFC","297","1058002","0.0-41.43-1.43","4273","","","","80","","","","","","","","heartS.png","2666,3285","49,80",""
"html-keyboard-response","298","1058707","0.0-41.43-2.43","null","","","","","","","null","","","","","","","",""
"image-selector-fb","299","1061144","0.0-41.44-0.44","1928","pics2/SA1.jpg,pics2/SA2.jpg","","","","","","","true","1","","","heartS.png","","",""
"image-slider-2AFC","300","1064366","0.0-41.44-1.44","3217","","","","59","","","","","","","","heartS.png","1996","59",""
"html-keyboard-response","301","1065220","0.0-41.44-2.44","null","","","","","","","null","","","","","","","",""
"image-selector-fb","302","1068850","0.0-41.45-0.45","3121","pics2/SW6.jpg,pics2/SW3.jpg","","","","","","","true","1","","","sizeS.png","","",""
"image-slider-2AFC","303","1072541","0.0-41.45-1.45","3686","","","","-44","","","","","","","","heartS.png","2765","-44",""
"html-keyboard-response","304","1073244","0.0-41.45-2.45","null","","","","","","","null","","","","","","","",""
"image-selector-fb","305","1075767","0.0-41.46-0.46","2014","pics2/FR3.jpg,pics2/SA2.jpg","","","","","","","false","0","","","heartS.png","","",""
"image-slider-2AFC","306","1078465","0.0-41.46-1.46","2694","","","","-59","","","","","","","","heartS.png","1638","-59",""
"html-keyboard-response","307","1079269","0.0-41.46-2.46","null","","","","","","","null","","","","","","","",""
"image-selector-fb","308","1083475","0.0-41.47-0.47","3697","pics2/FR2.jpg,pics2/SW1.jpg","","","","","","","true","1","","","sizeS.png","","",""
"image-slider-2AFC","309","1086740","0.0-41.47-1.47","3260","","","","-29","","","","","","","","heartS.png","2271","-29",""
"html-keyboard-response","310","1087544","0.0-41.47-2.47","null","","","","","","","null","","","","","","","",""
"image-selector-fb","311","1090554","0.0-41.48-0.48","null","pics2/FR1.jpg,pics2/SW1.jpg","","","","","","","false","null","","","noS.png","","",""
"image-slider-2AFC","312","1095372","0.0-41.48-1.48","4815","","","","-41","","","","","","","","sizeS.png","4028","-41",""
"html-keyboard-response","313","1096176","0.0-41.48-2.48","null","","","","","","","null","","","","","","","",""
"image-selector-fb","314","1099186","0.0-41.49-0.49","null","pics2/FR2.jpg,pics2/SW1.jpg","","","","","","","false","null","","","noS.png","","",""
"image-slider-2AFC","315","1102531","0.0-41.49-1.49","3342","","","","4","","","","","","","","heartS.png","2337","4",""
"html-keyboard-response","316","1103285","0.0-41.49-2.49","null","","","","","","","null","","","","","","","",""
"image-selector-fb","317","1105933","0.0-41.50-0.50","2134","pics2/SW6.jpg,pics2/FR2.jpg","","","","","","","false","0","","","heartS.png","","",""
"image-slider-2AFC","318","1109121","0.0-41.50-1.50","3183","","","","34","","","","","","","","sizeS.png","1963","34",""
"html-keyboard-response","319","1109826","0.0-41.50-2.50","null","","","","","","","null","","","","","","","",""
"image-selector-fb","320","1113190","0.0-41.51-0.51","2856","pics2/SW1.jpg,pics2/FR1.jpg","","","","","","","false","0","","","heartS.png","","",""
"image-slider-2AFC","321","1118197","0.0-41.51-1.51","null","","","","null","","","","","","","","sizeS.png","","",""
"html-keyboard-response","322","1118901","0.0-41.51-2.51","null","","","","","","","null","","","","","","","",""
"image-selector-fb","323","1122741","0.0-41.52-0.52","3331","pics2/FR6.jpg,pics2/SW1.jpg","","","","","","","true","1","","","sizeS.png","","",""
"image-slider-2AFC","324","1126029","0.0-41.52-1.52","3284","","","","49","","","","","","","","sizeS.png","2163","49",""
"html-keyboard-response","325","1126832","0.0-41.52-2.52","null","","","","","","","null","","","","","","","",""
"image-selector-fb","326","1130240","0.0-41.53-0.53","2899","pics2/SA4.jpg,pics2/SA3.jpg","","","","","","","true","1","","","sizeS.png","","",""
"image-slider-2AFC","327","1132462","0.0-41.53-1.53","2217","","","","28","","","","","","","","sizeS.png","1205","28",""
"html-keyboard-response","328","1133165","0.0-41.53-2.53","null","","","","","","","null","","","","","","","",""
"image-selector-fb","329","1136175","0.0-41.54-0.54","null","pics2/SW3.jpg,pics2/SW1.jpg","","","","","","","false","null","","","noS.png","","",""
"image-slider-2AFC","330","1139436","0.0-41.54-1.54","3257","","","","-36","","","","","","","","heartS.png","2036","-36",""
"html-keyboard-response","331","1140290","0.0-41.54-2.54","null","","","","","","","null","","","","","","","",""
"image-selector-fb","332","1143622","0.0-41.55-0.55","2824","pics2/SW1.jpg,pics2/SA2.jpg","","","","","","","true","1","","","heartS.png","","",""
"image-slider-2AFC","333","1146587","0.0-41.55-1.55","2960","","","","43","","","","","","","","heartS.png","1921","43",""
"html-keyboard-response","334","1147446","0.0-41.55-2.55","null","","","","","","","null","","","","","","","",""
"image-selector-fb","335","1150548","0.0-41.56-0.56","2592","pics2/SW1.jpg,pics2/FR2.jpg","","","","","","","false","0","","","heartS.png","","",""
"image-slider-2AFC","336","1154052","0.0-41.56-1.56","3499","","","","-3","","","","","","","","sizeS.png","2526","-3",""
"html-keyboard-response","337","1154756","0.0-41.56-2.56","null","","","","","","","null","","","","","","","",""
"image-selector-fb","338","1157766","0.0-41.57-0.57","null","pics2/SA2.jpg,pics2/SA4.jpg","","","","","","","false","null","","","noS.png","","",""
"image-slider-2AFC","339","1160802","0.0-41.57-1.57","3031","","","","53","","","","","","","","heartS.png","1916","53",""
"html-keyboard-response","340","1161605","0.0-41.57-2.57","null","","","","","","","null","","","","","","","",""
"image-selector-fb","341","1164696","0.0-41.58-0.58","2583","pics2/SA2.jpg,pics2/SW3.jpg","","","","","","","true","1","","","sizeS.png","","",""
"image-slider-2AFC","342","1167185","0.0-41.58-1.58","2485","","","","48","","","","","","","","sizeS.png","1447","48",""
"html-keyboard-response","343","1167989","0.0-41.58-2.58","null","","","","","","","null","","","","","","","",""
"image-selector-fb","344","1170999","0.0-41.59-0.59","null","pics2/FR6.jpg,pics2/FR3.jpg","","","","","","","false","null","","","noS.png","","",""
"image-slider-2AFC","345","1173734","0.0-41.59-1.59","2731","","","","50","","","","","","","","heartS.png","1702","50",""
"html-keyboard-response","346","1174438","0.0-41.59-2.59","null","","","","","","","null","","","","","","","",""
"image-selector-fb","347","1176776","0.0-41.60-0.60","1829","pics2/SA3.jpg,pics2/FR3.jpg","","","","","","","true","1","","","heartS.png","","",""
"image-slider-2AFC","348","1179975","0.0-41.60-1.60","3194","","","","-32","","","","","","","","sizeS.png","2315","-32",""
"html-keyboard-response","349","1180779","0.0-41.60-2.60","null","","","","","","","null","","","","","","","",""
"image-selector-fb","350","1183789","0.0-41.61-0.61","null","pics2/FR4.jpg,pics2/SW1.jpg","","","","","","","false","null","","","noS.png","","",""
"image-slider-2AFC","351","1186616","0.0-41.61-1.61","2823","","","","31","","","","","","","","sizeS.png","1829","31",""
"html-keyboard-response","352","1187469","0.0-41.61-2.61","null","","","","","","","null","","","","","","","",""
"image-selector-fb","353","1189883","0.0-41.62-0.62","1905","pics2/FR3.jpg,pics2/FR2.jpg","","","","","","","false","0","","","heartS.png","","",""
"image-slider-2AFC","354","1192400","0.0-41.62-1.62","2513","","","","54","","","","","","","","sizeS.png","1451","54",""
"html-keyboard-response","355","1193154","0.0-41.62-2.62","null","","","","","","","null","","","","","","","",""
"image-selector-fb","356","1196128","0.0-41.63-0.63","2466","pics2/SA2.jpg,pics2/SA3.jpg","","","","","","","true","1","","","sizeS.png","","",""
"image-slider-2AFC","357","1199740","0.0-41.63-1.63","3607","","","","25","","","","","","","","sizeS.png","1680","25",""
"html-keyboard-response","358","1200494","0.0-41.63-2.63","null","","","","","","","null","","","","","","","",""
"image-selector-fb","359","1203609","0.0-41.64-0.64","2600","pics2/FR1.jpg,pics2/SA4.jpg","","","","","","","true","1","","","heartS.png","","",""
"image-slider-2AFC","360","1207167","0.0-41.64-1.64","3553","","","","58","","","","","","","","heartS.png","1901,2550","23,58",""
"html-keyboard-response","361","1208021","0.0-41.64-2.64","null","","","","","","","null","","","","","","","",""
"image-selector-fb","362","1210211","0.0-41.65-0.65","1680","pics2/SW3.jpg,pics2/FR2.jpg","","","","","","","false","0","","","heartS.png","","",""
"image-slider-2AFC","363","1214184","0.0-41.65-1.65","3968","","","","14","","","","","","","","sizeS.png","2821","14",""
"html-keyboard-response","364","1215037","0.0-41.65-2.65","null","","","","","","","null","","","","","","","",""
"pavlovia","365","1215072","0.0-42.0","","","","","","","","","","","","","","","",""
"html-keyboard-response","366","1220075","0.0-43.0","null","<div style='width: 700px;'> <font size=6><b>SHORT BREAK</font></b><br><br><i> Please wait 5 seconds to continue</i></div> ","","","","","","null","","","","","","","",""
"pavlovia","367","1220080","0.0-44.0","","","","","","","","","","","","","","","",""
"html-button-response","368","1227112","0.0-45.0","7031","<div style='width: 700px;'> <font size=6><b>BLOCK 2</font></b><br><br>Press the button whenever you feel ready to start the second block (there are 3 in total)</div>","0","","","","","","","","","","","","",""
"image-selector-fb","369","1230122","0.0-46.0-0.0","null","pics2/FR2.jpg,pics2/SW6.jpg","","","","","","","false","null","","","noS.png","","",""
"image-slider-2AFC","370","1233733","0.0-46.0-1.0","3606","","","","83","","","","","","","","heartS.png","1951,2611","61,83",""
"html-keyboard-response","371","1234587","0.0-46.0-2.0","null","","","","","","","null","","","","","","","",""
"image-selector-fb","372","1237599","0.0-46.1-0.1","null","pics2/FR4.jpg,pics2/SA4.jpg","","","","","","","false","null","","","noS.png","","",""
"image-slider-2AFC","373","1239764","0.0-46.1-1.1","2162","","","","-15","","","","","","","","sizeS.png","1179","-15",""
"html-keyboard-response","374","1240518","0.0-46.1-2.1","null","","","","","","","null","","","","","","","",""
"image-selector-fb","375","1243750","0.0-46.2-0.2","2723","pics2/FR1.jpg,pics2/SW3.jpg","","","","","","","false","0","","","sizeS.png","","",""
"image-slider-2AFC","376","1246573","0.0-46.2-1.2","2819","","","","-20","","","","","","","","sizeS.png","1864","-20",""
"html-keyboard-response","377","1247327","0.0-46.2-2.2","null","","","","","","","null","","","","","","","",""
"image-selector-fb","378","1249542","0.0-46.3-0.3","1699","pics2/SA4.jpg,pics2/SA1.jpg","","","","","","","true","1","","","sizeS.png","","",""
"image-slider-2AFC","379","1252991","0.0-46.3-1.3","3444","","","","-92","","","","","","","","heartS.png","1421,2681","-74,-92",""
"html-keyboard-response","380","1253695","0.0-46.3-2.3","null","","","","","","","null","","","","","","","",""
"image-selector-fb","381","1256706","0.0-46.4-0.4","null","pics2/FR2.jpg,pics2/SA4.jpg","","","","","","","false","null","","","noS.png","","",""
"image-slider-2AFC","382","1258727","0.0-46.4-1.4","2015","","","","81","","","","","","","","heartS.png","891","81",""
"html-keyboard-response","383","1259429","0.0-46.4-2.4","null","","","","","","","null","","","","","","","",""
"image-selector-fb","384","1262707","0.0-46.5-0.5","2769","pics2/SA1.jpg,pics2/SW1.jpg","","","","","","","false","0","","","sizeS.png","","",""
"image-slider-2AFC","385","1265715","0.0-46.5-1.5","3003","","","","-32","","","","","","","","sizeS.png","2106","-32",""
"html-keyboard-response","386","1266569","0.0-46.5-2.5","null","","","","","","","null","","","","","","","",""
"image-selector-fb","387","1269280","0.0-46.6-0.6","2197","pics2/FR4.jpg,pics2/SW1.jpg","","","","","","","true","1","","","sizeS.png","","",""
"image-slider-2AFC","388","1272806","0.0-46.6-1.6","3521","","","","23","","","","","","","","heartS.png","2508","23",""
"html-keyboard-response","389","1273661","0.0-46.6-2.6","null","","","","","","","null","","","","","","","",""
"image-selector-fb","390","1276672","0.0-46.7-0.7","null","pics2/SA3.jpg,pics2/SA4.jpg","","","","","","","false","null","","","noS.png","","",""
"image-slider-2AFC","391","1279827","0.0-46.7-1.7","3150","","","","-30","","","","","","","","sizeS.png","1124","-30",""
"html-keyboard-response","392","1280531","0.0-46.7-2.7","null","","","","","","","null","","","","","","","",""
"image-selector-fb","393","1283083","0.0-46.8-0.8","2042","pics2/SA1.jpg,pics2/FR6.jpg","","","","","","","false","0","","","sizeS.png","","",""
"image-slider-2AFC","394","1285738","0.0-46.8-1.8","2651","","","","-7","","","","","","","","heartS.png","1604","-7",""
"html-keyboard-response","395","1286542","0.0-46.8-2.8","null","","","","","","","null","","","","","","","",""
"image-selector-fb","396","1288781","0.0-46.9-0.9","1731","pics2/SW6.jpg,pics2/SA1.jpg","","","","","","","false","0","","","heartS.png","","",""
"image-slider-2AFC","397","1292280","0.0-46.9-1.9","3494","","","","66","","","","","","","","sizeS.png","2356","66",""
"html-keyboard-response","398","1293134","0.0-46.9-2.9","null","","","","","","","null","","","","","","","",""
"image-selector-fb","399","1295952","0.0-46.10-0.10","2309","pics2/SW1.jpg,pics2/SW3.jpg","","","","","","","false","0","","","sizeS.png","","",""
"image-slider-2AFC","400","1299137","0.0-46.10-1.10","3180","","","","64","","","","","","","","heartS.png","2157","64",""
"html-keyboard-response","401","1299991","0.0-46.10-2.10","null","","","","","","","null","","","","","","","",""
"image-selector-fb","402","1303001","0.0-46.11-0.11","null","pics2/SA2.jpg,pics2/FR3.jpg","","","","","","","false","null","","","noS.png","","",""
"image-slider-2AFC","403","1304978","0.0-46.11-1.11","1972","","","","36","","","","","","","","sizeS.png","993","36",""
"html-keyboard-response","404","1305732","0.0-46.11-2.11","null","","","","","","","null","","","","","","","",""
"image-selector-fb","405","1308363","0.0-46.12-0.12","2123","pics2/SW6.jpg,pics2/FR1.jpg","","","","","","","true","1","","","sizeS.png","","",""
"image-slider-2AFC","406","1311037","0.0-46.12-1.12","2669","","","","47","","","","","","","","sizeS.png","1581","47",""
"html-keyboard-response","407","1311741","0.0-46.12-2.12","null","","","","","","","null","","","","","","","",""
"image-selector-fb","408","1314751","0.0-46.13-0.13","null","pics2/FR1.jpg,pics2/SA4.jpg","","","","","","","false","null","","","noS.png","","",""
"image-slider-2AFC","409","1317928","0.0-46.13-1.13","3172","","","","-52","","","","","","","","sizeS.png","2325","-52",""
"html-keyboard-response","410","1318732","0.0-46.13-2.13","null","","","","","","","null","","","","","","","",""
"image-selector-fb","411","1321038","0.0-46.14-0.14","1798","pics2/SW3.jpg,pics2/FR1.jpg","","","","","","","false","0","","","heartS.png","","",""
"image-slider-2AFC","412","1323845","0.0-46.14-1.14","2802","","","","-13","","","","","","","","sizeS.png","1785","-13",""
"html-keyboard-response","413","1324549","0.0-46.14-2.14","null","","","","","","","null","","","","","","","",""
"image-selector-fb","414","1327559","0.0-46.15-0.15","null","pics2/SA3.jpg,pics2/SW3.jpg","","","","","","","false","null","","","noS.png","","",""
"image-slider-2AFC","415","1329911","0.0-46.15-1.15","2347","","","","77","","","","","","","","heartS.png","1400","77",""
"html-keyboard-response","416","1330765","0.0-46.15-2.15","null","","","","","","","null","","","","","","","",""
"image-selector-fb","417","1333775","0.0-46.16-0.16","null","pics2/FR6.jpg,pics2/SA4.jpg","","","","","","","false","null","","","noS.png","","",""
"image-slider-2AFC","418","1336944","0.0-46.16-1.16","3164","","","","25","","","","","","","","sizeS.png","2160","25",""
"html-keyboard-response","419","1337748","0.0-46.16-2.16","null","","","","","","","null","","","","","","","",""
"image-selector-fb","420","1340758","0.0-46.17-0.17","null","pics2/FR4.jpg,pics2/SW6.jpg","","","","","","","false","null","","","noS.png","","",""
"image-slider-2AFC","421","1343202","0.0-46.17-1.17","2439","","","","-21","","","","","","","","sizeS.png","1433","-21",""
"html-keyboard-response","422","1343955","0.0-46.17-2.17","null","","","","","","","null","","","","","","","",""
"image-selector-fb","423","1346966","0.0-46.18-0.18","null","pics2/FR2.jpg,pics2/SW3.jpg","","","","","","","false","null","","","noS.png","","",""
"image-slider-2AFC","424","1349992","0.0-46.18-1.18","3022","","","","-16","","","","","","","","sizeS.png","2044","-16",""
"html-keyboard-response","425","1350745","0.0-46.18-2.18","null","","","","","","","null","","","","","","","",""
"image-selector-fb","426","1352995","0.0-46.19-0.19","1741","pics2/SW1.jpg,pics2/SW6.jpg","","","","","","","true","1","","","heartS.png","","",""
"image-slider-2AFC","427","1355929","0.0-46.19-1.19","2929","","","","-27","","","","","","","","sizeS.png","1938","-27",""
"html-keyboard-response","428","1356683","0.0-46.19-2.19","null","","","","","","","null","","","","","","","",""
"image-selector-fb","429","1359692","0.0-46.20-0.20","null","pics2/SA1.jpg,pics2/SW6.jpg","","","","","","","false","null","","","noS.png","","",""
"image-slider-2AFC","430","1363317","0.0-46.20-1.20","3620","","","","98","","","","","","","","heartS.png","1848,2562","88,98",""
"html-keyboard-response","431","1364170","0.0-46.20-2.20","null","","","","","","","null","","","","","","","",""
"image-selector-fb","432","1367181","0.0-46.21-0.21","null","pics2/SA3.jpg,pics2/FR2.jpg","","","","","","","false","null","","","noS.png","","",""
"image-slider-2AFC","433","1370225","0.0-46.21-1.21","3039","","","","52","","","","","","","","sizeS.png","1835","52",""
"html-keyboard-response","434","1371079","0.0-46.21-2.21","null","","","","","","","null","","","","","","","",""
"image-selector-fb","435","1373535","0.0-46.22-0.22","1947","pics2/SW1.jpg,pics2/FR6.jpg","","","","","","","false","0","","","heartS.png","","",""
"image-slider-2AFC","436","1376391","0.0-46.22-1.22","2846","","","","-30","","","","","","","","heartS.png","1751","-30",""
"html-keyboard-response","437","1377246","0.0-46.22-2.22","null","","","","","","","null","","","","","","","",""
"image-selector-fb","438","1380257","0.0-46.23-0.23","null","pics2/FR1.jpg,pics2/FR6.jpg","","","","","","","false","null","","","noS.png","","",""
"image-slider-2AFC","439","1382743","0.0-46.23-1.23","2481","","","","-47","","","","","","","","sizeS.png","1340","-47",""
"html-keyboard-response","440","1383597","0.0-46.23-2.23","null","","","","","","","null","","","","","","","",""
"image-selector-fb","441","1386606","0.0-46.24-0.24","null","pics2/SA3.jpg,pics2/SW6.jpg","","","","","","","false","null","","","noS.png","","",""
"image-slider-2AFC","442","1389806","0.0-46.24-1.24","3196","","","","-38","","","","","","","","sizeS.png","2333","-38",""
"html-keyboard-response","443","1390611","0.0-46.24-2.24","null","","","","","","","null","","","","","","","",""
"image-selector-fb","444","1393042","0.0-46.25-0.25","1922","pics2/FR3.jpg,pics2/SW1.jpg","","","","","","","true","1","","","sizeS.png","","",""
"image-slider-2AFC","445","1396166","0.0-46.25-1.25","3119","","","","32","","","","","","","","sizeS.png","2172","32",""
"html-keyboard-response","446","1396869","0.0-46.25-2.25","null","","","","","","","null","","","","","","","",""
"image-selector-fb","447","1399880","0.0-46.26-0.26","null","pics2/SA4.jpg,pics2/SW1.jpg","","","","","","","false","null","","","noS.png","","",""
"image-slider-2AFC","448","1403082","0.0-46.26-1.26","3199","","","","42","","","","","","","","sizeS.png","2086","42",""
"html-keyboard-response","449","1403787","0.0-46.26-2.26","null","","","","","","","null","","","","","","","",""
"image-selector-fb","450","1406642","0.0-46.27-0.27","2346","pics2/SW6.jpg,pics2/SW1.jpg","","","","","","","true","1","","","sizeS.png","","",""
"image-slider-2AFC","451","1409168","0.0-46.27-1.27","2521","","","","61","","","","","","","","sizeS.png","1388","61",""
"html-keyboard-response","452","1409872","0.0-46.27-2.27","null","","","","","","","null","","","","","","","",""
"image-selector-fb","453","1412258","0.0-46.28-0.28","1878","pics2/SA2.jpg,pics2/SA1.jpg","","","","","","","true","1","","","sizeS.png","","",""
"image-slider-2AFC","454","1415365","0.0-46.28-1.28","3102","","","","-20","","","","","","","","heartS.png","1963","-20",""
"html-keyboard-response","455","1416219","0.0-46.28-2.28","null","","","","","","","null","","","","","","","",""
"image-selector-fb","456","1419236","0.0-46.29-0.29","null","pics2/FR2.jpg,pics2/FR3.jpg","","","","","","","false","null","","","noS.png","","",""
"image-slider-2AFC","457","1421998","0.0-46.29-1.29","2757","","","","-49","","","","","","","","sizeS.png","1635","-49",""
"html-keyboard-response","458","1422852","0.0-46.29-2.29","null","","","","","","","null","","","","","","","",""
"image-selector-fb","459","1425434","0.0-46.30-0.30","2073","pics2/SW3.jpg,pics2/SW1.jpg","","","","","","","false","0","","","heartS.png","","",""
"image-slider-2AFC","460","1428989","0.0-46.30-1.30","3551","","","","20","","","","","","","","sizeS.png","2480","20",""
"html-keyboard-response","461","1429843","0.0-46.30-2.30","null","","","","","","","null","","","","","","","",""
"image-selector-fb","462","1432547","0.0-46.31-0.31","2197","pics2/FR3.jpg,pics2/SW6.jpg","","","","","","","true","1","","","heartS.png","","",""
"image-slider-2AFC","463","1434456","0.0-46.31-1.31","1904","","","","-22","","","","","","","","sizeS.png","925","-22",""
"html-keyboard-response","464","1435160","0.0-46.31-2.31","null","","","","","","","null","","","","","","","",""
"image-selector-fb","465","1438340","0.0-46.32-0.32","2672","pics2/SW3.jpg,pics2/SW6.jpg","","","","","","","false","0","","","heartS.png","","",""
"image-slider-2AFC","466","1441304","0.0-46.32-1.32","2959","","","","-19","","","","","","","","sizeS.png","1897","-19",""
"html-keyboard-response","467","1442058","0.0-46.32-2.32","null","","","","","","","null","","","","","","","",""
"image-selector-fb","468","1444356","0.0-46.33-0.33","1790","pics2/FR6.jpg,pics2/SA2.jpg","","","","","","","true","1","","","heartS.png","","",""
"image-slider-2AFC","469","1447247","0.0-46.33-1.33","2886","","","","45","","","","","","","","heartS.png","1664","45",""
"html-keyboard-response","470","1448051","0.0-46.33-2.33","null","","","","","","","null","","","","","","","",""
"image-selector-fb","471","1450560","0.0-46.34-0.34","2000","pics2/SW6.jpg,pics2/FR4.jpg","","","","","","","false","0","","","heartS.png","","",""
"image-slider-2AFC","472","1453396","0.0-46.34-1.34","2832","","","","-16","","","","","","","","heartS.png","1835","-16",""
"html-keyboard-response","473","1454250","0.0-46.34-2.34","null","","","","","","","null","","","","","","","",""
"image-selector-fb","474","1457261","0.0-46.35-0.35","null","pics2/FR1.jpg,pics2/SW6.jpg","","","","","","","false","null","","","noS.png","","",""
"image-slider-2AFC","475","1460356","0.0-46.35-1.35","3091","","","","-36","","","","","","","","sizeS.png","1618","-36",""
"html-keyboard-response","476","1461159","0.0-46.35-2.35","null","","","","","","","null","","","","","","","",""
"image-selector-fb","477","1464169","0.0-46.36-0.36","null","pics2/FR1.jpg,pics2/SW3.jpg","","","","","","","false","null","","","noS.png","","",""
"image-slider-2AFC","478","1467112","0.0-46.36-1.36","2938","","","","79","","","","","","","","heartS.png","1241,1909","59,79",""
"html-keyboard-response","479","1467816","0.0-46.36-2.36","null","","","","","","","null","","","","","","","",""
"image-selector-fb","480","1470826","0.0-46.37-0.37","null","pics2/SA3.jpg,pics2/SA1.jpg","","","","","","","false","null","","","noS.png","","",""
"image-slider-2AFC","481","1474704","0.0-46.37-1.37","3868","","","","-11","","","","","","","","heartS.png","2230,3006","18,-11",""
"html-keyboard-response","482","1475408","0.0-46.37-2.37","null","","","","","","","null","","","","","","","",""
"image-selector-fb","483","1477938","0.0-46.38-0.38","2021","pics2/FR2.jpg,pics2/SA4.jpg","","","","","","","true","1","","","heartS.png","","",""
"image-slider-2AFC","484","1480562","0.0-46.38-1.38","2619","","","","79","","","","","","","","heartS.png","1546","79",""
"html-keyboard-response","485","1481315","0.0-46.38-2.38","null","","","","","","","null","","","","","","","",""
"image-selector-fb","486","1484092","0.0-46.39-0.39","2268","pics2/FR6.jpg,pics2/SA1.jpg","","","","","","","false","0","","","heartS.png","","",""
"image-slider-2AFC","487","1487144","0.0-46.39-1.39","3047","","","","79","","","","","","","","sizeS.png","1901","79",""
"html-keyboard-response","488","1487847","0.0-46.39-2.39","null","","","","","","","null","","","","","","","",""
"image-selector-fb","489","1490798","0.0-46.40-0.40","2442","pics2/FR4.jpg,pics2/FR6.jpg","","","","","","","false","0","","","heartS.png","","",""
"image-slider-2AFC","490","1494670","0.0-46.40-1.40","3867","","","","-32","","","","","","","","sizeS.png","2112,2954","-22,-32",""
"html-keyboard-response","491","1495523","0.0-46.40-2.40","null","","","","","","","null","","","","","","","",""
"image-selector-fb","492","1498508","0.0-46.41-0.41","2475","pics2/FR4.jpg,pics2/SW6.jpg","","","","","","","false","0","","","sizeS.png","","",""
"image-slider-2AFC","493","1501526","0.0-46.41-1.41","3014","","","","76","","","","","","","","heartS.png","1968","76",""
"html-keyboard-response","494","1502329","0.0-46.41-2.41","null","","","","","","","null","","","","","","","",""
"image-selector-fb","495","1505339","0.0-46.42-0.42","null","pics2/FR4.jpg,pics2/FR2.jpg","","","","","","","false","null","","","noS.png","","",""
"image-slider-2AFC","496","1508310","0.0-46.42-1.42","2966","","","","61","","","","","","","","sizeS.png","1977","61",""
"html-keyboard-response","497","1509064","0.0-46.42-2.42","null","","","","","","","null","","","","","","","",""
"image-selector-fb","498","1512469","0.0-46.43-0.43","2896","pics2/SA2.jpg,pics2/FR4.jpg","","","","","","","true","1","","","sizeS.png","","",""
"image-slider-2AFC","499","1515493","0.0-46.43-1.43","3019","","","","55","","","","","","","","sizeS.png","1955","55",""
"html-keyboard-response","500","1516301","0.0-46.43-2.43","null","","","","","","","null","","","","","","","",""
"image-selector-fb","501","1518754","0.0-46.44-0.44","1943","pics2/SA1.jpg,pics2/SA3.jpg","","","","","","","false","0","","","sizeS.png","","",""
"image-slider-2AFC","502","1521825","0.0-46.44-1.44","3065","","","","13","","","","","","","","heartS.png","2018","13",""
"html-keyboard-response","503","1522630","0.0-46.44-2.44","null","","","","","","","null","","","","","","","",""
"image-selector-fb","504","1525640","0.0-46.45-0.45","null","pics2/FR6.jpg,pics2/SW3.jpg","","","","","","","false","null","","","noS.png","","",""
"image-slider-2AFC","505","1528550","0.0-46.45-1.45","2905","","","","89","","","","","","","","heartS.png","1792","89",""
"html-keyboard-response","506","1529254","0.0-46.45-2.45","null","","","","","","","null","","","","","","","",""
"image-selector-fb","507","1531519","0.0-46.46-0.46","1755","pics2/SA3.jpg,pics2/SA2.jpg","","","","","","","true","1","","","heartS.png","","",""
"image-slider-2AFC","508","1534583","0.0-46.46-1.46","3059","","","","-19","","","","","","","","sizeS.png","2013","-19",""
"html-keyboard-response","509","1535437","0.0-46.46-2.46","null","","","","","","","null","","","","","","","",""
"image-selector-fb","510","1538343","0.0-46.47-0.47","2396","pics2/FR6.jpg,pics2/FR1.jpg","","","","","","","true","1","","","sizeS.png","","",""
"image-slider-2AFC","511","1542386","0.0-46.47-1.47","4038","","","","26","","","","","","","","sizeS.png","1947,2599,3147","68,47,26",""
"html-keyboard-response","512","1543190","0.0-46.47-2.47","null","","","","","","","null","","","","","","","",""
"image-selector-fb","513","1546010","0.0-46.48-0.48","2311","pics2/FR4.jpg,pics2/SA2.jpg","","","","","","","true","1","","","heartS.png","","",""
"image-slider-2AFC","514","1548965","0.0-46.48-1.48","2950","","","","-11","","","","","","","","sizeS.png","1930","-11",""
"html-keyboard-response","515","1549819","0.0-46.48-2.48","null","","","","","","","null","","","","","","","",""
"image-selector-fb","516","1552287","0.0-46.49-0.49","1958","pics2/FR6.jpg,pics2/SW3.jpg","","","","","","","true","1","","","sizeS.png","","",""
"image-slider-2AFC","517","1554481","0.0-46.49-1.49","2190","","","","72","","","","","","","","heartS.png","1144","72",""
"html-keyboard-response","518","1555186","0.0-46.49-2.49","null","","","","","","","null","","","","","","","",""
"image-selector-fb","519","1558196","0.0-46.50-0.50","null","pics2/SA3.jpg,pics2/FR6.jpg","","","","","","","false","null","","","noS.png","","",""
"image-slider-2AFC","520","1560190","0.0-46.50-1.50","1990","","","","-21","","","","","","","","sizeS.png","1008","-21",""
"html-keyboard-response","521","1560944","0.0-46.50-2.50","null","","","","","","","null","","","","","","","",""
"image-selector-fb","522","1563708","0.0-46.51-0.51","2255","pics2/FR4.jpg,pics2/FR3.jpg","","","","","","","false","0","","","sizeS.png","","",""
"image-slider-2AFC","523","1566264","0.0-46.51-1.51","2552","","","","-24","","","","","","","","sizeS.png","1516","-24",""
"html-keyboard-response","524","1567024","0.0-46.51-2.51","null","","","","","","","null","","","","","","","",""
"image-selector-fb","525","1570034","0.0-46.52-0.52","null","pics2/SA2.jpg,pics2/SW1.jpg","","","","","","","false","null","","","noS.png","","",""
"image-slider-2AFC","526","1573651","0.0-46.52-1.52","3612","","","","-60","","","","","","","","heartS.png","2412","-60",""
"html-keyboard-response","527","1574355","0.0-46.52-2.52","null","","","","","","","null","","","","","","","",""
"image-selector-fb","528","1576650","0.0-46.53-0.53","1786","pics2/FR1.jpg,pics2/FR4.jpg","","","","","","","true","1","","","heartS.png","","",""
"image-slider-2AFC","529","1580957","0.0-46.53-1.53","4302","","","","28","","","","","","","","sizeS.png","2362,3332","-20,28",""
"html-keyboard-response","530","1581711","0.0-46.53-2.53","null","","","","","","","null","","","","","","","",""
"image-selector-fb","531","1584722","0.0-46.54-0.54","null","pics2/FR4.jpg,pics2/FR6.jpg","","","","","","","false","null","","","noS.png","","",""
"image-slider-2AFC","532","1587218","0.0-46.54-1.54","2490","","","","-34","","","","","","","","sizeS.png","1523","-34",""
"html-keyboard-response","533","1588022","0.0-46.54-2.54","null","","","","","","","null","","","","","","","",""
"image-selector-fb","534","1591032","0.0-46.55-0.55","null","pics2/SA2.jpg,pics2/SW3.jpg","","","","","","","false","null","","","noS.png","","",""
"image-slider-2AFC","535","1593922","0.0-46.55-1.55","2886","","","","29","","","","","","","","sizeS.png","1813","29",""
"html-keyboard-response","536","1594776","0.0-46.55-2.55","null","","","","","","","null","","","","","","","",""
"image-selector-fb","537","1598543","0.0-46.56-0.56","3258","pics2/SA4.jpg,pics2/SW6.jpg","","","","","","","true","1","","","sizeS.png","","",""
"image-slider-2AFC","538","1603550","0.0-46.56-1.56","null","","","","null","","","","","","","","heartS.png","","",""
"html-keyboard-response","539","1604254","0.0-46.56-2.56","null","","","","","","","null","","","","","","","",""
"image-selector-fb","540","1607931","0.0-46.57-0.57","3168","pics2/FR2.jpg,pics2/FR3.jpg","","","","","","","false","0","","","sizeS.png","","",""
"image-slider-2AFC","541","1611371","0.0-46.57-1.57","3435","","","","-35","","","","","","","","sizeS.png","2431","-35",""
"html-keyboard-response","542","1612075","0.0-46.57-2.57","null","","","","","","","null","","","","","","","",""
"image-selector-fb","543","1615531","0.0-46.58-0.58","2943","pics2/FR3.jpg,pics2/SA4.jpg","","","","","","","true","1","","","heartS.png","","",""
"image-slider-2AFC","544","1618438","0.0-46.58-1.58","2902","","","","-32","","","","","","","","sizeS.png","1947","-32",""
"html-keyboard-response","545","1619242","0.0-46.58-2.58","null","","","","","","","null","","","","","","","",""
"image-selector-fb","546","1623505","0.0-46.59-0.59","3753","pics2/FR4.jpg,pics2/SW3.jpg","","","","","","","true","1","","","sizeS.png","","",""
"image-slider-2AFC","547","1626170","0.0-46.59-1.59","2660","","","","16","","","","","","","","sizeS.png","1590","16",""
"html-keyboard-response","548","1626973","0.0-46.59-2.59","null","","","","","","","null","","","","","","","",""
"image-selector-fb","549","1629639","0.0-46.60-0.60","2156","pics2/SA4.jpg,pics2/SW3.jpg","","","","","","","true","1","","","sizeS.png","","",""
"image-slider-2AFC","550","1632795","0.0-46.60-1.60","3151","","","","41","","","","","","","","sizeS.png","1463,2172","22,41",""
"html-keyboard-response","551","1633499","0.0-46.60-2.60","null","","","","","","","null","","","","","","","",""
"image-selector-fb","552","1636039","0.0-46.61-0.61","2030","pics2/SA4.jpg,pics2/SW1.jpg","","","","","","","true","1","","","sizeS.png","","",""
"image-slider-2AFC","553","1639285","0.0-46.61-1.61","3242","","","","-60","","","","","","","","heartS.png","2204","-60",""
"html-keyboard-response","554","1640039","0.0-46.61-2.61","null","","","","","","","null","","","","","","","",""
"image-selector-fb","555","1642863","0.0-46.62-0.62","2315","pics2/FR2.jpg,pics2/SW6.jpg","","","","","","","false","0","","","sizeS.png","","",""
"image-slider-2AFC","556","1645061","0.0-46.62-1.62","2194","","","","83","","","","","","","","heartS.png","1097","83",""
"html-keyboard-response","557","1645915","0.0-46.62-2.62","null","","","","","","","null","","","","","","","",""
"image-selector-fb","558","1648394","0.0-46.63-0.63","1970","pics2/SA3.jpg,pics2/FR4.jpg","","","","","","","true","1","","","heartS.png","","",""
"image-slider-2AFC","559","1651677","0.0-46.63-1.63","3278","","","","17","","","","","","","","sizeS.png","2266","17",""
"html-keyboard-response","560","1652431","0.0-46.63-2.63","null","","","","","","","null","","","","","","","",""
"image-selector-fb","561","1655444","0.0-46.64-0.64","null","pics2/SA2.jpg,pics2/FR2.jpg","","","","","","","false","null","","","noS.png","","",""
"image-slider-2AFC","562","1658459","0.0-46.64-1.64","3012","","","","-58","","","","","","","","heartS.png","1950","-58",""
"html-keyboard-response","563","1659313","0.0-46.64-2.64","null","","","","","","","null","","","","","","","",""
"image-selector-fb","564","1661715","0.0-46.65-0.65","1892","pics2/SA1.jpg,pics2/SA4.jpg","","","","","","","true","1","","","heartS.png","","",""
"image-slider-2AFC","565","1665501","0.0-46.65-1.65","3781","","","","-33","","","","","","","","sizeS.png","1502,2887","-23,-33",""
"html-keyboard-response","566","1666254","0.0-46.65-2.65","null","","","","","","","null","","","","","","","",""
"pavlovia","567","1666295","0.0-47.0","","","","","","","","","","","","","","","",""
"html-keyboard-response","568","1671298","0.0-48.0","null","<div style='width: 700px;'> <font size=6><b>SHORT BREAK</font></b><br><br><i> Please wait 5 seconds to continue</i></div> ","","","","","","null","","","","","","","",""
"pavlovia","569","1671311","0.0-49.0","","","","","","","","","","","","","","","",""
"html-button-response","570","1673997","0.0-50.0","2683","<div style='width: 700px;'> <font size=6><b>BLOCK 3</font></b><br><br>Press the button whenever you feel ready to start the third and final block</div>","0","","","","","","","","","","","","",""
"image-selector-fb","571","1676178","0.0-51.0-0.0","1672","pics2/SA2.jpg,pics2/SA4.jpg","","","","","","","true","1","","","heartS.png","","",""
"image-slider-2AFC","572","1678852","0.0-51.0-1.0","2669","","","","35","","","","","","","","heartS.png","1655","35",""
"html-keyboard-response","573","1679556","0.0-51.0-2.0","null","","","","","","","null","","","","","","","",""
"image-selector-fb","574","1682051","0.0-51.1-0.1","1985","pics2/SW3.jpg,pics2/SA1.jpg","","","","","","","false","0","","","heartS.png","","",""
"image-slider-2AFC","575","1685359","0.0-51.1-1.1","3303","","","","8","","","","","","","","sizeS.png","2072","8",""
"html-keyboard-response","576","1686213","0.0-51.1-2.1","null","","","","","","","null","","","","","","","",""
"image-selector-fb","577","1690627","0.0-51.2-0.2","3904","pics2/SA4.jpg,pics2/SA2.jpg","","","","","","","true","1","","","sizeS.png","","",""
"image-slider-2AFC","578","1693534","0.0-51.2-1.2","2902","","","","12","","","","","","","","sizeS.png","1723","12",""
"html-keyboard-response","579","1694387","0.0-51.2-2.2","null","","","","","","","null","","","","","","","",""
"image-selector-fb","580","1697913","0.0-51.3-0.3","3005","pics2/FR3.jpg,pics2/SW3.jpg","","","","","","","true","1","","","sizeS.png","","",""
"image-slider-2AFC","581","1701366","0.0-51.3-1.3","3448","","","","41","","","","","","","","heartS.png","2375","41",""
"html-keyboard-response","582","1702121","0.0-51.3-2.3","null","","","","","","","null","","","","","","","",""
"image-selector-fb","583","1705132","0.0-51.4-0.4","null","pics2/FR6.jpg,pics2/SW6.jpg","","","","","","","false","null","","","noS.png","","",""
"image-slider-2AFC","584","1707641","0.0-51.4-1.4","2503","","","","29","","","","","","","","sizeS.png","1432","29",""
"html-keyboard-response","585","1708495","0.0-51.4-2.4","null","","","","","","","null","","","","","","","",""
"image-selector-fb","586","1711126","0.0-51.5-0.5","2121","pics2/SA1.jpg,pics2/FR3.jpg","","","","","","","false","0","","","sizeS.png","","",""
"image-slider-2AFC","587","1713999","0.0-51.5-1.5","2869","","","","50","","","","","","","","heartS.png","1729","50",""
"html-keyboard-response","588","1714754","0.0-51.5-2.5","null","","","","","","","null","","","","","","","",""
"image-selector-fb","589","1717760","0.0-51.6-0.6","2497","pics2/FR4.jpg,pics2/SA3.jpg","","","","","","","false","0","","","sizeS.png","","",""
"image-slider-2AFC","590","1720269","0.0-51.6-1.6","2504","","","","-23","","","","","","","","sizeS.png","1413","-23",""
"html-keyboard-response","591","1721073","0.0-51.6-2.6","null","","","","","","","null","","","","","","","",""
"image-selector-fb","592","1724359","0.0-51.7-0.7","2776","pics2/FR3.jpg,pics2/FR1.jpg","","","","","","","true","1","","","sizeS.png","","",""
"image-slider-2AFC","593","1728058","0.0-51.7-1.7","3694","","","","28","","","","","","","","sizeS.png","2037,2765","43,28",""
"html-keyboard-response","594","1728762","0.0-51.7-2.7","null","","","","","","","null","","","","","","","",""
"image-selector-fb","595","1731329","0.0-51.8-0.8","2057","pics2/SA3.jpg,pics2/FR6.jpg","","","","","","","false","0","","","heartS.png","","",""
"image-slider-2AFC","596","1734489","0.0-51.8-1.8","3156","","","","-13","","","","","","","","sizeS.png","2102","-13",""
"html-keyboard-response","597","1735343","0.0-51.8-2.8","null","","","","","","","null","","","","","","","",""
"image-selector-fb","598","1737892","0.0-51.9-0.9","2039","pics2/SW6.jpg,pics2/SA4.jpg","","","","","","","true","1","","","heartS.png","","",""
"image-slider-2AFC","599","1741539","0.0-51.9-1.9","3642","","","","-13","","","","","","","","sizeS.png","2562","-13",""
"html-keyboard-response","600","1742393","0.0-51.9-2.9","null","","","","","","","null","","","","","","","",""
"image-selector-fb","601","1745232","0.0-51.10-0.10","2330","pics2/SW3.jpg,pics2/SA2.jpg","","","","","","","false","0","","","heartS.png","","",""
"image-slider-2AFC","602","1749163","0.0-51.10-1.10","3927","","","","-13","","","","","","","","heartS.png","3089","-13",""
"html-keyboard-response","603","1749867","0.0-51.10-2.10","null","","","","","","","null","","","","","","","",""
"image-selector-fb","604","1752878","0.0-51.11-0.11","null","pics2/SA3.jpg,pics2/FR1.jpg","","","","","","","false","null","","","noS.png","","",""
"image-slider-2AFC","605","1757642","0.0-51.11-1.11","4760","","","","-2","","","","","","","","heartS.png","2839","-2",""
"html-keyboard-response","606","1758347","0.0-51.11-2.11","null","","","","","","","null","","","","","","","",""
"image-selector-fb","607","1761573","0.0-51.12-0.12","2717","pics2/FR6.jpg,pics2/FR3.jpg","","","","","","","true","1","","","sizeS.png","","",""
"image-slider-2AFC","608","1764971","0.0-51.12-1.12","3392","","","","56","","","","","","","","heartS.png","2189","56",""
"html-keyboard-response","609","1765675","0.0-51.12-2.12","null","","","","","","","null","","","","","","","",""
"image-selector-fb","610","1768686","0.0-51.13-0.13","null","pics2/SA4.jpg,pics2/SW3.jpg","","","","","","","false","null","","","noS.png","","",""
"image-slider-2AFC","611","1772212","0.0-51.13-1.13","3522","","","","-4","","","","","","","","heartS.png","2268","-4",""
"html-keyboard-response","612","1772915","0.0-51.13-2.13","null","","","","","","","null","","","","","","","",""
"image-selector-fb","613","1776223","0.0-51.14-0.14","2797","pics2/SA1.jpg,pics2/FR1.jpg","","","","","","","false","0","","","sizeS.png","","",""
"image-slider-2AFC","614","1779570","0.0-51.14-1.14","3342","","","","-8","","","","","","","","sizeS.png","2154","-8",""
"html-keyboard-response","615","1780274","0.0-51.14-2.14","null","","","","","","","null","","","","","","","",""
"image-selector-fb","616","1783284","0.0-51.15-0.15","null","pics2/SA1.jpg,pics2/SW3.jpg","","","","","","","false","null","","","noS.png","","",""
"image-slider-2AFC","617","1786289","0.0-51.15-1.15","3001","","","","3","","","","","","","","sizeS.png","1576","3",""
"html-keyboard-response","618","1787093","0.0-51.15-2.15","null","","","","","","","null","","","","","","","",""
"image-selector-fb","619","1790101","0.0-51.16-0.16","null","pics2/SW6.jpg,pics2/FR3.jpg","","","","","","","false","null","","","noS.png","","",""
"image-slider-2AFC","620","1792548","0.0-51.16-1.16","2443","","","","27","","","","","","","","sizeS.png","1356","27",""
"html-keyboard-response","621","1793401","0.0-51.16-2.16","null","","","","","","","null","","","","","","","",""
"image-selector-fb","622","1795880","0.0-51.17-0.17","1971","pics2/FR6.jpg,pics2/SW6.jpg","","","","","","","false","0","","","sizeS.png","","",""
"image-slider-2AFC","623","1798453","0.0-51.17-1.17","2568","","","","-13","","","","","","","","sizeS.png","1522","-13",""
"html-keyboard-response","624","1799157","0.0-51.17-2.17","null","","","","","","","null","","","","","","","",""
"image-selector-fb","625","1802170","0.0-51.18-0.18","2505","pics2/SW6.jpg,pics2/SA3.jpg","","","","","","","true","1","","","sizeS.png","","",""
"image-slider-2AFC","626","1805258","0.0-51.18-1.18","3083","","","","-62","","","","","","","","heartS.png","2004","-62",""
"html-keyboard-response","627","1806011","0.0-51.18-2.18","null","","","","","","","null","","","","","","","",""
"image-selector-fb","628","1809607","0.0-51.19-0.19","3087","pics2/FR2.jpg,pics2/SA1.jpg","","","","","","","false","0","","","heartS.png","","",""
"image-slider-2AFC","629","1812038","0.0-51.19-1.19","2427","","","","-67","","","","","","","","heartS.png","1347","-67",""
"html-keyboard-response","630","1812742","0.0-51.19-2.19","null","","","","","","","null","","","","","","","",""
"image-selector-fb","631","1815458","0.0-51.20-0.20","2206","pics2/FR1.jpg,pics2/FR2.jpg","","","","","","","false","0","","","heartS.png","","",""
"image-slider-2AFC","632","1818503","0.0-51.20-1.20","3040","","","","-32","","","","","","","","heartS.png","1762","-32",""
"html-keyboard-response","633","1819357","0.0-51.20-2.20","null","","","","","","","null","","","","","","","",""
"image-selector-fb","634","1822447","0.0-51.21-0.21","2580","pics2/FR2.jpg,pics2/FR4.jpg","","","","","","","false","0","","","sizeS.png","","",""
"image-slider-2AFC","635","1824552","0.0-51.21-1.21","2095","","","","-23","","","","","","","","sizeS.png","1117","-23",""
"html-keyboard-response","636","1825406","0.0-51.21-2.21","null","","","","","","","null","","","","","","","",""
"image-selector-fb","637","1828180","0.0-51.22-0.22","2264","pics2/SA3.jpg,pics2/FR2.jpg","","","","","","","true","1","","","heartS.png","","",""
"image-slider-2AFC","638","1830435","0.0-51.22-1.22","2250","","","","19","","","","","","","","heartS.png","1230","19",""
"html-keyboard-response","639","1831188","0.0-51.22-2.22","null","","","","","","","null","","","","","","","",""
"image-selector-fb","640","1834199","0.0-51.23-0.23","null","pics2/SA3.jpg,pics2/SA2.jpg","","","","","","","false","null","","","noS.png","","",""
"image-slider-2AFC","641","1837510","0.0-51.23-1.23","3306","","","","70","","","","","","","","heartS.png","2190","70",""
"html-keyboard-response","642","1838263","0.0-51.23-2.23","null","","","","","","","null","","","","","","","",""
"image-selector-fb","643","1842357","0.0-51.24-0.24","3584","pics2/FR2.jpg,pics2/SA3.jpg","","","","","","","false","0","","","sizeS.png","","",""
"image-slider-2AFC","644","1844600","0.0-51.24-1.24","2238","","","","-29","","","","","","","","sizeS.png","1218","-29",""
"html-keyboard-response","645","1845454","0.0-51.24-2.24","null","","","","","","","null","","","","","","","",""
"image-selector-fb","646","1848369","0.0-51.25-0.25","2405","pics2/FR6.jpg,pics2/SA3.jpg","","","","","","","true","1","","","sizeS.png","","",""
"image-slider-2AFC","647","1851258","0.0-51.25-1.25","2884","","","","-25","","","","","","","","heartS.png","1829","-25",""
"html-keyboard-response","648","1852012","0.0-51.25-2.25","null","","","","","","","null","","","","","","","",""
"image-selector-fb","649","1856151","0.0-51.26-0.26","3630","pics2/FR2.jpg,pics2/FR1.jpg","","","","","","","true","1","","","sizeS.png","","",""
"image-slider-2AFC","650","1859774","0.0-51.26-1.26","3617","","","","22","","","","","","","","heartS.png","2513","22",""
"html-keyboard-response","651","1860478","0.0-51.26-2.26","null","","","","","","","null","","","","","","","",""
"image-selector-fb","652","1863280","0.0-51.27-0.27","2293","pics2/FR2.jpg,pics2/FR6.jpg","","","","","","","false","0","","","heartS.png","","",""
"image-slider-2AFC","653","1867182","0.0-51.27-1.27","3897","","","","-55","","","","","","","","sizeS.png","2160,2928","-35,-55",""
"html-keyboard-response","654","1867886","0.0-51.27-2.27","null","","","","","","","null","","","","","","","",""
"image-selector-fb","655","1870512","0.0-51.28-0.28","2113","pics2/SW1.jpg,pics2/FR3.jpg","","","","","","","true","1","","","heartS.png","","",""
"image-slider-2AFC","656","1872983","0.0-51.28-1.28","2466","","","","63","","","","","","","","heartS.png","1336","63",""
"html-keyboard-response","657","1873836","0.0-51.28-2.28","null","","","","","","","null","","","","","","","",""
"image-selector-fb","658","1876601","0.0-51.29-0.29","2254","pics2/SA2.jpg,pics2/SW1.jpg","","","","","","","true","1","","","sizeS.png","","",""
"image-slider-2AFC","659","1879023","0.0-51.29-1.29","2417","","","","-56","","","","","","","","heartS.png","1277","-56",""
"html-keyboard-response","660","1879827","0.0-51.29-2.29","null","","","","","","","null","","","","","","","",""
"image-selector-fb","661","1882838","0.0-51.30-0.30","null","pics2/FR4.jpg,pics2/SW3.jpg","","","","","","","false","null","","","noS.png","","",""
"image-slider-2AFC","662","1885573","0.0-51.30-1.30","2730","","","","83","","","","","","","","heartS.png","1585","83",""
"html-keyboard-response","663","1886276","0.0-51.30-2.30","null","","","","","","","null","","","","","","","",""
"image-selector-fb","664","1888608","0.0-51.31-0.31","1823","pics2/SW6.jpg,pics2/SA2.jpg","","","","","","","false","0","","","heartS.png","","",""
"image-slider-2AFC","665","1891197","0.0-51.31-1.31","2584","","","","-41","","","","","","","","heartS.png","1513","-41",""
"html-keyboard-response","666","1892001","0.0-51.31-2.31","null","","","","","","","null","","","","","","","",""
"image-selector-fb","667","1896510","0.0-51.32-0.32","null","pics2/SA2.jpg,pics2/SW6.jpg","","","","","","","false","null","","","sizeS.png","","",""
"image-slider-2AFC","668","1896512","0.0-51.32-1.32","null","","","","null","","","","","","","","heartS.png","","",""
"html-keyboard-response","669","1897266","0.0-51.32-2.32","null","","","","","","","null","","","","","","","",""
"image-selector-fb","670","1900277","0.0-51.33-0.33","null","pics2/SA1.jpg,pics2/SW1.jpg","","","","","","","false","null","","","noS.png","","",""
"image-slider-2AFC","671","1903364","0.0-51.33-1.33","3082","","","","27","","","","","","","","heartS.png","1919","27",""
"html-keyboard-response","672","1904218","0.0-51.33-2.33","null","","","","","","","null","","","","","","","",""
"image-selector-fb","673","1906502","0.0-51.34-0.34","1775","pics2/SA3.jpg,pics2/SW1.jpg","","","","","","","true","1","","","sizeS.png","","",""
"image-slider-2AFC","674","1909271","0.0-51.34-1.34","2763","","","","29","","","","","","","","heartS.png","1726","29",""
"html-keyboard-response","675","1910075","0.0-51.34-2.34","null","","","","","","","null","","","","","","","",""
"image-selector-fb","676","1913091","0.0-51.35-0.35","null","pics2/SW6.jpg,pics2/SA4.jpg","","","","","","","false","null","","","noS.png","","",""
"image-slider-2AFC","677","1915463","0.0-51.35-1.35","2367","","","","4","","","","","","","","heartS.png","1104","4",""
"html-keyboard-response","678","1916318","0.0-51.35-2.35","null","","","","","","","null","","","","","","","",""
"image-selector-fb","679","1919543","0.0-51.36-0.36","2715","pics2/SW1.jpg,pics2/SA3.jpg","","","","","","","false","0","","","heartS.png","","",""
"image-slider-2AFC","680","1921912","0.0-51.36-1.36","2364","","","","-34","","","","","","","","heartS.png","1351","-34",""
"html-keyboard-response","681","1922665","0.0-51.36-2.36","null","","","","","","","null","","","","","","","",""
"image-selector-fb","682","1925630","0.0-51.37-0.37","2456","pics2/SW3.jpg,pics2/FR4.jpg","","","","","","","false","0","","","heartS.png","","",""
"image-slider-2AFC","683","1928361","0.0-51.37-1.37","2727","","","","-18","","","","","","","","heartS.png","1664","-18",""
"html-keyboard-response","684","1929166","0.0-51.37-2.37","null","","","","","","","null","","","","","","","",""
"image-selector-fb","685","1932176","0.0-51.38-0.38","null","pics2/FR4.jpg,pics2/SA2.jpg","","","","","","","false","null","","","noS.png","","",""
"image-slider-2AFC","686","1934602","0.0-51.38-1.38","2422","","","","33","","","","","","","","heartS.png","1377","33",""
"html-keyboard-response","687","1935456","0.0-51.38-2.38","null","","","","","","","null","","","","","","","",""
"image-selector-fb","688","1938271","0.0-51.39-0.39","2307","pics2/SA4.jpg,pics2/FR6.jpg","","","","","","","true","1","","","sizeS.png","","",""
"image-slider-2AFC","689","1940753","0.0-51.39-1.39","2477","","","","20","","","","","","","","sizeS.png","1439","20",""
"html-keyboard-response","690","1941457","0.0-51.39-2.39","null","","","","","","","null","","","","","","","",""
"image-selector-fb","691","1943754","0.0-51.40-0.40","1788","pics2/SA1.jpg,pics2/FR4.jpg","","","","","","","false","0","","","sizeS.png","","",""
"image-slider-2AFC","692","1947120","0.0-51.40-1.40","3361","","","","66","","","","","","","","heartS.png","1489,2181","25,66",""
"html-keyboard-response","693","1947923","0.0-51.40-2.40","null","","","","","","","null","","","","","","","",""
"image-selector-fb","694","1950287","0.0-51.41-0.41","1854","pics2/FR2.jpg,pics2/SA2.jpg","","","","","","","true","1","","","heartS.png","","",""
"image-slider-2AFC","695","1952476","0.0-51.41-1.41","2184","","","","-19","","","","","","","","sizeS.png","1232","-19",""
"html-keyboard-response","696","1953228","0.0-51.41-2.41","null","","","","","","","null","","","","","","","",""
"image-selector-fb","697","1955787","0.0-51.42-0.42","2049","pics2/FR1.jpg,pics2/SA1.jpg","","","","","","","false","0","","","heartS.png","","",""
"image-slider-2AFC","698","1958868","0.0-51.42-1.42","3077","","","","-59","","","","","","","","heartS.png","2156","-59",""
"html-keyboard-response","699","1959723","0.0-51.42-2.42","null","","","","","","","null","","","","","","","",""
"image-selector-fb","700","1962733","0.0-51.43-0.43","null","pics2/FR2.jpg,pics2/SA1.jpg","","","","","","","false","null","","","noS.png","","",""
"image-slider-2AFC","701","1966051","0.0-51.43-1.43","3313","","","","14","","","","","","","","sizeS.png","1475,2337","28,14",""
"html-keyboard-response","702","1966904","0.0-51.43-2.43","null","","","","","","","null","","","","","","","",""
"image-selector-fb","703","1969915","0.0-51.44-0.44","null","pics2/SA2.jpg,pics2/FR6.jpg","","","","","","","false","null","","","noS.png","","",""
"image-slider-2AFC","704","1972717","0.0-51.44-1.44","2797","","","","-30","","","","","","","","heartS.png","1779","-30",""
"html-keyboard-response","705","1973571","0.0-51.44-2.44","null","","","","","","","null","","","","","","","",""
"image-selector-fb","706","1975978","0.0-51.45-0.45","1896","pics2/FR4.jpg,pics2/FR1.jpg","","","","","","","true","1","","","sizeS.png","","",""
"image-slider-2AFC","707","1978725","0.0-51.45-1.45","2742","","","","-24","","","","","","","","heartS.png","1547","-24",""
"html-keyboard-response","708","1979429","0.0-51.45-2.45","null","","","","","","","null","","","","","","","",""
