"trial_type","trial_index","time_elapsed","internal_node_id","rt","stimulus","button_pressed","success","response","cat","value","key_press","correct","image_click","first_click_rt","first_click_val","symbol","all_click_rt","all_click_val","view_history"
"pavlovia","0","3","0.0-0.0","","","","","","","","","","","","","","","",""
"html-button-response","1","5459","0.0-1.0","5455","<div style='width: 700px; font-size: 150%'><font size='40'>  Welcome to our study!</font><br><br><br> <small> Our experiment is about <i>decision making</i>. You will choose and rate different food items, such as these: <br><br> <div><img src='food_combo2.png', height = '400px'></img></div>","0","","","","","","","","","","","","",""
"html-button-response","2","12683","0.0-2.0","7223","<div style='width: 700px; font-size: 150%'><br><br><br><small> <u><i>This is a multi-part study.</i></u><br><br> In the first part you will rate 24 food items twice.<br><br><div><img src=""rat1.png"" style=""width: 25%""></img></div><br>In the second part (longest) you will make repeated choices and judgements concerning the food items.<br><br><div><img src=""mainx.png"" style=""width: 50%""></img></div><br>In the third and final part, you will rate the items again and answer few short questionnaires.<br><br><div><img src=""rat2.png"" style=""width: 50%""></img></div><br><br>","0","","","","","","","","","","","","",""
"fullscreen","3","16055","0.0-3.0","","","","true","","","","","","","","","","","",""
"html-button-response","4","58002","0.0-4.0","41943","<div style='width: 900px; font-size: 150%;' <font size='20%'> In the first part of the task you will use the mouse to rate food items on <i>2 scales</i> </font></div><br><br><div style='width: 900px'><div style='float: left; width: 50%; margin-right:2.5em'><img src='heartS.png'></img><p class='small' style='text-align: justify'>When you see the heart cue you will rate food items in terms of how much like them/would like to eat them <i>right now</i>. You will rate them on a continuous scale from left (strong dislike) to right (strong liking). Before submitting your rating, try imagining how the item tastes and how much you desire it.<br><br></p></div><div ><img src='sizeS.png'></img><p class='small' style='text-align: justify'>When you see the size cue, you will rate the same food items in terms of their size. The scale goes from left (tiny) to right (very large). You should assess picture size <i><u>relative</i></u> to the white background. <b>Remember:</b> rate the size of the picture, <u>not</u> the size of the item in real life. </p></div><div style='width: 900px'><br><br><b><i>Notice:</b> by starting the rating you agree that your sumbission might be rejected at an early stage and the experiment might end, if your size ratings are not at least modestly related to objective sizes, or if you repeat the same value ratings too many times. If you don't agree, please exit by closing the browser window. </i><br><br><br>","0","","","","","","","","","","","","",""
"html-button-response","5","67699","0.0-5.0","9694","<div><img src='heartS.png'></img></div><br><div style='text-align: justify; width: 700px'>Using the mouse, rate the <b><i>likeness</b></i> of the food items (how much you like them/would like to eat them <i>right now</i>). Far right-end of the scale indicates an item you <i>like a lot</i>. Far left-end indicates an item you <i>dislike a lot</i>. Think about each answer.   <ul><li>Try <b><i>not</b></i> to give identical rating to different items.</li><li>Use the whole scale, and <b><i>not</b></i> just the extremes</ul></div><br>","0","","","","","","","","","","","","",""
"image-slider-response","6","71102","0.0-6.0-0.0-0.0","3399","pics2/VE6.jpg","","","11","VE","","","","","","","","","",""
"image-slider-response","7","74827","0.0-6.0-0.0-0.1","3518","pics2/FR5.jpg","","","57","FR","","","","","","","","","",""
"image-slider-response","8","77597","0.0-6.0-0.0-0.2","2561","pics2/SW2.jpg","","","62","SW","","","","","","","","","",""
"image-slider-response","9","82632","0.0-6.0-0.0-0.3","4829","pics2/VE3.jpg","","","31","VE","","","","","","","","","",""
"image-slider-response","10","86490","0.0-6.0-0.0-0.4","3651","pics2/VE1.jpg","","","29","VE","","","","","","","","","",""
"image-slider-response","11","89913","0.0-6.0-0.0-0.5","3217","pics2/SA5.jpg","","","0","SA","","","","","","","","","",""
"image-slider-response","12","92089","0.0-6.0-0.0-0.6","1969","pics2/VE2.jpg","","","25","VE","","","","","","","","","",""
"image-slider-response","13","94821","0.0-6.0-0.0-0.7","2527","pics2/SW5.jpg","","","45","SW","","","","","","","","","",""
"image-slider-response","14","98369","0.0-6.0-0.0-0.8","3342","pics2/SA1.jpg","","","63","SA","","","","","","","","","",""
"image-slider-response","15","101035","0.0-6.0-0.0-0.9","2455","pics2/SW4.jpg","","","81","SW","","","","","","","","","",""
"image-slider-response","16","104160","0.0-6.0-0.0-0.10","2920","pics2/FR4.jpg","","","38","FR","","","","","","","","","",""
"image-slider-response","17","106336","0.0-6.0-0.0-0.11","1966","pics2/FR6.jpg","","","54","FR","","","","","","","","","",""
"image-slider-response","18","108518","0.0-6.0-0.0-0.12","1975","pics2/SA6.jpg","","","61","SA","","","","","","","","","",""
"image-slider-response","19","110657","0.0-6.0-0.0-0.13","1933","pics2/VE4.jpg","","","30","VE","","","","","","","","","",""
"image-slider-response","20","112929","0.0-6.0-0.0-0.14","2067","pics2/SW6.jpg","","","80","SW","","","","","","","","","",""
"image-slider-response","21","115083","0.0-6.0-0.0-0.15","1951","pics2/SA3.jpg","","","75","SA","","","","","","","","","",""
"image-slider-response","22","118763","0.0-6.0-0.0-0.16","3477","pics2/SW3.jpg","","","65","SW","","","","","","","","","",""
"image-slider-response","23","121056","0.0-6.0-0.0-0.17","2087","pics2/SW1.jpg","","","93","SW","","","","","","","","","",""
"image-slider-response","24","123319","0.0-6.0-0.0-0.18","2058","pics2/VE5.jpg","","","24","VE","","","","","","","","","",""
"image-slider-response","25","126140","0.0-6.0-0.0-0.19","2616","pics2/SA2.jpg","","","73","SA","","","","","","","","","",""
"image-slider-response","26","129244","0.0-6.0-0.0-0.20","2898","pics2/FR3.jpg","","","55","FR","","","","","","","","","",""
"image-slider-response","27","131668","0.0-6.0-0.0-0.21","2215","pics2/FR1.jpg","","","40","FR","","","","","","","","","",""
"image-slider-response","28","134480","0.0-6.0-0.0-0.22","2605","pics2/FR2.jpg","","","42","FR","","","","","","","","","",""
"image-slider-response","29","138586","0.0-6.0-0.0-0.23","3899","pics2/SA4.jpg","","","94","SA","","","","","","","","","",""
"html-button-response","30","145817","0.0-7.0","7022","<div style='width: 900px;'> <font size = 6><b> End of the first rating</b><br><br>","0","","","","","","","","","","","","",""
"html-button-response","31","154267","0.0-9.0","8447","<div ><img src='sizeS.png'></img></div><br><div style='text-align: justify; width: 700px'> Using the mouse, rate the <b><i>size</b></i> of the food items <b><i> relative to the white background.</b></i> Right-end of the scale indicates a <i>very large item</i>, which covers a large portion of the white rectangle. Left-end indicates a <i>very tiny</i> item which covers a tiny portion of the white rectangle.<br><br><i><u>Remember</i></u>: everything that is not the white background also contributes to item size (e.g. packing, plates, ect.)<br><br> Please keep in mind that if the accuracy of ratings do not allign well with actual sizes, the experiment will end.  As a result it will be consider incomplete and therefore no payment would be made. Good luck!<br><br></div><br>","0","","","","","","","","","","","","",""
"html-button-response","32","158758","0.0-10.0","4487","<div ><img src='sizeS.png'></img></div><br><b><font size=6>Examples of items that you might encounter</b><br><div style='width: 750px;'><div style='width: 33.33%; float:left'><br><br><br><i>Large Item</i><br><br><img src='large.jpg', width=200px></img></div><div style='float:right'><br><br><br><i>Small Item</i><br><br><img src='small.jpg', width=200px></img></div><div ><br><br><br><i>Medium Item</i><br><br><img src='med.jpg', width=200px></img></div></div><br><br>","0","","","","","","","","","","","","",""
"image-slider-response","33","161323","0.0-11.0-0.0-0.0","2560","pics2/FR5.jpg","","","77","null","","","","","","","","","",""
"image-slider-response","34","164363","0.0-11.0-0.0-0.1","2834","pics2/SA5.jpg","","","72","null","","","","","","","","","",""
"image-slider-response","35","166455","0.0-11.0-0.0-0.2","1887","pics2/SA1.jpg","","","89","null","","","","","","","","","",""
"image-slider-response","36","168766","0.0-11.0-0.0-0.3","2107","pics2/FR4.jpg","","","86","null","","","","","","","","","",""
"image-slider-response","37","173065","0.0-11.0-0.0-0.4","4095","pics2/FR3.jpg","","","77","null","","","","","","","","","",""
"image-slider-response","38","176093","0.0-11.0-0.0-0.5","2819","pics2/VE3.jpg","","","80","null","","","","","","","","","",""
"image-slider-response","39","185533","0.0-11.0-0.0-0.6","9234","pics2/SW4.jpg","","","60","null","","","","","","","","","",""
"image-slider-response","40","188174","0.0-11.0-0.0-0.7","2439","pics2/SA6.jpg","","","75","null","","","","","","","","","",""
"image-slider-response","41","190855","0.0-11.0-0.0-0.8","2473","pics2/SW1.jpg","","","93","null","","","","","","","","","",""
"image-slider-response","42","192940","0.0-11.0-0.0-0.9","1874","pics2/SW3.jpg","","","74","null","","","","","","","","","",""
"image-slider-response","43","195137","0.0-11.0-0.0-0.10","1993","pics2/SW2.jpg","","","90","null","","","","","","","","","",""
"image-slider-response","44","200965","0.0-11.0-0.0-0.11","5618","pics2/VE4.jpg","","","59","null","","","","","","","","","",""
"image-slider-response","45","203351","0.0-11.0-0.0-0.12","2179","pics2/SA4.jpg","","","68","null","","","","","","","","","",""
"image-slider-response","46","205686","0.0-11.0-0.0-0.13","2130","pics2/SA3.jpg","","","79","null","","","","","","","","","",""
"image-slider-response","47","207998","0.0-11.0-0.0-0.14","2102","pics2/SW6.jpg","","","68","null","","","","","","","","","",""
"image-slider-response","48","211517","0.0-11.0-0.0-0.15","3314","pics2/FR1.jpg","","","82","null","","","","","","","","","",""
"image-slider-response","49","214355","0.0-11.0-0.0-0.16","2634","pics2/FR6.jpg","","","39","null","","","","","","","","","",""
"image-slider-response","50","218047","0.0-11.0-0.0-0.17","3486","pics2/SW5.jpg","","","75","null","","","","","","","","","",""
"image-slider-response","51","221166","0.0-11.0-0.0-0.18","2914","pics2/SA2.jpg","","","39","null","","","","","","","","","",""
"image-slider-response","52","223166","0.0-11.0-0.0-0.19","1792","pics2/VE6.jpg","","","42","null","","","","","","","","","",""
"image-slider-response","53","225338","0.0-11.0-0.0-0.20","1968","pics2/VE2.jpg","","","71","null","","","","","","","","","",""
"image-slider-response","54","227171","0.0-11.0-0.0-0.21","1630","pics2/VE5.jpg","","","62","null","","","","","","","","","",""
"image-slider-response","55","229457","0.0-11.0-0.0-0.22","2081","pics2/VE1.jpg","","","80","null","","","","","","","","","",""
"image-slider-response","56","231292","0.0-11.0-0.0-0.23","1630","pics2/FR2.jpg","","","74","null","","","","","","","","","",""
"html-button-response","57","232674","0.0-12.0","1177","<div style='width: 900px;'> <font size = 6><b> End of the second rating</b><br><br>","0","","","","","","","","","","","","",""
"html-button-response","58","236030","0.0-13.0","3353","<div style='width: 900px;'>Now please rate the items for the second time. <br><br>This is not a memory test - you don't need to be consistent with your previous ratings. Just as before, try to make accurate judgements.<br><br>","0","","","","","","","","","","","","",""
"html-button-response","59","237811","0.0-14.0","1778","<div><img src='heartS.png'></img></div><br><div style='text-align: justify; width: 700px'>Using the mouse, rate the <b><i>likeness</b></i> of the food items (how much you like them/would like to eat them <i>right now</i>). Far right-end of the scale indicates an item you <i>like a lot</i>. Far left-end indicates an item you <i>dislike a lot</i>. Think about each answer.   <ul><li>Try <b><i>not</b></i> to give identical rating to different items.</li><li>Use the whole scale, and <b><i>not</b></i> just the extremes</ul></div><br>","0","","","","","","","","","","","","",""
"image-slider-response","60","241013","0.0-15.0-0.0-0.0","3197","pics2/SA5.jpg","","","2","SA","","","","","","","","","",""
"image-slider-response","61","243033","0.0-15.0-0.0-0.1","1810","pics2/SW3.jpg","","","65","SW","","","","","","","","","",""
"image-slider-response","62","245303","0.0-15.0-0.0-0.2","2065","pics2/SA4.jpg","","","81","SA","","","","","","","","","",""
"image-slider-response","63","247388","0.0-15.0-0.0-0.3","1878","pics2/SA6.jpg","","","77","SA","","","","","","","","","",""
"image-slider-response","64","249674","0.0-15.0-0.0-0.4","2081","pics2/VE4.jpg","","","17","VE","","","","","","","","","",""
"image-slider-response","65","251728","0.0-15.0-0.0-0.5","1849","pics2/VE1.jpg","","","9","VE","","","","","","","","","",""
"image-slider-response","66","253943","0.0-15.0-0.0-0.6","2010","pics2/SW5.jpg","","","63","SW","","","","","","","","","",""
"image-slider-response","67","255807","0.0-15.0-0.0-0.7","1660","pics2/SW4.jpg","","","77","SW","","","","","","","","","",""
"image-slider-response","68","258005","0.0-15.0-0.0-0.8","1995","pics2/FR1.jpg","","","35","FR","","","","","","","","","",""
"image-slider-response","69","260520","0.0-15.0-0.0-0.9","2310","pics2/FR6.jpg","","","38","FR","","","","","","","","","",""
"image-slider-response","70","262628","0.0-15.0-0.0-0.10","1903","pics2/SA1.jpg","","","65","SA","","","","","","","","","",""
"image-slider-response","71","265367","0.0-15.0-0.0-0.11","2535","pics2/SA2.jpg","","","72","SA","","","","","","","","","",""
"image-slider-response","72","268040","0.0-15.0-0.0-0.12","2468","pics2/SW6.jpg","","","77","SW","","","","","","","","","",""
"image-slider-response","73","270467","0.0-15.0-0.0-0.13","2222","pics2/VE3.jpg","","","31","VE","","","","","","","","","",""
"image-slider-response","74","272606","0.0-15.0-0.0-0.14","1935","pics2/FR5.jpg","","","56","FR","","","","","","","","","",""
"image-slider-response","75","274796","0.0-15.0-0.0-0.15","1984","pics2/FR2.jpg","","","38","FR","","","","","","","","","",""
"image-slider-response","76","276969","0.0-15.0-0.0-0.16","1969","pics2/FR3.jpg","","","45","FR","","","","","","","","","",""
"image-slider-response","77","279000","0.0-15.0-0.0-0.17","1826","pics2/SW1.jpg","","","97","SW","","","","","","","","","",""
"image-slider-response","78","281090","0.0-15.0-0.0-0.18","1886","pics2/FR4.jpg","","","76","FR","","","","","","","","","",""
"image-slider-response","79","283498","0.0-15.0-0.0-0.19","2203","pics2/VE2.jpg","","","37","VE","","","","","","","","","",""
"image-slider-response","80","285648","0.0-15.0-0.0-0.20","1944","pics2/VE5.jpg","","","16","VE","","","","","","","","","",""
"image-slider-response","81","287580","0.0-15.0-0.0-0.21","1726","pics2/VE6.jpg","","","15","VE","","","","","","","","","",""
"image-slider-response","82","289753","0.0-15.0-0.0-0.22","1967","pics2/SA3.jpg","","","85","SA","","","","","","","","","",""
"image-slider-response","83","291635","0.0-15.0-0.0-0.23","1672","pics2/SW2.jpg","","","83","SW","","","","","","","","","",""
"call-function","84","291846","0.0-16.0","","","","","","","","","","","","","","","",""
"call-function","85","291848","0.0-17.0","","","","","","","","","","","","","","","",""
"html-button-response","86","293023","0.0-18.0","1173","<div style='width: 900px;'> <font size = 6><b> End of the first rating</b><br><br>","0","","","","","","","","","","","","",""
"html-button-response","87","293913","0.0-19.0","887","<div ><img src='sizeS.png'></img></div><br><div style='text-align: justify; width: 700px'> Using the mouse, rate the <b><i>size</b></i> of the food items <b><i> relative to the white background.</b></i> Right-end of the scale indicates a <i>very large item</i>, which covers a large portion of the white rectangle. Left-end indicates a <i>very tiny</i> item which covers a tiny portion of the white rectangle.<br><br><i><u>Remember</i></u>: everything that is not the white background also contributes to item size (e.g. packing, plates, ect.)<br><br> Please keep in mind that if the accuracy of ratings do not allign well with actual sizes, the experiment will end.  As a result it will be consider incomplete and therefore no payment would be made. Good luck!<br><br></div><br>","0","","","","","","","","","","","","",""
"image-slider-response","88","296110","0.0-20.0-0.0-0.0","2194","pics2/VE5.jpg","","","64","null","","","","","","","","","",""
"image-slider-response","89","299512","0.0-20.0-0.0-0.1","3199","pics2/SA4.jpg","","","54","null","","","","","","","","","",""
"image-slider-response","90","301872","0.0-20.0-0.0-0.2","2155","pics2/FR6.jpg","","","53","null","","","","","","","","","",""
"image-slider-response","91","304659","0.0-20.0-0.0-0.3","2582","pics2/VE6.jpg","","","56","null","","","","","","","","","",""
"image-slider-response","92","309167","0.0-20.0-0.0-0.4","4304","pics2/FR2.jpg","","","91","null","","","","","","","","","",""
"image-slider-response","93","311608","0.0-20.0-0.0-0.5","2234","pics2/SA2.jpg","","","37","null","","","","","","","","","",""
"image-slider-response","94","313903","0.0-20.0-0.0-0.6","2090","pics2/VE1.jpg","","","78","null","","","","","","","","","",""
"image-slider-response","95","316504","0.0-20.0-0.0-0.7","2397","pics2/VE4.jpg","","","77","null","","","","","","","","","",""
"image-slider-response","96","318726","0.0-20.0-0.0-0.8","2013","pics2/VE2.jpg","","","84","null","","","","","","","","","",""
"image-slider-response","97","320532","0.0-20.0-0.0-0.9","1602","pics2/FR3.jpg","","","85","null","","","","","","","","","",""
"image-slider-response","98","322212","0.0-20.0-0.0-0.10","1476","pics2/VE3.jpg","","","82","null","","","","","","","","","",""
"image-slider-response","99","324087","0.0-20.0-0.0-0.11","1669","pics2/SA6.jpg","","","66","null","","","","","","","","","",""
"image-slider-response","100","326201","0.0-20.0-0.0-0.12","1908","pics2/SW5.jpg","","","90","null","","","","","","","","","",""
"image-slider-response","101","328151","0.0-20.0-0.0-0.13","1742","pics2/FR4.jpg","","","58","null","","","","","","","","","",""
"image-slider-response","102","331178","0.0-20.0-0.0-0.14","2818","pics2/SA5.jpg","","","53","null","","","","","","","","","",""
"image-slider-response","103","332980","0.0-20.0-0.0-0.15","1590","pics2/SA3.jpg","","","84","null","","","","","","","","","",""
"image-slider-response","104","334530","0.0-20.0-0.0-0.16","1346","pics2/SW3.jpg","","","66","null","","","","","","","","","",""
"image-slider-response","105","337326","0.0-20.0-0.0-0.17","2593","pics2/SW2.jpg","","","91","null","","","","","","","","","",""
"image-slider-response","106","339718","0.0-20.0-0.0-0.18","2187","pics2/FR5.jpg","","","90","null","","","","","","","","","",""
"image-slider-response","107","341778","0.0-20.0-0.0-0.19","1852","pics2/SW4.jpg","","","79","null","","","","","","","","","",""
"image-slider-response","108","344502","0.0-20.0-0.0-0.20","2520","pics2/SW1.jpg","","","100","null","","","","","","","","","",""
"image-slider-response","109","346886","0.0-20.0-0.0-0.21","2175","pics2/SA1.jpg","","","99","null","","","","","","","","","",""
"image-slider-response","110","348948","0.0-20.0-0.0-0.22","1858","pics2/FR1.jpg","","","84","null","","","","","","","","","",""
"image-slider-response","111","353011","0.0-20.0-0.0-0.23","3860","pics2/SW6.jpg","","","59","null","","","","","","","","","",""
"call-function","112","353223","0.0-21.0","","","","","","","","","","","","","","","",""
"html-button-response","113","354240","0.0-22.0","1015","<div style='width: 900px;'> <font size = 6><b> End of the second rating</b><br><br>","0","","","","","","","","","","","","",""
"pavlovia","114","354249","0.0-23.0","","","","","","","","","","","","","","","",""
"html-keyboard-response","115","359257","0.0-24.0","null","<div style='width: 700px;'> <font size=6><b>SHORT BREAK</font></b><br><br><i> Please wait 5 seconds to continue</i></div> ","","","","","","null","","","","","","","",""
"pavlovia","116","359260","0.0-25.0","","","","","","","","","","","","","","","",""
"html-button-response","117","369331","0.0-26.0","10069","<div style='width: 700px;'>In the main part of the study, you will be choosing between 2 items. When it's time to choose,  this symbol will appear: <br><br><img src='chooseS.png'></img><br><br>Below, a cue will signify the type of choice: </div><br><div style='width: 700px;'><div style='float: left; width: 50%'><img src='heartS.png'></img><p class='small'>Heart cue means you should choose the item you <b><i>prefer</b></i> more.</p></div><div class='float: right; width:50%'><img src='sizeS.png'></img><p class='small'>Size cue means you should choose the <b><i>larger</b></i> item. </p></div></div><br><div style='width: 700px;'>When you click, a green square will appear around the item you chose.<br></div><div><br>","0","","","","","","","","","","","","",""
"image-selector-fb-tut","118","373126","0.0-27.0","2784","0232.jpg,0123.jpg","","","","","","","false","0","","","","","",""
"image-selector-fb-tut","119","377256","0.0-28.0","3122","0232.jpg,0123.jpg","","","","","","","false","0","","","","","",""
"html-button-response","120","380255","0.0-29.0","2997","<div style='width: 900px;'>Your choices should be both <b><i>fast and accurate</b></i>. <br><br>You will have <i>4 seconds</i> to make each choice, which should be enough consider the options and click on one of the items.<br><br>","0","","","","","","","","","","","","",""
"html-button-response","121","384420","0.0-30.0","4163","<div style='width: 900px;'>Additionally, on some choice trials you will see the <b><i>no-choice cue</b></i>: <br><br><img src='noS.png'></img> <br><br>This cue means you can't make any choice. You can examine the items, but  can't click on any of them. Just wait patiently for the cue to dissapear.<br><br>","0","","","","","","","","","","","","",""
"image-selector-fb-tut","122","386432","0.0-31.0","null","0232.jpg,0123.jpg","","","","","","","false","null","","","","","",""
"html-button-response","123","401452","0.0-32.0","15017","<div style='width: 900px;'>After each choice the items will remain on the screen and you will see this symbol: <br><br><img src='judgeS.png'></img> <br><br>This means you should rate<b> the magnitude of the difference</b> between the items using a scale: </div><br><div style='width: 900px; '><div style='float: left; width: 50%; margin-right: 2.5em; align-self:left'><img src='heartS.png'></img><p class='small' style = 'text-align: justify;'>Heart cue means you should rate <b>how much you prefer</b> one of the items over the other. Moving the scale indicator to the left means you prefer the left one; moving it to the right - right one. The more you prefer one of them, the more towards that side you should move the scale indicator. </p></div><div class='float: right; width: 50%; margin-left: 2.5em;'><img src='sizeS.png'></img><p class='small' style='text-align: justify'>Size cue means you should rate <b>how much larger</b> is one of the items over the other. Moving the scale indicator to the left means you think the left is larger; moving it to the right - right one. The greater the difference in size, the more towards that side you should move the scale indicator.</div><br>","0","","","","","","","","","","","","",""
"image-slider-2AFC-tut","124","407970","0.0-33.0","6511","","","","37","","","","","","4425","37","","","",""
"image-slider-2AFC-tut","125","411480","0.0-34.0","3507","","","","24","","","","","","2691","24","","","",""
"html-button-response","126","430799","0.0-35.0","19317","<br><br><font size = 36><b> Examples </b></font><br><br><i> 1) I would like to eat some croissants a <b>lot more</b> than doritos right now:</i><br><img src='ex1.PNG', width='62%'></img><br><br><br><i> 2) I would like to eat some doritos a <b>bit more</b> than croissants right now, but just slightly:</i><br><img src='ex2.PNG' width='62%'></img>","0","","","","","","","","","","","","",""
"html-button-response","127","432496","0.0-36.0","1696","<div style='width: 900px;'><i>Now you know everything you need to do the task!</i> <br><br>Let's start by doing a <b>short training</b>, so you'll get used to how it works. </div><br>","0","","","","","","","","","","","","",""
"image-selector-fb","128","436675","0.0-37.0-0.0","3667","pics2/FR6.jpg,pics2/SA5.jpg","","","","","","","false","0","","","heartS.png","","",""
"image-slider-2AFC","129","441680","0.0-37.0-1.0","null","","","","null","","","","","","","","sizeS.png","1846","-12",""
"html-keyboard-response","130","442539","0.0-37.0-2.0","null","","","","","","","null","","","","","","","",""
"image-selector-fb","131","445552","0.0-37.1-0.1","null","pics2/SA5.jpg,pics2/FR1.jpg","","","","","","","false","null","","","noS.png","","",""
"image-slider-2AFC","132","449343","0.0-37.1-1.1","3787","","","","24","","","","","","","","sizeS.png","2350,3197","8,24",""
"html-keyboard-response","133","450100","0.0-37.1-2.1","null","","","","","","","null","","","","","","","",""
"image-selector-fb","134","454609","0.0-37.2-0.2","null","pics2/VE2.jpg,pics2/FR6.jpg","","","","","","","false","null","","","sizeS.png","","",""
"image-slider-2AFC","135","454610","0.0-37.2-1.2","null","","","","null","","","","","","","","sizeS.png","","",""
"html-keyboard-response","136","455418","0.0-37.2-2.2","null","","","","","","","null","","","","","","","",""
"image-selector-fb","137","458434","0.0-37.3-0.3","null","pics2/SA5.jpg,pics2/VE6.jpg","","","","","","","false","null","","","noS.png","","",""
"image-slider-2AFC","138","460616","0.0-37.3-1.3","2178","","","","23","","","","","","","","heartS.png","1373","23",""
"html-keyboard-response","139","461471","0.0-37.3-2.3","null","","","","","","","null","","","","","","","",""
"image-selector-fb","140","463964","0.0-37.4-0.4","1985","pics2/VE1.jpg,pics2/FR3.jpg","","","","","","","false","0","","","sizeS.png","","",""
"image-slider-2AFC","141","466660","0.0-37.4-1.4","2692","","","","-20","","","","","","","","sizeS.png","2054","-20",""
"html-keyboard-response","142","467417","0.0-37.4-2.4","null","","","","","","","null","","","","","","","",""
"image-selector-fb","143","470430","0.0-37.5-0.5","null","pics2/FR2.jpg,pics2/FR3.jpg","","","","","","","false","null","","","noS.png","","",""
"image-slider-2AFC","144","475437","0.0-37.5-1.5","null","","","","null","","","","","","","","sizeS.png","","",""
"html-keyboard-response","145","476245","0.0-37.5-2.5","null","","","","","","","null","","","","","","","",""
"image-selector-fb","146","479044","0.0-37.6-0.6","2286","pics2/VE1.jpg,pics2/VE6.jpg","","","","","","","false","0","","","sizeS.png","","",""
"image-slider-2AFC","147","483765","0.0-37.6-1.6","4717","","","","-11","","","","","","","","heartS.png","3465,4281","-6,-11",""
"html-keyboard-response","148","484618","0.0-37.6-2.6","null","","","","","","","null","","","","","","","",""
"image-selector-fb","149","487633","0.0-37.7-0.7","null","pics2/VE4.jpg,pics2/VE5.jpg","","","","","","","false","null","","","noS.png","","",""
"image-slider-2AFC","150","491539","0.0-37.7-1.7","3903","","","","-16","","","","","","","","sizeS.png","2935","-16",""
"html-keyboard-response","151","492243","0.0-37.7-2.7","null","","","","","","","null","","","","","","","",""
"image-selector-fb","152","496749","0.0-37.8-0.8","null","pics2/VE3.jpg,pics2/VE4.jpg","","","","","","","false","null","","","heartS.png","","",""
"image-slider-2AFC","153","496750","0.0-37.8-1.8","null","","","","null","","","","","","","","sizeS.png","","",""
"html-keyboard-response","154","497553","0.0-37.8-2.8","null","","","","","","","null","","","","","","","",""
"image-selector-fb","155","500563","0.0-37.9-0.9","null","pics2/SA5.jpg,pics2/VE5.jpg","","","","","","","false","null","","","noS.png","","",""
"image-slider-2AFC","156","504919","0.0-37.9-1.9","4351","","","","22","","","","","","","","sizeS.png","3108","22",""
"html-keyboard-response","157","505675","0.0-37.9-2.9","null","","","","","","","null","","","","","","","",""
"image-selector-fb","158","509227","0.0-37.10-0.10","3047","pics2/FR6.jpg,pics2/VE4.jpg","","","","","","","false","0","","","heartS.png","","",""
"image-slider-2AFC","159","512570","0.0-37.10-1.10","3339","","","","16","","","","","","","","sizeS.png","2887","16",""
"html-keyboard-response","160","513325","0.0-37.10-2.10","null","","","","","","","null","","","","","","","",""
"image-selector-fb","161","516342","0.0-37.11-0.11","null","pics2/FR1.jpg,pics2/VE5.jpg","","","","","","","false","null","","","noS.png","","",""
"image-slider-2AFC","162","519560","0.0-37.11-1.11","3213","","","","-25","","","","","","","","sizeS.png","2632","-25",""
"html-keyboard-response","163","520267","0.0-37.11-2.11","null","","","","","","","null","","","","","","","",""
"html-button-response","164","521604","0.0-38.0","1335","<i><font size=10>Good job!</font></i> <br><br>Before we begin, you have a chance to review the rules, in case something was not clear.<br><br>","0","","","","","","","","","","","","",""
"instructions","165","532890","0.0-39.0","11284","","","","","","","","","","","","","","","[{""page_index"":0,""viewing_time"":4368},{""page_index"":1,""viewing_time"":2343},{""page_index"":2,""viewing_time"":4572}]"
"html-button-response","166","538941","0.0-40.0","6049","<div style='width: 900px;'> <font size='40'>Great! Now you're ready to begin</font><br><br>The main part of the experiment will consist of <u>3 blocks</u>. Each block consists of 66 decisions and judgements. You will have time for a short break between blocks.<br><br><br><i><u>Do your best to respond within the time limit.</u></i><br><br><i> Press the button to start the experiment<br><br></i>","0","","","","","","","","","","","","",""
"image-selector-fb","167","541693","0.0-41.0-0.0","2245","pics2/SW4.jpg,pics2/FR5.jpg","","","","","","","true","1","","","sizeS.png","","",""
"image-slider-2AFC","168","543814","0.0-41.0-1.0","2116","","","","20","","","","","","","","heartS.png","1641","20",""
"html-keyboard-response","169","544624","0.0-41.0-2.0","null","","","","","","","null","","","","","","","",""
"image-selector-fb","170","547643","0.0-41.1-0.1","null","pics2/SW2.jpg,pics2/SA3.jpg","","","","","","","false","null","","","noS.png","","",""
"image-slider-2AFC","171","552649","0.0-41.1-1.1","null","","","","null","","","","","","","","heartS.png","4927","-25",""
"html-keyboard-response","172","553404","0.0-41.1-2.1","null","","","","","","","null","","","","","","","",""
"image-selector-fb","173","556421","0.0-41.2-0.2","null","pics2/SA4.jpg,pics2/SW1.jpg","","","","","","","false","null","","","noS.png","","",""
"image-slider-2AFC","174","560775","0.0-41.2-1.2","4350","","","","60","","","","","","","","sizeS.png","2345,3678","36,60",""
"html-keyboard-response","175","561630","0.0-41.2-2.2","null","","","","","","","null","","","","","","","",""
"image-selector-fb","176","564328","0.0-41.3-0.3","2187","pics2/SA6.jpg,pics2/SW4.jpg","","","","","","","false","0","","","heartS.png","","",""
"image-slider-2AFC","177","566875","0.0-41.3-1.3","2543","","","","-27","","","","","","","","sizeS.png","1884","-27",""
"html-keyboard-response","178","567729","0.0-41.3-2.3","null","","","","","","","null","","","","","","","",""
"image-selector-fb","179","570319","0.0-41.4-0.4","2079","pics2/SW2.jpg,pics2/SA3.jpg","","","","","","","false","0","","","heartS.png","","",""
"image-slider-2AFC","180","573250","0.0-41.4-1.4","2925","","","","-49","","","","","","","","heartS.png","2282","-49",""
"html-keyboard-response","181","574058","0.0-41.4-2.4","null","","","","","","","null","","","","","","","",""
"image-selector-fb","182","576250","0.0-41.5-0.5","1678","pics2/SW4.jpg,pics2/SA2.jpg","","","","","","","false","0","","","sizeS.png","","",""
"image-slider-2AFC","183","579149","0.0-41.5-1.5","2894","","","","-37","","","","","","","","heartS.png","1660","-37",""
"html-keyboard-response","184","579904","0.0-41.5-2.5","null","","","","","","","null","","","","","","","",""
"image-selector-fb","185","581716","0.0-41.6-0.6","1302","pics2/SA3.jpg,pics2/SA6.jpg","","","","","","","false","0","","","sizeS.png","","",""
"image-slider-2AFC","186","584068","0.0-41.6-1.6","2346","","","","-61","","","","","","","","sizeS.png","1468","-61",""
"html-keyboard-response","187","584926","0.0-41.6-2.6","null","","","","","","","null","","","","","","","",""
"image-selector-fb","188","587941","0.0-41.7-0.7","null","pics2/SA6.jpg,pics2/SW1.jpg","","","","","","","false","null","","","noS.png","","",""
"image-slider-2AFC","189","591770","0.0-41.7-1.7","3823","","","","81","","","","","","","","sizeS.png","3121","81",""
"html-keyboard-response","190","592477","0.0-41.7-2.7","null","","","","","","","null","","","","","","","",""
"image-selector-fb","191","595489","0.0-41.8-0.8","null","pics2/SW3.jpg,pics2/SW1.jpg","","","","","","","false","null","","","noS.png","","",""
"image-slider-2AFC","192","599275","0.0-41.8-1.8","3782","","","","60","","","","","","","","sizeS.png","2925","60",""
"html-keyboard-response","193","599978","0.0-41.8-2.8","null","","","","","","","null","","","","","","","",""
"image-selector-fb","194","603077","0.0-41.9-0.9","2593","pics2/SA1.jpg,pics2/FR5.jpg","","","","","","","true","1","","","heartS.png","","",""
"image-slider-2AFC","195","606250","0.0-41.9-1.9","3170","","","","30","","","","","","","","sizeS.png","1669","30",""
"html-keyboard-response","196","607108","0.0-41.9-2.9","null","","","","","","","null","","","","","","","",""
"image-selector-fb","197","610115","0.0-41.10-0.10","null","pics2/SW6.jpg,pics2/SA2.jpg","","","","","","","false","null","","","noS.png","","",""
"image-slider-2AFC","198","613240","0.0-41.10-1.10","3121","","","","43","","","","","","","","heartS.png","2394","43",""
"html-keyboard-response","199","613993","0.0-41.10-2.10","null","","","","","","","null","","","","","","","",""
"image-selector-fb","200","616113","0.0-41.11-0.11","1610","pics2/SA1.jpg,pics2/SA4.jpg","","","","","","","true","1","","","heartS.png","","",""
"image-slider-2AFC","201","619898","0.0-41.11-1.11","3782","","","","-25","","","","","","","","sizeS.png","3120","-25",""
"html-keyboard-response","202","620703","0.0-41.11-2.11","null","","","","","","","null","","","","","","","",""
"image-selector-fb","203","623521","0.0-41.12-0.12","2309","pics2/SW3.jpg,pics2/SA3.jpg","","","","","","","true","1","","","heartS.png","","",""
"image-slider-2AFC","204","625643","0.0-41.12-1.12","2118","","","","73","","","","","","","","sizeS.png","1287","73",""
"html-keyboard-response","205","626501","0.0-41.12-2.12","null","","","","","","","null","","","","","","","",""
"image-selector-fb","206","628355","0.0-41.13-0.13","1345","pics2/SA3.jpg,pics2/SW1.jpg","","","","","","","true","1","","","sizeS.png","","",""
"image-slider-2AFC","207","630781","0.0-41.13-1.13","2423","","","","70","","","","","","","","heartS.png","1672","70",""
"html-keyboard-response","208","631642","0.0-41.13-2.13","null","","","","","","","null","","","","","","","",""
"image-selector-fb","209","634925","0.0-41.14-0.14","2771","pics2/FR4.jpg,pics2/SA3.jpg","","","","","","","false","0","","","heartS.png","","",""
"image-slider-2AFC","210","637375","0.0-41.14-1.14","2445","","","","-53","","","","","","","","sizeS.png","1759","-53",""
"html-keyboard-response","211","638232","0.0-41.14-2.14","null","","","","","","","null","","","","","","","",""
"image-selector-fb","212","639771","0.0-41.15-0.15","1029","pics2/SA2.jpg,pics2/SW1.jpg","","","","","","","true","1","","","sizeS.png","","",""
"image-slider-2AFC","213","642111","0.0-41.15-1.15","2336","","","","93","","","","","","","","heartS.png","1430","93",""
"html-keyboard-response","214","642821","0.0-41.15-2.15","null","","","","","","","null","","","","","","","",""
"image-selector-fb","215","645833","0.0-41.16-0.16","null","pics2/SA6.jpg,pics2/SA4.jpg","","","","","","","false","null","","","noS.png","","",""
"image-slider-2AFC","216","650837","0.0-41.16-1.16","null","","","","null","","","","","","","","heartS.png","","",""
"html-keyboard-response","217","651691","0.0-41.16-2.16","null","","","","","","","null","","","","","","","",""
"image-selector-fb","218","653376","0.0-41.17-0.17","1179","pics2/SW2.jpg,pics2/SW6.jpg","","","","","","","false","0","","","heartS.png","","",""
"image-slider-2AFC","219","655889","0.0-41.17-1.17","2511","","","","-23","","","","","","","","heartS.png","1290","-23",""
"html-keyboard-response","220","656647","0.0-41.17-2.17","null","","","","","","","null","","","","","","","",""
"image-selector-fb","221","659528","0.0-41.18-0.18","2370","pics2/SW6.jpg,pics2/SA2.jpg","","","","","","","false","0","","","sizeS.png","","",""
"image-slider-2AFC","222","661955","0.0-41.18-1.18","2424","","","","-20","","","","","","","","sizeS.png","1924","-20",""
"html-keyboard-response","223","662767","0.0-41.18-2.18","null","","","","","","","null","","","","","","","",""
"image-selector-fb","224","665084","0.0-41.19-0.19","1811","pics2/SA2.jpg,pics2/SA4.jpg","","","","","","","true","1","","","sizeS.png","","",""
"image-slider-2AFC","225","667078","0.0-41.19-1.19","1991","","","","17","","","","","","","","heartS.png","803,1498","15,17",""
"html-keyboard-response","226","667781","0.0-41.19-2.19","null","","","","","","","null","","","","","","","",""
"image-selector-fb","227","670797","0.0-41.20-0.20","null","pics2/SW3.jpg,pics2/FR4.jpg","","","","","","","false","null","","","noS.png","","",""
"image-slider-2AFC","228","675229","0.0-41.20-1.20","4428","","","","19","","","","","","","","sizeS.png","3579","19",""
"html-keyboard-response","229","676041","0.0-41.20-2.20","null","","","","","","","null","","","","","","","",""
"image-selector-fb","230","677526","0.0-41.21-0.21","979","pics2/FR5.jpg,pics2/SW2.jpg","","","","","","","true","1","","","sizeS.png","","",""
"image-slider-2AFC","231","681210","0.0-41.21-1.21","3681","","","","29","","","","","","","","sizeS.png","3115","29",""
"html-keyboard-response","232","682016","0.0-41.21-2.21","null","","","","","","","null","","","","","","","",""
"image-selector-fb","233","685025","0.0-41.22-0.22","null","pics2/SA4.jpg,pics2/SA3.jpg","","","","","","","false","null","","","noS.png","","",""
"image-slider-2AFC","234","689475","0.0-41.22-1.22","4447","","","","51","","","","","","","","sizeS.png","3591","51",""
"html-keyboard-response","235","690332","0.0-41.22-2.22","null","","","","","","","null","","","","","","","",""
"image-selector-fb","236","693341","0.0-41.23-0.23","null","pics2/SW6.jpg,pics2/FR4.jpg","","","","","","","false","null","","","noS.png","","",""
"image-slider-2AFC","237","697183","0.0-41.23-1.23","3838","","","","51","","","","","","","","sizeS.png","3103","51",""
"html-keyboard-response","238","698041","0.0-41.23-2.23","null","","","","","","","null","","","","","","","",""
"image-selector-fb","239","700114","0.0-41.24-0.24","1564","pics2/FR4.jpg,pics2/SW6.jpg","","","","","","","false","0","","","heartS.png","","",""
"image-slider-2AFC","240","702136","0.0-41.24-1.24","2017","","","","-32","","","","","","","","sizeS.png","1464","-32",""
"html-keyboard-response","241","702947","0.0-41.24-2.24","null","","","","","","","null","","","","","","","",""
"image-selector-fb","242","705957","0.0-41.25-0.25","null","pics2/SA3.jpg,pics2/SW4.jpg","","","","","","","false","null","","","noS.png","","",""
"image-slider-2AFC","243","709955","0.0-41.25-1.25","3995","","","","-52","","","","","","","","heartS.png","3300","-52",""
"html-keyboard-response","244","710813","0.0-41.25-2.25","null","","","","","","","null","","","","","","","",""
"image-selector-fb","245","713820","0.0-41.26-0.26","null","pics2/SA4.jpg,pics2/SA1.jpg","","","","","","","false","null","","","noS.png","","",""
"image-slider-2AFC","246","717107","0.0-41.26-1.26","3283","","","","-95","","","","","","","","heartS.png","2484","-95",""
"html-keyboard-response","247","717865","0.0-41.26-2.26","null","","","","","","","null","","","","","","","",""
"image-selector-fb","248","720874","0.0-41.27-0.27","null","pics2/SW3.jpg,pics2/SA1.jpg","","","","","","","false","null","","","noS.png","","",""
"image-slider-2AFC","249","723580","0.0-41.27-1.27","2702","","","","-57","","","","","","","","heartS.png","1782","-57",""
"html-keyboard-response","250","724333","0.0-41.27-2.27","null","","","","","","","null","","","","","","","",""
"image-selector-fb","251","727342","0.0-41.28-0.28","null","pics2/SW6.jpg,pics2/SW4.jpg","","","","","","","false","null","","","noS.png","","",""
"image-slider-2AFC","252","729389","0.0-41.28-1.28","2044","","","","-60","","","","","","","","heartS.png","1270","-60",""
"html-keyboard-response","253","730142","0.0-41.28-2.28","null","","","","","","","null","","","","","","","",""
"image-selector-fb","254","733150","0.0-41.29-0.29","null","pics2/SW3.jpg,pics2/SW6.jpg","","","","","","","false","null","","","noS.png","","",""
"image-slider-2AFC","255","735214","0.0-41.29-1.29","2061","","","","-44","","","","","","","","sizeS.png","1416","-44",""
"html-keyboard-response","256","736018","0.0-41.29-2.29","null","","","","","","","null","","","","","","","",""
"image-selector-fb","257","738060","0.0-41.30-0.30","1534","pics2/SA1.jpg,pics2/SA3.jpg","","","","","","","true","1","","","heartS.png","","",""
"image-slider-2AFC","258","739828","0.0-41.30-1.30","1764","","","","32","","","","","","","","sizeS.png","1239","32",""
"html-keyboard-response","259","740582","0.0-41.30-2.30","null","","","","","","","null","","","","","","","",""
"image-selector-fb","260","744302","0.0-41.31-0.31","3210","pics2/SW2.jpg,pics2/SW3.jpg","","","","","","","false","0","","","heartS.png","","",""
"image-slider-2AFC","261","746324","0.0-41.31-1.31","2019","","","","-41","","","","","","","","sizeS.png","1381","-41",""
"html-keyboard-response","262","747082","0.0-41.31-2.31","null","","","","","","","null","","","","","","","",""
"image-selector-fb","263","750332","0.0-41.32-0.32","2742","pics2/SW1.jpg,pics2/SA1.jpg","","","","","","","false","0","","","sizeS.png","","",""
"image-slider-2AFC","264","753491","0.0-41.32-1.32","3155","","","","-91","","","","","","","","heartS.png","2243","-91",""
"html-keyboard-response","265","754299","0.0-41.32-2.32","null","","","","","","","null","","","","","","","",""
"image-selector-fb","266","756684","0.0-41.33-0.33","1879","pics2/FR5.jpg,pics2/SW4.jpg","","","","","","","false","0","","","heartS.png","","",""
"image-slider-2AFC","267","758467","0.0-41.33-1.33","1781","","","","-45","","","","","","","","sizeS.png","1192","-45",""
"html-keyboard-response","268","759329","0.0-41.33-2.33","null","","","","","","","null","","","","","","","",""
"image-selector-fb","269","760997","0.0-41.34-0.34","1164","pics2/SA2.jpg,pics2/SW2.jpg","","","","","","","true","1","","","sizeS.png","","",""
"image-slider-2AFC","270","762716","0.0-41.34-1.34","1716","","","","53","","","","","","","","sizeS.png","1163","53",""
"html-keyboard-response","271","763569","0.0-41.34-2.34","null","","","","","","","null","","","","","","","",""
"image-selector-fb","272","765362","0.0-41.35-0.35","1287","pics2/SA3.jpg,pics2/SW3.jpg","","","","","","","false","0","","","sizeS.png","","",""
"image-slider-2AFC","273","767169","0.0-41.35-1.35","1804","","","","-60","","","","","","","","sizeS.png","1224","-60",""
"html-keyboard-response","274","768024","0.0-41.35-2.35","null","","","","","","","null","","","","","","","",""
"image-selector-fb","275","769514","0.0-41.36-0.36","984","pics2/SA3.jpg,pics2/SA1.jpg","","","","","","","false","0","","","sizeS.png","","",""
"image-slider-2AFC","276","771167","0.0-41.36-1.36","1650","","","","-63","","","","","","","","sizeS.png","1111","-63",""
"html-keyboard-response","277","771871","0.0-41.36-2.36","null","","","","","","","null","","","","","","","",""
"image-selector-fb","278","774176","0.0-41.37-0.37","1798","pics2/SA2.jpg,pics2/SW4.jpg","","","","","","","false","0","","","heartS.png","","",""
"image-slider-2AFC","279","777074","0.0-41.37-1.37","2895","","","","-59","","","","","","","","sizeS.png","2145","-59",""
"html-keyboard-response","280","777931","0.0-41.37-2.37","null","","","","","","","null","","","","","","","",""
"image-selector-fb","281","780941","0.0-41.38-0.38","null","pics2/SW3.jpg,pics2/SA3.jpg","","","","","","","false","null","","","noS.png","","",""
"image-slider-2AFC","282","785948","0.0-41.38-1.38","null","","","","null","","","","","","","","sizeS.png","4508","-57",""
"html-keyboard-response","283","786756","0.0-41.38-2.38","null","","","","","","","null","","","","","","","",""
"image-selector-fb","284","789052","0.0-41.39-0.39","1787","pics2/SW2.jpg,pics2/SA2.jpg","","","","","","","false","0","","","heartS.png","","",""
"image-slider-2AFC","285","790866","0.0-41.39-1.39","1811","","","","-58","","","","","","","","heartS.png","1149","-58",""
"html-keyboard-response","286","791724","0.0-41.39-2.39","null","","","","","","","null","","","","","","","",""
"image-selector-fb","287","794039","0.0-41.40-0.40","1806","pics2/SW2.jpg,pics2/SA4.jpg","","","","","","","false","0","","","heartS.png","","",""
"image-slider-2AFC","288","797225","0.0-41.40-1.40","3181","","","","-34","","","","","","","","heartS.png","2311","-34",""
"html-keyboard-response","289","798083","0.0-41.40-2.40","null","","","","","","","null","","","","","","","",""
"image-selector-fb","290","800197","0.0-41.41-0.41","1606","pics2/SA2.jpg,pics2/SA3.jpg","","","","","","","true","1","","","heartS.png","","",""
"image-slider-2AFC","291","804843","0.0-41.41-1.41","4644","","","","49","","","","","","","","heartS.png","3747","49",""
"html-keyboard-response","292","805598","0.0-41.41-2.41","null","","","","","","","null","","","","","","","",""
"image-selector-fb","293","807132","0.0-41.42-0.42","1029","pics2/SW1.jpg,pics2/SW6.jpg","","","","","","","false","0","","","heartS.png","","",""
"image-slider-2AFC","294","812137","0.0-41.42-1.42","null","","","","null","","","","","","","","sizeS.png","1820,3372,4728","-3,-31,-55",""
"html-keyboard-response","295","812897","0.0-41.42-2.42","null","","","","","","","null","","","","","","","",""
"image-selector-fb","296","815913","0.0-41.43-0.43","null","pics2/SA2.jpg,pics2/SA3.jpg","","","","","","","false","null","","","noS.png","","",""
"image-slider-2AFC","297","820746","0.0-41.43-1.43","4829","","","","33","","","","","","","","heartS.png","3045,4099","54,33",""
"html-keyboard-response","298","821549","0.0-41.43-2.43","null","","","","","","","null","","","","","","","",""
"image-selector-fb","299","824096","0.0-41.44-0.44","2037","pics2/SW3.jpg,pics2/FR4.jpg","","","","","","","true","1","","","sizeS.png","","",""
"image-slider-2AFC","300","825949","0.0-41.44-1.44","1849","","","","23","","","","","","","","heartS.png","1348","23",""
"html-keyboard-response","301","826757","0.0-41.44-2.44","null","","","","","","","null","","","","","","","",""
"image-selector-fb","302","828657","0.0-41.45-0.45","1393","pics2/SA4.jpg,pics2/SW1.jpg","","","","","","","true","1","","","sizeS.png","","",""
"image-slider-2AFC","303","831951","0.0-41.45-1.45","3289","","","","73","","","","","","","","sizeS.png","858,2587","36,73",""
"html-keyboard-response","304","832663","0.0-41.45-2.45","null","","","","","","","null","","","","","","","",""
"image-selector-fb","305","835676","0.0-41.46-0.46","null","pics2/SW3.jpg,pics2/SW2.jpg","","","","","","","false","null","","","noS.png","","",""
"image-slider-2AFC","306","837923","0.0-41.46-1.46","2244","","","","51","","","","","","","","sizeS.png","1661","51",""
"html-keyboard-response","307","838636","0.0-41.46-2.46","null","","","","","","","null","","","","","","","",""
"image-selector-fb","308","841645","0.0-41.47-0.47","null","pics2/SW2.jpg,pics2/SA1.jpg","","","","","","","false","null","","","noS.png","","",""
"image-slider-2AFC","309","846091","0.0-41.47-1.47","4441","","","","-21","","","","","","","","sizeS.png","2348,2886,3738","-28,-52,-21",""
"html-keyboard-response","310","846949","0.0-41.47-2.47","null","","","","","","","null","","","","","","","",""
"image-selector-fb","311","848583","0.0-41.48-0.48","1127","pics2/FR4.jpg,pics2/SA6.jpg","","","","","","","false","0","","","heartS.png","","",""
"image-slider-2AFC","312","850857","0.0-41.48-1.48","2270","","","","-24","","","","","","","","heartS.png","1326,1698","-16,-24",""
"html-keyboard-response","313","851716","0.0-41.48-2.48","null","","","","","","","null","","","","","","","",""
"image-selector-fb","314","853408","0.0-41.49-0.49","1183","pics2/SW1.jpg,pics2/SW2.jpg","","","","","","","false","0","","","heartS.png","","",""
"image-slider-2AFC","315","855430","0.0-41.49-1.49","2017","","","","-66","","","","","","","","heartS.png","1358","-66",""
"html-keyboard-response","316","856188","0.0-41.49-2.49","null","","","","","","","null","","","","","","","",""
"image-selector-fb","317","859202","0.0-41.50-0.50","null","pics2/SA2.jpg,pics2/SA1.jpg","","","","","","","false","null","","","noS.png","","",""
"image-slider-2AFC","318","864207","0.0-41.50-1.50","null","","","","null","","","","","","","","sizeS.png","2561","-56",""
"html-keyboard-response","319","865064","0.0-41.50-2.50","null","","","","","","","null","","","","","","","",""
"image-selector-fb","320","867128","0.0-41.51-0.51","1555","pics2/SW2.jpg,pics2/SW4.jpg","","","","","","","false","0","","","heartS.png","","",""
"image-slider-2AFC","321","868671","0.0-41.51-1.51","1540","","","","-30","","","","","","","","sizeS.png","1114","-30",""
"html-keyboard-response","322","869481","0.0-41.51-2.51","null","","","","","","","null","","","","","","","",""
"image-selector-fb","323","871882","0.0-41.52-0.52","1896","pics2/SA4.jpg,pics2/SW6.jpg","","","","","","","false","0","","","heartS.png","","",""
"image-slider-2AFC","324","874003","0.0-41.52-1.52","2117","","","","-24","","","","","","","","sizeS.png","916,1423","-37,-24",""
"html-keyboard-response","325","874707","0.0-41.52-2.52","null","","","","","","","null","","","","","","","",""
"image-selector-fb","326","877109","0.0-41.53-0.53","1895","pics2/SA6.jpg,pics2/FR5.jpg","","","","","","","true","1","","","sizeS.png","","",""
"image-slider-2AFC","327","880104","0.0-41.53-1.53","2992","","","","-13","","","","","","","","heartS.png","2599","-13",""
"html-keyboard-response","328","880813","0.0-41.53-2.53","null","","","","","","","null","","","","","","","",""
"image-selector-fb","329","883824","0.0-41.54-0.54","null","pics2/SA4.jpg,pics2/SW6.jpg","","","","","","","false","null","","","noS.png","","",""
"image-slider-2AFC","330","887277","0.0-41.54-1.54","3448","","","","-22","","","","","","","","sizeS.png","2513","-22",""
"html-keyboard-response","331","888130","0.0-41.54-2.54","null","","","","","","","null","","","","","","","",""
"image-selector-fb","332","891224","0.0-41.55-0.55","2587","pics2/SW4.jpg,pics2/SA4.jpg","","","","","","","false","0","","","sizeS.png","","",""
"image-slider-2AFC","333","893887","0.0-41.55-1.55","2658","","","","-13","","","","","","","","heartS.png","1697","-13",""
"html-keyboard-response","334","894646","0.0-41.55-2.55","null","","","","","","","null","","","","","","","",""
"image-selector-fb","335","896146","0.0-41.56-0.56","993","pics2/SW2.jpg,pics2/FR4.jpg","","","","","","","false","0","","","heartS.png","","",""
"image-slider-2AFC","336","898727","0.0-41.56-1.56","2577","","","","-48","","","","","","","","sizeS.png","912,1317,1837","-13,-26,-48",""
"html-keyboard-response","337","899488","0.0-41.56-2.56","null","","","","","","","null","","","","","","","",""
"image-selector-fb","338","902500","0.0-41.57-0.57","null","pics2/SW6.jpg,pics2/SA1.jpg","","","","","","","false","null","","","noS.png","","",""
"image-slider-2AFC","339","906587","0.0-41.57-1.57","4083","","","","-59","","","","","","","","heartS.png","3259","-59",""
"html-keyboard-response","340","907300","0.0-41.57-2.57","null","","","","","","","null","","","","","","","",""
"image-selector-fb","341","910308","0.0-41.58-0.58","null","pics2/FR5.jpg,pics2/SW2.jpg","","","","","","","false","null","","","noS.png","","",""
"image-slider-2AFC","342","912217","0.0-41.58-1.58","1906","","","","58","","","","","","","","heartS.png","1025","58",""
"html-keyboard-response","343","912976","0.0-41.58-2.58","null","","","","","","","null","","","","","","","",""
"image-selector-fb","344","915765","0.0-41.59-0.59","2284","pics2/SW4.jpg,pics2/SW3.jpg","","","","","","","false","0","","","sizeS.png","","",""
"image-slider-2AFC","345","920774","0.0-41.59-1.59","null","","","","null","","","","","","","","sizeS.png","","",""
"html-keyboard-response","346","921582","0.0-41.59-2.59","null","","","","","","","null","","","","","","","",""
"image-selector-fb","347","924528","0.0-41.60-0.60","2436","pics2/SW3.jpg,pics2/SW1.jpg","","","","","","","true","1","","","sizeS.png","","",""
"image-slider-2AFC","348","926771","0.0-41.60-1.60","2239","","","","60","","","","","","","","sizeS.png","1453","60",""
"html-keyboard-response","349","927533","0.0-41.60-2.60","null","","","","","","","null","","","","","","","",""
"image-selector-fb","350","929357","0.0-41.61-0.61","1317","pics2/SA3.jpg,pics2/SA2.jpg","","","","","","","false","0","","","sizeS.png","","",""
"image-slider-2AFC","351","931504","0.0-41.61-1.61","2146","","","","-53","","","","","","","","heartS.png","1123,1543","-32,-53",""
"html-keyboard-response","352","932216","0.0-41.61-2.61","null","","","","","","","null","","","","","","","",""
"image-selector-fb","353","934585","0.0-41.62-0.62","1862","pics2/SW2.jpg,pics2/SA6.jpg","","","","","","","false","0","","","heartS.png","","",""
"image-slider-2AFC","354","936893","0.0-41.62-1.62","2305","","","","-43","","","","","","","","sizeS.png","920,1275","-24,-43",""
"html-keyboard-response","355","937652","0.0-41.62-2.62","null","","","","","","","null","","","","","","","",""
"image-selector-fb","356","940664","0.0-41.63-0.63","null","pics2/SA6.jpg,pics2/FR4.jpg","","","","","","","false","null","","","noS.png","","",""
"image-slider-2AFC","357","943946","0.0-41.63-1.63","3278","","","","46","","","","","","","","sizeS.png","2608","46",""
"html-keyboard-response","358","944755","0.0-41.63-2.63","null","","","","","","","null","","","","","","","",""
"image-selector-fb","359","947762","0.0-41.64-0.64","null","pics2/SW3.jpg,pics2/SA4.jpg","","","","","","","false","null","","","noS.png","","",""
"image-slider-2AFC","360","951696","0.0-41.64-1.64","3929","","","","57","","","","","","","","heartS.png","3032","57",""
"html-keyboard-response","361","952558","0.0-41.64-2.64","null","","","","","","","null","","","","","","","",""
"image-selector-fb","362","956114","0.0-41.65-0.65","3044","pics2/SA3.jpg,pics2/FR5.jpg","","","","","","","false","0","","","sizeS.png","","",""
"image-slider-2AFC","363","958287","0.0-41.65-1.65","2169","","","","-61","","","","","","","","heartS.png","1557","-61",""
"html-keyboard-response","364","959096","0.0-41.65-2.65","null","","","","","","","null","","","","","","","",""
"pavlovia","365","959118","0.0-42.0","","","","","","","","","","","","","","","",""
"html-keyboard-response","366","964125","0.0-43.0","null","<div style='width: 700px;'> <font size=6><b>SHORT BREAK</font></b><br><br><i> Please wait 5 seconds to continue</i></div> ","","","","","","null","","","","","","","",""
"pavlovia","367","964128","0.0-44.0","","","","","","","","","","","","","","","",""
"html-button-response","368","966053","0.0-45.0","1924","<div style='width: 700px;'> <font size=6><b>BLOCK 2</font></b><br><br>Press the button whenever you feel ready to start the second block (there are 3 in total)</div>","0","","","","","","","","","","","","",""
"image-selector-fb","369","969707","0.0-46.0-0.0","3144","pics2/FR5.jpg,pics2/SA6.jpg","","","","","","","false","0","","","heartS.png","","",""
"image-slider-2AFC","370","971914","0.0-46.0-1.0","2203","","","","-53","","","","","","","","sizeS.png","1412","-53",""
"html-keyboard-response","371","972626","0.0-46.0-2.0","null","","","","","","","null","","","","","","","",""
"image-selector-fb","372","975190","0.0-46.1-0.1","2056","pics2/FR4.jpg,pics2/SA4.jpg","","","","","","","false","0","","","heartS.png","","",""
"image-slider-2AFC","373","977126","0.0-46.1-1.1","1933","","","","-52","","","","","","","","sizeS.png","762","-52",""
"html-keyboard-response","374","977986","0.0-46.1-2.1","null","","","","","","","null","","","","","","","",""
"image-selector-fb","375","979881","0.0-46.2-0.2","1383","pics2/SA1.jpg,pics2/SW2.jpg","","","","","","","true","1","","","heartS.png","","",""
"image-slider-2AFC","376","983623","0.0-46.2-1.2","3737","","","","64","","","","","","","","heartS.png","1320","64",""
"html-keyboard-response","377","984330","0.0-46.2-2.2","null","","","","","","","null","","","","","","","",""
"image-selector-fb","378","986536","0.0-46.3-0.3","1699","pics2/SA1.jpg,pics2/SW4.jpg","","","","","","","true","1","","","heartS.png","","",""
"image-slider-2AFC","379","988092","0.0-46.3-1.3","1553","","","","25","","","","","","","","heartS.png","1068","25",""
"html-keyboard-response","380","988945","0.0-46.3-2.3","null","","","","","","","null","","","","","","","",""
"image-selector-fb","381","991697","0.0-46.4-0.4","2247","pics2/SA6.jpg,pics2/SA4.jpg","","","","","","","true","1","","","sizeS.png","","",""
"image-slider-2AFC","382","993658","0.0-46.4-1.4","1958","","","","48","","","","","","","","heartS.png","1434","48",""
"html-keyboard-response","383","994460","0.0-46.4-2.4","null","","","","","","","null","","","","","","","",""
"image-selector-fb","384","997470","0.0-46.5-0.5","null","pics2/SA4.jpg,pics2/FR4.jpg","","","","","","","false","null","","","noS.png","","",""
"image-slider-2AFC","385","1001109","0.0-46.5-1.5","3635","","","","23","","","","","","","","sizeS.png","3158","23",""
"html-keyboard-response","386","1001871","0.0-46.5-2.5","null","","","","","","","null","","","","","","","",""
"image-selector-fb","387","1004882","0.0-46.6-0.6","null","pics2/SA2.jpg,pics2/SW1.jpg","","","","","","","false","null","","","noS.png","","",""
"image-slider-2AFC","388","1008105","0.0-46.6-1.6","3220","","","","77","","","","","","","","heartS.png","2429","77",""
"html-keyboard-response","389","1008959","0.0-46.6-2.6","null","","","","","","","null","","","","","","","",""
"image-selector-fb","390","1013347","0.0-46.7-0.7","3876","pics2/SW1.jpg,pics2/SA4.jpg","","","","","","","false","0","","","heartS.png","","",""
"image-slider-2AFC","391","1015950","0.0-46.7-1.7","2599","","","","-71","","","","","","","","sizeS.png","1788","-71",""
"html-keyboard-response","392","1016663","0.0-46.7-2.7","null","","","","","","","null","","","","","","","",""
"image-selector-fb","393","1018353","0.0-46.8-0.8","1183","pics2/FR5.jpg,pics2/SA1.jpg","","","","","","","false","0","","","sizeS.png","","",""
"image-slider-2AFC","394","1020176","0.0-46.8-1.8","1820","","","","-30","","","","","","","","sizeS.png","1069","-30",""
"html-keyboard-response","395","1020930","0.0-46.8-2.8","null","","","","","","","null","","","","","","","",""
"image-selector-fb","396","1023946","0.0-46.9-0.9","null","pics2/SW1.jpg,pics2/SA1.jpg","","","","","","","false","null","","","noS.png","","",""
"image-slider-2AFC","397","1026947","0.0-46.9-1.9","2997","","","","-85","","","","","","","","sizeS.png","1924","-85",""
"html-keyboard-response","398","1027702","0.0-46.9-2.9","null","","","","","","","null","","","","","","","",""
"image-selector-fb","399","1030714","0.0-46.10-0.10","null","pics2/SW2.jpg,pics2/FR4.jpg","","","","","","","false","null","","","noS.png","","",""
"image-slider-2AFC","400","1032975","0.0-46.10-1.10","2258","","","","-75","","","","","","","","heartS.png","1483","-75",""
"html-keyboard-response","401","1033782","0.0-46.10-2.10","null","","","","","","","null","","","","","","","",""
"image-selector-fb","402","1037327","0.0-46.11-0.11","3034","pics2/SA1.jpg,pics2/SW3.jpg","","","","","","","true","1","","","heartS.png","","",""
"image-slider-2AFC","403","1040723","0.0-46.11-1.11","3391","","","","70","","","","","","","","heartS.png","2779","70",""
"html-keyboard-response","404","1041477","0.0-46.11-2.11","null","","","","","","","null","","","","","","","",""
"image-selector-fb","405","1044491","0.0-46.12-0.12","null","pics2/FR5.jpg,pics2/SW1.jpg","","","","","","","false","null","","","noS.png","","",""
"image-slider-2AFC","406","1046686","0.0-46.12-1.12","2190","","","","87","","","","","","","","heartS.png","1536","87",""
"html-keyboard-response","407","1047495","0.0-46.12-2.12","null","","","","","","","null","","","","","","","",""
"image-selector-fb","408","1049097","0.0-46.13-0.13","1093","pics2/SA2.jpg,pics2/SW6.jpg","","","","","","","true","1","","","heartS.png","","",""
"image-slider-2AFC","409","1051178","0.0-46.13-1.13","2078","","","","67","","","","","","","","heartS.png","1350","67",""
"html-keyboard-response","410","1051888","0.0-46.13-2.13","null","","","","","","","null","","","","","","","",""
"image-selector-fb","411","1054904","0.0-46.14-0.14","null","pics2/FR5.jpg,pics2/SA1.jpg","","","","","","","false","null","","","noS.png","","",""
"image-slider-2AFC","412","1058352","0.0-46.14-1.14","3446","","","","-63","","","","","","","","sizeS.png","2873","-63",""
"html-keyboard-response","413","1059106","0.0-46.14-2.14","null","","","","","","","null","","","","","","","",""
"image-selector-fb","414","1060884","0.0-46.15-0.15","1272","pics2/SA3.jpg,pics2/FR4.jpg","","","","","","","false","0","","","sizeS.png","","",""
"image-slider-2AFC","415","1062635","0.0-46.15-1.15","1747","","","","-62","","","","","","","","sizeS.png","981","-62",""
"html-keyboard-response","416","1063389","0.0-46.15-2.15","null","","","","","","","null","","","","","","","",""
"image-selector-fb","417","1065690","0.0-46.16-0.16","1795","pics2/SW3.jpg,pics2/SW6.jpg","","","","","","","true","1","","","heartS.png","","",""
"image-slider-2AFC","418","1067733","0.0-46.16-1.16","2041","","","","70","","","","","","","","sizeS.png","1265","70",""
"html-keyboard-response","419","1068495","0.0-46.16-2.16","null","","","","","","","null","","","","","","","",""
"image-selector-fb","420","1070620","0.0-46.17-0.17","1617","pics2/SW2.jpg,pics2/SW1.jpg","","","","","","","true","1","","","sizeS.png","","",""
"image-slider-2AFC","421","1072201","0.0-46.17-1.17","1578","","","","74","","","","","","","","heartS.png","867","74",""
"html-keyboard-response","422","1072956","0.0-46.17-2.17","null","","","","","","","null","","","","","","","",""
"image-selector-fb","423","1075446","0.0-46.18-0.18","1984","pics2/SA4.jpg,pics2/SA1.jpg","","","","","","","false","0","","","sizeS.png","","",""
"image-slider-2AFC","424","1078066","0.0-46.18-1.18","2617","","","","-100","","","","","","","","heartS.png","1771","-100",""
"html-keyboard-response","425","1078923","0.0-46.18-2.18","null","","","","","","","null","","","","","","","",""
"image-selector-fb","426","1081086","0.0-46.19-0.19","1652","pics2/SA6.jpg,pics2/SW2.jpg","","","","","","","true","1","","","sizeS.png","","",""
"image-slider-2AFC","427","1083285","0.0-46.19-1.19","2195","","","","62","","","","","","","","sizeS.png","1374","62",""
"html-keyboard-response","428","1084047","0.0-46.19-2.19","null","","","","","","","null","","","","","","","",""
"image-selector-fb","429","1086350","0.0-46.20-0.20","1797","pics2/SA6.jpg,pics2/SW1.jpg","","","","","","","true","1","","","sizeS.png","","",""
"image-slider-2AFC","430","1090128","0.0-46.20-1.20","3775","","","","99","","","","","","","","heartS.png","851,2241","66,99",""
"html-keyboard-response","431","1090941","0.0-46.20-2.20","null","","","","","","","null","","","","","","","",""
"image-selector-fb","432","1093952","0.0-46.21-0.21","null","pics2/SW2.jpg,pics2/SW6.jpg","","","","","","","false","null","","","noS.png","","",""
"image-slider-2AFC","433","1097336","0.0-46.21-1.21","3379","","","","-64","","","","","","","","heartS.png","2655","-64",""
"html-keyboard-response","434","1098144","0.0-46.21-2.21","null","","","","","","","null","","","","","","","",""
"image-selector-fb","435","1100704","0.0-46.22-0.22","2048","pics2/SW6.jpg,pics2/SW3.jpg","","","","","","","true","1","","","sizeS.png","","",""
"image-slider-2AFC","436","1102765","0.0-46.22-1.22","2056","","","","27","","","","","","","","heartS.png","1395","27",""
"html-keyboard-response","437","1103622","0.0-46.22-2.22","null","","","","","","","null","","","","","","","",""
"image-selector-fb","438","1105422","0.0-46.23-0.23","1287","pics2/FR4.jpg,pics2/SW1.jpg","","","","","","","true","1","","","sizeS.png","","",""
"image-slider-2AFC","439","1110431","0.0-46.23-1.23","null","","","","null","","","","","","","","sizeS.png","1870,3300","90,100",""
"html-keyboard-response","440","1111294","0.0-46.23-2.23","null","","","","","","","null","","","","","","","",""
"image-selector-fb","441","1113636","0.0-46.24-0.24","1831","pics2/FR5.jpg,pics2/SA2.jpg","","","","","","","false","0","","","heartS.png","","",""
"image-slider-2AFC","442","1115875","0.0-46.24-1.24","2236","","","","-38","","","","","","","","heartS.png","1420","-38",""
"html-keyboard-response","443","1116587","0.0-46.24-2.24","null","","","","","","","null","","","","","","","",""
"image-selector-fb","444","1119601","0.0-46.25-0.25","null","pics2/SW3.jpg,pics2/SA2.jpg","","","","","","","false","null","","","noS.png","","",""
"image-slider-2AFC","445","1123931","0.0-46.25-1.25","4327","","","","-57","","","","","","","","heartS.png","3335","-57",""
"html-keyboard-response","446","1124691","0.0-46.25-2.25","null","","","","","","","null","","","","","","","",""
"image-selector-fb","447","1126373","0.0-46.26-0.26","1176","pics2/SW6.jpg,pics2/SW2.jpg","","","","","","","true","1","","","sizeS.png","","",""
"image-slider-2AFC","448","1128376","0.0-46.26-1.26","2000","","","","62","","","","","","","","heartS.png","991","62",""
"html-keyboard-response","449","1129133","0.0-46.26-2.26","null","","","","","","","null","","","","","","","",""
"image-selector-fb","450","1132143","0.0-46.27-0.27","null","pics2/SW2.jpg,pics2/SW1.jpg","","","","","","","false","null","","","noS.png","","",""
"image-slider-2AFC","451","1135099","0.0-46.27-1.27","2952","","","","65","","","","","","","","heartS.png","1999","65",""
"html-keyboard-response","452","1135906","0.0-46.27-2.27","null","","","","","","","null","","","","","","","",""
"image-selector-fb","453","1138921","0.0-46.28-0.28","null","pics2/SA6.jpg,pics2/SW6.jpg","","","","","","","false","null","","","noS.png","","",""
"image-slider-2AFC","454","1143255","0.0-46.28-1.28","4330","","","","49","","","","","","","","sizeS.png","3561","49",""
"html-keyboard-response","455","1144109","0.0-46.28-2.28","null","","","","","","","null","","","","","","","",""
"image-selector-fb","456","1147462","0.0-46.29-0.29","2843","pics2/SW2.jpg,pics2/SA1.jpg","","","","","","","false","0","","","sizeS.png","","",""
"image-slider-2AFC","457","1149790","0.0-46.29-1.29","2324","","","","-83","","","","","","","","sizeS.png","1230","-83",""
"html-keyboard-response","458","1150648","0.0-46.29-2.29","null","","","","","","","null","","","","","","","",""
"image-selector-fb","459","1154485","0.0-46.30-0.30","3327","pics2/FR4.jpg,pics2/SW2.jpg","","","","","","","true","1","","","sizeS.png","","",""
"image-slider-2AFC","460","1156910","0.0-46.30-1.30","2421","","","","51","","","","","","","","heartS.png","1757","51",""
"html-keyboard-response","461","1157616","0.0-46.30-2.30","null","","","","","","","null","","","","","","","",""
"image-selector-fb","462","1160627","0.0-46.31-0.31","null","pics2/SA4.jpg,pics2/SW4.jpg","","","","","","","false","null","","","noS.png","","",""
"image-slider-2AFC","463","1163462","0.0-46.31-1.31","2831","","","","-81","","","","","","","","heartS.png","1970","-81",""
"html-keyboard-response","464","1164173","0.0-46.31-2.31","null","","","","","","","null","","","","","","","",""
"image-selector-fb","465","1166091","0.0-46.32-0.32","1412","pics2/SW4.jpg,pics2/SA1.jpg","","","","","","","false","0","","","sizeS.png","","",""
"image-slider-2AFC","466","1168968","0.0-46.32-1.32","2872","","","","-59","","","","","","","","sizeS.png","1643","-59",""
"html-keyboard-response","467","1169776","0.0-46.32-2.32","null","","","","","","","null","","","","","","","",""
"image-selector-fb","468","1171954","0.0-46.33-0.33","1666","pics2/SA4.jpg,pics2/SW4.jpg","","","","","","","false","0","","","heartS.png","","",""
"image-slider-2AFC","469","1174022","0.0-46.33-1.33","2063","","","","-76","","","","","","","","heartS.png","900,1298","-58,-76",""
"html-keyboard-response","470","1174831","0.0-46.33-2.33","null","","","","","","","null","","","","","","","",""
"image-selector-fb","471","1176250","0.0-46.34-0.34","910","pics2/SW3.jpg,pics2/SA1.jpg","","","","","","","false","0","","","sizeS.png","","",""
"image-slider-2AFC","472","1177968","0.0-46.34-1.34","1715","","","","-52","","","","","","","","heartS.png","979","-52",""
"html-keyboard-response","473","1178826","0.0-46.34-2.34","null","","","","","","","null","","","","","","","",""
"image-selector-fb","474","1181841","0.0-46.35-0.35","null","pics2/SW2.jpg,pics2/SW4.jpg","","","","","","","false","null","","","noS.png","","",""
"image-slider-2AFC","475","1183520","0.0-46.35-1.35","1676","","","","-60","","","","","","","","sizeS.png","1111","-60",""
"html-keyboard-response","476","1184323","0.0-46.35-2.35","null","","","","","","","null","","","","","","","",""
"image-selector-fb","477","1187330","0.0-46.36-0.36","null","pics2/SA2.jpg,pics2/FR4.jpg","","","","","","","false","null","","","noS.png","","",""
"image-slider-2AFC","478","1189744","0.0-46.36-1.36","2412","","","","-53","","","","","","","","heartS.png","1757","-53",""
"html-keyboard-response","479","1190553","0.0-46.36-2.36","null","","","","","","","null","","","","","","","",""
"image-selector-fb","480","1192813","0.0-46.37-0.37","1750","pics2/SW3.jpg,pics2/SA2.jpg","","","","","","","false","0","","","sizeS.png","","",""
"image-slider-2AFC","481","1194714","0.0-46.37-1.37","1898","","","","-54","","","","","","","","sizeS.png","1138","-54",""
"html-keyboard-response","482","1195418","0.0-46.37-2.37","null","","","","","","","null","","","","","","","",""
"image-selector-fb","483","1198426","0.0-46.38-0.38","null","pics2/SW3.jpg,pics2/SW4.jpg","","","","","","","false","null","","","noS.png","","",""
"image-slider-2AFC","484","1200161","0.0-46.38-1.38","1731","","","","-48","","","","","","","","heartS.png","947","-48",""
"html-keyboard-response","485","1200967","0.0-46.38-2.38","null","","","","","","","null","","","","","","","",""
"image-selector-fb","486","1202401","0.0-46.39-0.39","928","pics2/SA3.jpg,pics2/SW6.jpg","","","","","","","false","0","","","sizeS.png","","",""
"image-slider-2AFC","487","1205300","0.0-46.39-1.39","2896","","","","-59","","","","","","","","heartS.png","2178","-59",""
"html-keyboard-response","488","1206158","0.0-46.39-2.39","null","","","","","","","null","","","","","","","",""
"image-selector-fb","489","1208934","0.0-46.40-0.40","2264","pics2/FR5.jpg,pics2/SW6.jpg","","","","","","","true","1","","","heartS.png","","",""
"image-slider-2AFC","490","1210666","0.0-46.40-1.40","1728","","","","67","","","","","","","","heartS.png","1098","67",""
"html-keyboard-response","491","1211371","0.0-46.40-2.40","null","","","","","","","null","","","","","","","",""
"image-selector-fb","492","1213417","0.0-46.41-0.41","1541","pics2/SA4.jpg,pics2/FR4.jpg","","","","","","","true","1","","","sizeS.png","","",""
"image-slider-2AFC","493","1215675","0.0-46.41-1.41","2254","","","","-49","","","","","","","","heartS.png","1554","-49",""
"html-keyboard-response","494","1216529","0.0-46.41-2.41","null","","","","","","","null","","","","","","","",""
"image-selector-fb","495","1218976","0.0-46.42-0.42","1939","pics2/FR4.jpg,pics2/SA2.jpg","","","","","","","false","0","","","heartS.png","","",""
"image-slider-2AFC","496","1220621","0.0-46.42-1.42","1642","","","","-48","","","","","","","","sizeS.png","1101","-48",""
"html-keyboard-response","497","1221427","0.0-46.42-2.42","null","","","","","","","null","","","","","","","",""
"image-selector-fb","498","1223047","0.0-46.43-0.43","1113","pics2/SW1.jpg,pics2/SA3.jpg","","","","","","","false","0","","","heartS.png","","",""
"image-slider-2AFC","499","1224863","0.0-46.43-1.43","1812","","","","-40","","","","","","","","sizeS.png","1230","-40",""
"html-keyboard-response","500","1225569","0.0-46.43-2.43","null","","","","","","","null","","","","","","","",""
"image-selector-fb","501","1227703","0.0-46.44-0.44","1624","pics2/SA6.jpg,pics2/SW6.jpg","","","","","","","true","1","","","heartS.png","","",""
"image-slider-2AFC","502","1229291","0.0-46.44-1.44","1583","","","","59","","","","","","","","heartS.png","840","59",""
"html-keyboard-response","503","1230150","0.0-46.44-2.44","null","","","","","","","null","","","","","","","",""
"image-selector-fb","504","1232445","0.0-46.45-0.45","1786","pics2/SW4.jpg,pics2/SA6.jpg","","","","","","","true","1","","","sizeS.png","","",""
"image-slider-2AFC","505","1233985","0.0-46.45-1.45","1537","","","","19","","","","","","","","sizeS.png","1093","19",""
"html-keyboard-response","506","1234744","0.0-46.45-2.45","null","","","","","","","null","","","","","","","",""
"image-selector-fb","507","1237749","0.0-46.46-0.46","null","pics2/SW2.jpg,pics2/SA2.jpg","","","","","","","false","null","","","noS.png","","",""
"image-slider-2AFC","508","1242015","0.0-46.46-1.46","4263","","","","-67","","","","","","","","sizeS.png","2372,3325","-64,-67",""
"html-keyboard-response","509","1242825","0.0-46.46-2.46","null","","","","","","","null","","","","","","","",""
"image-selector-fb","510","1245223","0.0-46.47-0.47","1886","pics2/SA6.jpg,pics2/SW3.jpg","","","","","","","true","1","","","heartS.png","","",""
"image-slider-2AFC","511","1247468","0.0-46.47-1.47","2242","","","","58","","","","","","","","sizeS.png","1257","58",""
"html-keyboard-response","512","1248325","0.0-46.47-2.47","null","","","","","","","null","","","","","","","",""
"image-selector-fb","513","1251338","0.0-46.48-0.48","null","pics2/FR5.jpg,pics2/SW4.jpg","","","","","","","false","null","","","noS.png","","",""
"image-slider-2AFC","514","1254241","0.0-46.48-1.48","2899","","","","-80","","","","","","","","sizeS.png","2012","-80",""
"html-keyboard-response","515","1255096","0.0-46.48-2.48","null","","","","","","","null","","","","","","","",""
"image-selector-fb","516","1257210","0.0-46.49-0.49","1607","pics2/SW6.jpg,pics2/SW4.jpg","","","","","","","false","0","","","heartS.png","","",""
"image-slider-2AFC","517","1259081","0.0-46.49-1.49","1868","","","","-48","","","","","","","","heartS.png","1149","-48",""
"html-keyboard-response","518","1259889","0.0-46.49-2.49","null","","","","","","","null","","","","","","","",""
"image-selector-fb","519","1261444","0.0-46.50-0.50","1046","pics2/SA1.jpg,pics2/SW6.jpg","","","","","","","true","1","","","heartS.png","","",""
"image-slider-2AFC","520","1264439","0.0-46.50-1.50","2992","","","","13","","","","","","","","sizeS.png","996,1876,2281","57,35,13",""
"html-keyboard-response","521","1265148","0.0-46.50-2.50","null","","","","","","","null","","","","","","","",""
"image-selector-fb","522","1268162","0.0-46.51-0.51","null","pics2/SW1.jpg,pics2/SW4.jpg","","","","","","","false","null","","","noS.png","","",""
"image-slider-2AFC","523","1271201","0.0-46.51-1.51","3035","","","","-85","","","","","","","","sizeS.png","2324","-85",""
"html-keyboard-response","524","1272011","0.0-46.51-2.51","null","","","","","","","null","","","","","","","",""
"image-selector-fb","525","1274245","0.0-46.52-0.52","1724","pics2/SW3.jpg,pics2/SW2.jpg","","","","","","","true","1","","","sizeS.png","","",""
"image-slider-2AFC","526","1275904","0.0-46.52-1.52","1654","","","","64","","","","","","","","heartS.png","928","64",""
"html-keyboard-response","527","1276716","0.0-46.52-2.52","null","","","","","","","null","","","","","","","",""
"image-selector-fb","528","1278631","0.0-46.53-0.53","1407","pics2/SW1.jpg,pics2/SW3.jpg","","","","","","","false","0","","","heartS.png","","",""
"image-slider-2AFC","529","1280341","0.0-46.53-1.53","1705","","","","-82","","","","","","","","heartS.png","1076","-82",""
"html-keyboard-response","530","1281046","0.0-46.53-2.53","null","","","","","","","null","","","","","","","",""
"image-selector-fb","531","1284156","0.0-46.54-0.54","2604","pics2/SA2.jpg,pics2/SA6.jpg","","","","","","","false","0","","","sizeS.png","","",""
"image-slider-2AFC","532","1285544","0.0-46.54-1.54","1385","","","","-61","","","","","","","","sizeS.png","836","-61",""
"html-keyboard-response","533","1286298","0.0-46.54-2.54","null","","","","","","","null","","","","","","","",""
"image-selector-fb","534","1289312","0.0-46.55-0.55","null","pics2/SA4.jpg,pics2/SA2.jpg","","","","","","","false","null","","","noS.png","","",""
"image-slider-2AFC","535","1293200","0.0-46.55-1.55","3883","","","","-72","","","","","","","","heartS.png","3165","-72",""
"html-keyboard-response","536","1294008","0.0-46.55-2.55","null","","","","","","","null","","","","","","","",""
"image-selector-fb","537","1297026","0.0-46.56-0.56","null","pics2/SW3.jpg,pics2/FR5.jpg","","","","","","","false","null","","","noS.png","","",""
"image-slider-2AFC","538","1299896","0.0-46.56-1.56","2867","","","","-68","","","","","","","","heartS.png","1801","-68",""
"html-keyboard-response","539","1300708","0.0-46.56-2.56","null","","","","","","","null","","","","","","","",""
"image-selector-fb","540","1302955","0.0-46.57-0.57","1738","pics2/SA4.jpg,pics2/SA2.jpg","","","","","","","false","0","","","heartS.png","","",""
"image-slider-2AFC","541","1305603","0.0-46.57-1.57","2646","","","","-55","","","","","","","","sizeS.png","2026","-55",""
"html-keyboard-response","542","1306361","0.0-46.57-2.57","null","","","","","","","null","","","","","","","",""
"image-selector-fb","543","1309375","0.0-46.58-0.58","null","pics2/SA3.jpg,pics2/FR4.jpg","","","","","","","false","null","","","noS.png","","",""
"image-slider-2AFC","544","1312375","0.0-46.58-1.58","2996","","","","-50","","","","","","","","sizeS.png","2229","-50",""
"html-keyboard-response","545","1313129","0.0-46.58-2.58","null","","","","","","","null","","","","","","","",""
"image-selector-fb","546","1316144","0.0-46.59-0.59","null","pics2/SW2.jpg,pics2/SA4.jpg","","","","","","","false","null","","","noS.png","","",""
"image-slider-2AFC","547","1318459","0.0-46.59-1.59","2311","","","","-63","","","","","","","","sizeS.png","1673","-63",""
"html-keyboard-response","548","1319164","0.0-46.59-2.59","null","","","","","","","null","","","","","","","",""
"image-selector-fb","549","1322174","0.0-46.60-0.60","null","pics2/SA6.jpg,pics2/SA2.jpg","","","","","","","false","null","","","noS.png","","",""
"image-slider-2AFC","550","1325229","0.0-46.60-1.60","3051","","","","51","","","","","","","","heartS.png","1461,2503","-62,51",""
"html-keyboard-response","551","1326082","0.0-46.60-2.60","null","","","","","","","null","","","","","","","",""
"image-selector-fb","552","1327859","0.0-46.61-0.61","1271","pics2/FR5.jpg,pics2/SA3.jpg","","","","","","","true","1","","","heartS.png","","",""
"image-slider-2AFC","553","1329471","0.0-46.61-1.61","1608","","","","60","","","","","","","","heartS.png","979","60",""
"html-keyboard-response","554","1330325","0.0-46.61-2.61","null","","","","","","","null","","","","","","","",""
"image-selector-fb","555","1332028","0.0-46.62-0.62","1194","pics2/SW6.jpg,pics2/FR5.jpg","","","","","","","false","0","","","sizeS.png","","",""
"image-slider-2AFC","556","1333988","0.0-46.62-1.62","1957","","","","-48","","","","","","","","sizeS.png","1408","-48",""
"html-keyboard-response","557","1334742","0.0-46.62-2.62","null","","","","","","","null","","","","","","","",""
"image-selector-fb","558","1336703","0.0-46.63-0.63","1451","pics2/SA2.jpg,pics2/FR4.jpg","","","","","","","true","1","","","sizeS.png","","",""
"image-slider-2AFC","559","1338496","0.0-46.63-1.63","1789","","","","54","","","","","","","","sizeS.png","1030","54",""
"html-keyboard-response","560","1339204","0.0-46.63-2.63","null","","","","","","","null","","","","","","","",""
"image-selector-fb","561","1341452","0.0-46.64-0.64","1736","pics2/SW6.jpg,pics2/SW1.jpg","","","","","","","true","1","","","sizeS.png","","",""
"image-slider-2AFC","562","1343288","0.0-46.64-1.64","1831","","","","66","","","","","","","","sizeS.png","1242","66",""
"html-keyboard-response","563","1344047","0.0-46.64-2.64","null","","","","","","","null","","","","","","","",""
"image-selector-fb","564","1347064","0.0-46.65-0.65","null","pics2/SA2.jpg,pics2/SW4.jpg","","","","","","","false","null","","","noS.png","","",""
"image-slider-2AFC","565","1348854","0.0-46.65-1.65","1786","","","","68","","","","","","","","sizeS.png","1229","68",""
"html-keyboard-response","566","1349611","0.0-46.65-2.65","null","","","","","","","null","","","","","","","",""
"pavlovia","567","1349635","0.0-47.0","","","","","","","","","","","","","","","",""
"html-keyboard-response","568","1354641","0.0-48.0","null","<div style='width: 700px;'> <font size=6><b>SHORT BREAK</font></b><br><br><i> Please wait 5 seconds to continue</i></div> ","","","","","","null","","","","","","","",""
"pavlovia","569","1354644","0.0-49.0","","","","","","","","","","","","","","","",""
"html-button-response","570","1357580","0.0-50.0","2934","<div style='width: 700px;'> <font size=6><b>BLOCK 3</font></b><br><br>Press the button whenever you feel ready to start the third and final block</div>","0","","","","","","","","","","","","",""
"image-selector-fb","571","1360589","0.0-51.0-0.0","null","pics2/SW6.jpg,pics2/SA3.jpg","","","","","","","false","null","","","noS.png","","",""
"image-slider-2AFC","572","1363900","0.0-51.0-1.0","3307","","","","21","","","","","","","","sizeS.png","2708","21",""
"html-keyboard-response","573","1364704","0.0-51.0-2.0","null","","","","","","","null","","","","","","","",""
"image-selector-fb","574","1366979","0.0-51.1-0.1","1769","pics2/SA2.jpg,pics2/FR5.jpg","","","","","","","true","1","","","sizeS.png","","",""
"image-slider-2AFC","575","1368844","0.0-51.1-1.1","1862","","","","52","","","","","","","","heartS.png","1240","52",""
"html-keyboard-response","576","1369652","0.0-51.1-2.1","null","","","","","","","null","","","","","","","",""
"image-selector-fb","577","1371447","0.0-51.2-0.2","1290","pics2/SA3.jpg,pics2/SA4.jpg","","","","","","","false","0","","","sizeS.png","","",""
"image-slider-2AFC","578","1372932","0.0-51.2-1.2","1483","","","","-32","","","","","","","","heartS.png","796","-32",""
"html-keyboard-response","579","1373738","0.0-51.2-2.2","null","","","","","","","null","","","","","","","",""
"image-selector-fb","580","1376746","0.0-51.3-0.3","null","pics2/SA6.jpg,pics2/SW2.jpg","","","","","","","false","null","","","noS.png","","",""
"image-slider-2AFC","581","1378685","0.0-51.3-1.3","1936","","","","65","","","","","","","","sizeS.png","1256","65",""
"html-keyboard-response","582","1379392","0.0-51.3-2.3","null","","","","","","","null","","","","","","","",""
"image-selector-fb","583","1381507","0.0-51.4-0.4","1607","pics2/SA4.jpg,pics2/SA6.jpg","","","","","","","false","0","","","heartS.png","","",""
"image-slider-2AFC","584","1383524","0.0-51.4-1.4","2014","","","","-42","","","","","","","","heartS.png","1246","-42",""
"html-keyboard-response","585","1384332","0.0-51.4-2.4","null","","","","","","","null","","","","","","","",""
"image-selector-fb","586","1385813","0.0-51.5-0.5","975","pics2/SW1.jpg,pics2/SW4.jpg","","","","","","","false","0","","","heartS.png","","",""
"image-slider-2AFC","587","1387249","0.0-51.5-1.5","1433","","","","-45","","","","","","","","heartS.png","900","-45",""
"html-keyboard-response","588","1387952","0.0-51.5-2.5","null","","","","","","","null","","","","","","","",""
"image-selector-fb","589","1389757","0.0-51.6-0.6","1297","pics2/SA2.jpg,pics2/SA1.jpg","","","","","","","false","0","","","sizeS.png","","",""
"image-slider-2AFC","590","1391578","0.0-51.6-1.6","1818","","","","-16","","","","","","","","sizeS.png","907","-16",""
"html-keyboard-response","591","1392338","0.0-51.6-2.6","null","","","","","","","null","","","","","","","",""
"image-selector-fb","592","1394607","0.0-51.7-0.7","1758","pics2/FR4.jpg,pics2/SW3.jpg","","","","","","","false","0","","","heartS.png","","",""
"image-slider-2AFC","593","1396418","0.0-51.7-1.7","1807","","","","-32","","","","","","","","heartS.png","974","-32",""
"html-keyboard-response","594","1397128","0.0-51.7-2.7","null","","","","","","","null","","","","","","","",""
"image-selector-fb","595","1400140","0.0-51.8-0.8","null","pics2/SA6.jpg,pics2/FR5.jpg","","","","","","","false","null","","","noS.png","","",""
"image-slider-2AFC","596","1403488","0.0-51.8-1.8","3344","","","","52","","","","","","","","heartS.png","2381","52",""
"html-keyboard-response","597","1404250","0.0-51.8-2.8","null","","","","","","","null","","","","","","","",""
"image-selector-fb","598","1405752","0.0-51.9-0.9","994","pics2/FR5.jpg,pics2/FR4.jpg","","","","","","","true","1","","","heartS.png","","",""
"image-slider-2AFC","599","1409829","0.0-51.9-1.9","4073","","","","40","","","","","","","","sizeS.png","3355","40",""
"html-keyboard-response","600","1410686","0.0-51.9-2.9","null","","","","","","","null","","","","","","","",""
"image-selector-fb","601","1412499","0.0-51.10-0.10","1306","pics2/SW1.jpg,pics2/SA2.jpg","","","","","","","false","0","","","heartS.png","","",""
"image-slider-2AFC","602","1414387","0.0-51.10-1.10","1884","","","","-67","","","","","","","","sizeS.png","1215","-67",""
"html-keyboard-response","603","1415195","0.0-51.10-2.10","null","","","","","","","null","","","","","","","",""
"image-selector-fb","604","1418125","0.0-51.11-0.11","2420","pics2/FR4.jpg,pics2/FR5.jpg","","","","","","","true","1","","","sizeS.png","","",""
"image-slider-2AFC","605","1420319","0.0-51.11-1.11","2188","","","","28","","","","","","","","sizeS.png","1437","28",""
"html-keyboard-response","606","1421127","0.0-51.11-2.11","null","","","","","","","null","","","","","","","",""
"image-selector-fb","607","1424145","0.0-51.12-0.12","null","pics2/SW4.jpg,pics2/FR4.jpg","","","","","","","false","null","","","noS.png","","",""
"image-slider-2AFC","608","1425819","0.0-51.12-1.12","1670","","","","-23","","","","","","","","heartS.png","1169","-23",""
"html-keyboard-response","609","1426672","0.0-51.12-2.12","null","","","","","","","null","","","","","","","",""
"image-selector-fb","610","1430185","0.0-51.13-0.13","3006","pics2/FR4.jpg,pics2/SW4.jpg","","","","","","","false","0","","","heartS.png","","",""
"image-slider-2AFC","611","1432647","0.0-51.13-1.13","2460","","","","-28","","","","","","","","heartS.png","1968","-28",""
"html-keyboard-response","612","1433452","0.0-51.13-2.13","null","","","","","","","null","","","","","","","",""
"image-selector-fb","613","1435501","0.0-51.14-0.14","1543","pics2/SA4.jpg,pics2/SW2.jpg","","","","","","","true","1","","","sizeS.png","","",""
"image-slider-2AFC","614","1436961","0.0-51.14-1.14","1457","","","","47","","","","","","","","heartS.png","909","47",""
"html-keyboard-response","615","1437668","0.0-51.14-2.14","null","","","","","","","null","","","","","","","",""
"image-selector-fb","616","1439211","0.0-51.15-0.15","1035","pics2/SW1.jpg,pics2/SA6.jpg","","","","","","","false","0","","","heartS.png","","",""
"image-slider-2AFC","617","1441640","0.0-51.15-1.15","2426","","","","-66","","","","","","","","heartS.png","1442","-66",""
"html-keyboard-response","618","1442494","0.0-51.15-2.15","null","","","","","","","null","","","","","","","",""
"image-selector-fb","619","1444817","0.0-51.16-0.16","1816","pics2/SW4.jpg,pics2/FR4.jpg","","","","","","","true","1","","","sizeS.png","","",""
"image-slider-2AFC","620","1446084","0.0-51.16-1.16","1264","","","","68","","","","","","","","sizeS.png","690","68",""
"html-keyboard-response","621","1446789","0.0-51.16-2.16","null","","","","","","","null","","","","","","","",""
"image-selector-fb","622","1448097","0.0-51.17-0.17","803","pics2/SW6.jpg,pics2/FR4.jpg","","","","","","","true","1","","","sizeS.png","","",""
"image-slider-2AFC","623","1450011","0.0-51.17-1.17","1911","","","","59","","","","","","","","heartS.png","1095","59",""
"html-keyboard-response","624","1450869","0.0-51.17-2.17","null","","","","","","","null","","","","","","","",""
"image-selector-fb","625","1453876","0.0-51.18-0.18","null","pics2/SW1.jpg,pics2/SA3.jpg","","","","","","","false","null","","","noS.png","","",""
"image-slider-2AFC","626","1456053","0.0-51.18-1.18","2173","","","","-75","","","","","","","","heartS.png","1390","-75",""
"html-keyboard-response","627","1456759","0.0-51.18-2.18","null","","","","","","","null","","","","","","","",""
"image-selector-fb","628","1460185","0.0-51.19-0.19","2920","pics2/SA2.jpg,pics2/SW3.jpg","","","","","","","true","1","","","heartS.png","","",""
"image-slider-2AFC","629","1461847","0.0-51.19-1.19","1658","","","","60","","","","","","","","sizeS.png","795","60",""
"html-keyboard-response","630","1462706","0.0-51.19-2.19","null","","","","","","","null","","","","","","","",""
"image-selector-fb","631","1464575","0.0-51.20-0.20","1360","pics2/SA4.jpg,pics2/FR5.jpg","","","","","","","true","1","","","sizeS.png","","",""
"image-slider-2AFC","632","1466122","0.0-51.20-1.20","1543","","","","63","","","","","","","","sizeS.png","872","63",""
"html-keyboard-response","633","1466979","0.0-51.20-2.20","null","","","","","","","null","","","","","","","",""
"image-selector-fb","634","1469145","0.0-51.21-0.21","1659","pics2/SA6.jpg,pics2/SA3.jpg","","","","","","","true","1","","","heartS.png","","",""
"image-slider-2AFC","635","1470485","0.0-51.21-1.21","1335","","","","68","","","","","","","","heartS.png","649","68",""
"html-keyboard-response","636","1471344","0.0-51.21-2.21","null","","","","","","","null","","","","","","","",""
"image-selector-fb","637","1474353","0.0-51.22-0.22","null","pics2/SA1.jpg,pics2/SW4.jpg","","","","","","","false","null","","","noS.png","","",""
"image-slider-2AFC","638","1476269","0.0-51.22-1.22","1913","","","","55","","","","","","","","heartS.png","1388","55",""
"html-keyboard-response","639","1477022","0.0-51.22-2.22","null","","","","","","","null","","","","","","","",""
"image-selector-fb","640","1479454","0.0-51.23-0.23","1925","pics2/SW3.jpg,pics2/SA4.jpg","","","","","","","false","0","","","sizeS.png","","",""
"image-slider-2AFC","641","1483169","0.0-51.23-1.23","3712","","","","-47","","","","","","","","sizeS.png","3018","-47",""
"html-keyboard-response","642","1483927","0.0-51.23-2.23","null","","","","","","","null","","","","","","","",""
"image-selector-fb","643","1486939","0.0-51.24-0.24","null","pics2/FR5.jpg,pics2/FR4.jpg","","","","","","","false","null","","","noS.png","","",""
"image-slider-2AFC","644","1489421","0.0-51.24-1.24","2479","","","","39","","","","","","","","heartS.png","1680","39",""
"html-keyboard-response","645","1490278","0.0-51.24-2.24","null","","","","","","","null","","","","","","","",""
"image-selector-fb","646","1493012","0.0-51.25-0.25","2227","pics2/SW6.jpg,pics2/SA4.jpg","","","","","","","false","0","","","sizeS.png","","",""
"image-slider-2AFC","647","1495021","0.0-51.25-1.25","2005","","","","-22","","","","","","","","sizeS.png","1343","-22",""
"html-keyboard-response","648","1495826","0.0-51.25-2.25","null","","","","","","","null","","","","","","","",""
"image-selector-fb","649","1498420","0.0-51.26-0.26","2084","pics2/SA1.jpg,pics2/SA2.jpg","","","","","","","true","1","","","heartS.png","","",""
"image-slider-2AFC","650","1500975","0.0-51.26-1.26","2550","","","","-45","","","","","","","","sizeS.png","1719","-45",""
"html-keyboard-response","651","1501783","0.0-51.26-2.26","null","","","","","","","null","","","","","","","",""
"image-selector-fb","652","1503781","0.0-51.27-0.27","1490","pics2/SA6.jpg,pics2/SA2.jpg","","","","","","","true","1","","","heartS.png","","",""
"image-slider-2AFC","653","1506542","0.0-51.27-1.27","2756","","","","49","","","","","","","","heartS.png","1116","49",""
"html-keyboard-response","654","1507255","0.0-51.27-2.27","null","","","","","","","null","","","","","","","",""
"image-selector-fb","655","1508718","0.0-51.28-0.28","955","pics2/SA3.jpg,pics2/SW2.jpg","","","","","","","true","1","","","sizeS.png","","",""
"image-slider-2AFC","656","1511680","0.0-51.28-1.28","2959","","","","55","","","","","","","","sizeS.png","2022","55",""
"html-keyboard-response","657","1512391","0.0-51.28-2.28","null","","","","","","","null","","","","","","","",""
"image-selector-fb","658","1514098","0.0-51.29-0.29","1200","pics2/SW1.jpg,pics2/FR4.jpg","","","","","","","false","0","","","heartS.png","","",""
"image-slider-2AFC","659","1516608","0.0-51.29-1.29","2507","","","","-60","","","","","","","","heartS.png","1537","-60",""
"html-keyboard-response","660","1517417","0.0-51.29-2.29","null","","","","","","","null","","","","","","","",""
"image-selector-fb","661","1520431","0.0-51.30-0.30","null","pics2/SA6.jpg,pics2/SW4.jpg","","","","","","","false","null","","","noS.png","","",""
"image-slider-2AFC","662","1522877","0.0-51.30-1.30","2442","","","","59","","","","","","","","heartS.png","1650","59",""
"html-keyboard-response","663","1523735","0.0-51.30-2.30","null","","","","","","","null","","","","","","","",""
"image-selector-fb","664","1526748","0.0-51.31-0.31","null","pics2/FR5.jpg,pics2/SA2.jpg","","","","","","","false","null","","","noS.png","","",""
"image-slider-2AFC","665","1529018","0.0-51.31-1.31","2265","","","","-53","","","","","","","","sizeS.png","1522","-53",""
"html-keyboard-response","666","1529879","0.0-51.31-2.31","null","","","","","","","null","","","","","","","",""
"image-selector-fb","667","1534320","0.0-51.32-0.32","3934","pics2/SA4.jpg,pics2/SW3.jpg","","","","","","","true","1","","","heartS.png","","",""
"image-slider-2AFC","668","1536904","0.0-51.32-1.32","2581","","","","8","","","","","","","","heartS.png","2121","8",""
"html-keyboard-response","669","1537761","0.0-51.32-2.32","null","","","","","","","null","","","","","","","",""
"image-selector-fb","670","1540774","0.0-51.33-0.33","null","pics2/SW1.jpg,pics2/FR4.jpg","","","","","","","false","null","","","noS.png","","",""
"image-slider-2AFC","671","1543326","0.0-51.33-1.33","2548","","","","-68","","","","","","","","heartS.png","1831","-68",""
"html-keyboard-response","672","1544080","0.0-51.33-2.33","null","","","","","","","null","","","","","","","",""
"image-selector-fb","673","1545911","0.0-51.34-0.34","1326","pics2/SW3.jpg,pics2/SA6.jpg","","","","","","","false","0","","","sizeS.png","","",""
"image-slider-2AFC","674","1548085","0.0-51.34-1.34","2170","","","","-36","","","","","","","","heartS.png","1596","-36",""
"html-keyboard-response","675","1548939","0.0-51.34-2.34","null","","","","","","","null","","","","","","","",""
"image-selector-fb","676","1551529","0.0-51.35-0.35","2083","pics2/SW4.jpg,pics2/SW1.jpg","","","","","","","true","1","","","sizeS.png","","",""
"image-slider-2AFC","677","1553474","0.0-51.35-1.35","1942","","","","32","","","","","","","","heartS.png","1270","32",""
"html-keyboard-response","678","1554228","0.0-51.35-2.35","null","","","","","","","null","","","","","","","",""
"image-selector-fb","679","1556546","0.0-51.36-0.36","1811","pics2/SW2.jpg,pics2/FR5.jpg","","","","","","","false","0","","","heartS.png","","",""
"image-slider-2AFC","680","1557982","0.0-51.36-1.36","1433","","","","-34","","","","","","","","heartS.png","755","-34",""
"html-keyboard-response","681","1558836","0.0-51.36-2.36","null","","","","","","","null","","","","","","","",""
"image-selector-fb","682","1560415","0.0-51.37-0.37","1073","pics2/SA6.jpg,pics2/FR4.jpg","","","","","","","true","1","","","sizeS.png","","",""
"image-slider-2AFC","683","1562421","0.0-51.37-1.37","2002","","","","28","","","","","","","","sizeS.png","1387","28",""
"html-keyboard-response","684","1563133","0.0-51.37-2.37","null","","","","","","","null","","","","","","","",""
"image-selector-fb","685","1564542","0.0-51.38-0.38","897","pics2/SW1.jpg,pics2/FR5.jpg","","","","","","","false","0","","","heartS.png","","",""
"image-slider-2AFC","686","1566166","0.0-51.38-1.38","1619","","","","-45","","","","","","","","sizeS.png","797","-45",""
"html-keyboard-response","687","1566969","0.0-51.38-2.38","null","","","","","","","null","","","","","","","",""
"image-selector-fb","688","1569070","0.0-51.39-0.39","1594","pics2/SW4.jpg,pics2/SW6.jpg","","","","","","","false","0","","","sizeS.png","","",""
"image-slider-2AFC","689","1571248","0.0-51.39-1.39","2173","","","","-54","","","","","","","","heartS.png","867,1472","-63,-54",""
"html-keyboard-response","690","1572108","0.0-51.39-2.39","null","","","","","","","null","","","","","","","",""
"image-selector-fb","691","1573764","0.0-51.40-0.40","1148","pics2/SW3.jpg,pics2/FR5.jpg","","","","","","","false","0","","","sizeS.png","","",""
"image-slider-2AFC","692","1575887","0.0-51.40-1.40","2119","","","","-46","","","","","","","","sizeS.png","1191","-46",""
"html-keyboard-response","693","1576747","0.0-51.40-2.40","null","","","","","","","null","","","","","","","",""
"image-selector-fb","694","1579759","0.0-51.41-0.41","null","pics2/FR5.jpg,pics2/SA4.jpg","","","","","","","false","null","","","noS.png","","",""
"image-slider-2AFC","695","1582860","0.0-51.41-1.41","3096","","","","-42","","","","","","","","sizeS.png","1770","-42",""
"html-keyboard-response","696","1583618","0.0-51.41-2.41","null","","","","","","","null","","","","","","","",""
"image-selector-fb","697","1586629","0.0-51.42-0.42","null","pics2/FR5.jpg,pics2/SW6.jpg","","","","","","","false","null","","","noS.png","","",""
"image-slider-2AFC","698","1588483","0.0-51.42-1.42","1850","","","","-17","","","","","","","","heartS.png","1447","-17",""
"html-keyboard-response","699","1589186","0.0-51.42-2.42","null","","","","","","","null","","","","","","","",""
"image-selector-fb","700","1591694","0.0-51.43-0.43","2001","pics2/FR5.jpg,pics2/SA4.jpg","","","","","","","false","0","","","heartS.png","","",""
"image-slider-2AFC","701","1594131","0.0-51.43-1.43","2434","","","","-22","","","","","","","","heartS.png","1966","-22",""
"html-keyboard-response","702","1594986","0.0-51.43-2.43","null","","","","","","","null","","","","","","","",""
"image-selector-fb","703","1597994","0.0-51.44-0.44","null","pics2/SA1.jpg,pics2/SA3.jpg","","","","","","","false","null","","","noS.png","","",""
"image-slider-2AFC","704","1600474","0.0-51.44-1.44","2478","","","","55","","","","","","","","sizeS.png","1209","55",""
"html-keyboard-response","705","1601282","0.0-51.44-2.44","null","","","","","","","null","","","","","","","",""
"image-selector-fb","706","1603021","0.0-51.45-0.45","1232","pics2/SW6.jpg,pics2/SA3.jpg","","","","","","","true","1","","","heartS.png","","",""
"image-slider-2AFC","707","1604977","0.0-51.45-1.45","1953","","","","19","","","","","","","","sizeS.png","1466","19",""
"html-keyboard-response","708","1605681","0.0-51.45-2.45","null","","","","","","","null","","","","","","","",""
"image-selector-fb","709","1607102","0.0-51.46-0.46","915","pics2/SW4.jpg,pics2/SW2.jpg","","","","","","","true","1","","","sizeS.png","","",""
