"trial_type","trial_index","time_elapsed","internal_node_id","rt","stimulus","button_pressed","success","response","cat","value","key_press","correct","image_click","first_click_rt","first_click_val","symbol","all_click_rt","all_click_val","view_history"
"pavlovia","0","7","0.0-0.0","","","","","","","","","","","","","","","",""
"html-button-response","1","4252","0.0-1.0","4239","<div style='width: 700px; font-size: 150%'><font size='40'>  Welcome to our study!</font><br><br><br> <small> Our experiment is about <i>decision making</i>. You will choose and rate different food items, such as these: <br><br> <div><img src='food_combo2.png', height = '400px'></img></div>","0","","","","","","","","","","","","",""
"html-button-response","2","15591","0.0-2.0","11337","<div style='width: 700px; font-size: 150%'><br><br><br><small> <u><i>This is a multi-part study.</i></u><br><br> In the first part you will rate 24 food items twice.<br><br><div><img src=""rat1.png"" style=""width: 25%""></img></div><br>In the second part (longest) you will make repeated choices and judgements concerning the food items.<br><br><div><img src=""mainx.png"" style=""width: 50%""></img></div><br>In the third and final part, you will rate the items again and answer few short questionnaires.<br><br><div><img src=""rat2.png"" style=""width: 50%""></img></div><br><br>","0","","","","","","","","","","","","",""
"fullscreen","3","22002","0.0-3.0","","","","true","","","","","","","","","","","",""
"html-button-response","4","63772","0.0-4.0","41769","<div style='width: 900px; font-size: 150%;' <font size='20%'> In the first part of the task you will use the mouse to rate food items on <i>2 scales</i> </font></div><br><br><div style='width: 900px'><div style='float: left; width: 50%; margin-right:2.5em'><img src='heartS.png'></img><p class='small' style='text-align: justify'>When you see the heart cue you will rate food items in terms of how much like them/would like to eat them <i>right now</i>. You will rate them on a continuous scale from left (strong dislike) to right (strong liking). Before submitting your rating, try imagining how the item tastes and how much you desire it.<br><br></p></div><div ><img src='sizeS.png'></img><p class='small' style='text-align: justify'>When you see the size cue, you will rate the same food items in terms of their size. The scale goes from left (tiny) to right (very large). You should assess picture size <i><u>relative</i></u> to the white background. <b>Remember:</b> rate the size of the picture, <u>not</u> the size of the item in real life. </p></div><div style='width: 900px'><br><br><b><i>Notice:</b> by starting the rating you agree that your sumbission might be rejected at an early stage and the experiment might end, if your size ratings are not at least modestly related to objective sizes, or if you repeat the same value ratings too many times. If you don't agree, please exit by closing the browser window. </i><br><br><br>","0","","","","","","","","","","","","",""
"html-button-response","5","71582","0.0-5.0","7806","<div><img src='heartS.png'></img></div><br><div style='text-align: justify; width: 700px'>Using the mouse, rate the <b><i>likeness</b></i> of the food items (how much you like them/would like to eat them <i>right now</i>). Far right-end of the scale indicates an item you <i>like a lot</i>. Far left-end indicates an item you <i>dislike a lot</i>. Think about each answer.   <ul><li>Try <b><i>not</b></i> to give identical rating to different items.</li><li>Use the whole scale, and <b><i>not</b></i> just the extremes</ul></div><br>","0","","","","","","","","","","","","",""
"image-slider-response","6","75372","0.0-6.0-0.0-0.0","3787","pics2/VE6.jpg","","","0","VE","","","","","","","","","",""
"image-slider-response","7","80987","0.0-6.0-0.0-0.1","5412","pics2/SA6.jpg","","","50","SA","","","","","","","","","",""
"image-slider-response","8","85884","0.0-6.0-0.0-0.2","4694","pics2/SW4.jpg","","","54","SW","","","","","","","","","",""
"image-slider-response","9","90003","0.0-6.0-0.0-0.3","3917","pics2/VE2.jpg","","","61","VE","","","","","","","","","",""
"image-slider-response","10","93019","0.0-6.0-0.0-0.4","2812","pics2/VE1.jpg","","","19","VE","","","","","","","","","",""
"image-slider-response","11","97480","0.0-6.0-0.0-0.5","4260","pics2/SA5.jpg","","","46","SA","","","","","","","","","",""
"image-slider-response","12","100757","0.0-6.0-0.0-0.6","3074","pics2/SW5.jpg","","","79","SW","","","","","","","","","",""
"image-slider-response","13","103384","0.0-6.0-0.0-0.7","2425","pics2/FR6.jpg","","","87","FR","","","","","","","","","",""
"image-slider-response","14","105935","0.0-6.0-0.0-0.8","2347","pics2/VE3.jpg","","","62","VE","","","","","","","","","",""
"image-slider-response","15","108441","0.0-6.0-0.0-0.9","2304","pics2/SW3.jpg","","","81","SW","","","","","","","","","",""
"image-slider-response","16","112030","0.0-6.0-0.0-0.10","3387","pics2/SA1.jpg","","","64","SA","","","","","","","","","",""
"image-slider-response","17","115804","0.0-6.0-0.0-0.11","3571","pics2/SW2.jpg","","","54","SW","","","","","","","","","",""
"image-slider-response","18","118210","0.0-6.0-0.0-0.12","2203","pics2/FR4.jpg","","","87","FR","","","","","","","","","",""
"image-slider-response","19","120676","0.0-6.0-0.0-0.13","2265","pics2/SA3.jpg","","","89","SA","","","","","","","","","",""
"image-slider-response","20","123556","0.0-6.0-0.0-0.14","2677","pics2/SA2.jpg","","","40","SA","","","","","","","","","",""
"image-slider-response","21","127427","0.0-6.0-0.0-0.15","3668","pics2/SA4.jpg","","","73","SA","","","","","","","","","",""
"image-slider-response","22","130198","0.0-6.0-0.0-0.16","2569","pics2/FR1.jpg","","","84","FR","","","","","","","","","",""
"image-slider-response","23","132653","0.0-6.0-0.0-0.17","2252","pics2/SW1.jpg","","","96","SW","","","","","","","","","",""
"image-slider-response","24","136266","0.0-6.0-0.0-0.18","3411","pics2/VE4.jpg","","","72","VE","","","","","","","","","",""
"image-slider-response","25","138572","0.0-6.0-0.0-0.19","2103","pics2/FR2.jpg","","","86","FR","","","","","","","","","",""
"image-slider-response","26","145150","0.0-6.0-0.0-0.20","6376","pics2/FR3.jpg","","","84","FR","","","","","","","","","",""
"image-slider-response","27","151824","0.0-6.0-0.0-0.21","6470","pics2/FR5.jpg","","","20","FR","","","","","","","","","",""
"image-slider-response","28","154118","0.0-6.0-0.0-0.22","2091","pics2/SW6.jpg","","","62","SW","","","","","","","","","",""
"image-slider-response","29","158073","0.0-6.0-0.0-0.23","3753","pics2/VE5.jpg","","","46","VE","","","","","","","","","",""
"html-button-response","30","160331","0.0-7.0","2055","<div style='width: 900px;'> <font size = 6><b> End of the first rating</b><br><br>","0","","","","","","","","","","","","",""
"html-button-response","31","171654","0.0-9.0","11322","<div ><img src='sizeS.png'></img></div><br><div style='text-align: justify; width: 700px'> Using the mouse, rate the <b><i>size</b></i> of the food items <b><i> relative to the white background.</b></i> Right-end of the scale indicates a <i>very large item</i>, which covers a large portion of the white rectangle. Left-end indicates a <i>very tiny</i> item which covers a tiny portion of the white rectangle.<br><br><i><u>Remember</i></u>: everything that is not the white background also contributes to item size (e.g. packing, plates, ect.)<br><br> Please keep in mind that if the accuracy of ratings do not allign well with actual sizes, the experiment will end.  As a result it will be consider incomplete and therefore no payment would be made. Good luck!<br><br></div><br>","0","","","","","","","","","","","","",""
"html-button-response","32","176940","0.0-10.0","5284","<div ><img src='sizeS.png'></img></div><br><b><font size=6>Examples of items that you might encounter</b><br><div style='width: 750px;'><div style='width: 33.33%; float:left'><br><br><br><i>Large Item</i><br><br><img src='large.jpg', width=200px></img></div><div style='float:right'><br><br><br><i>Small Item</i><br><br><img src='small.jpg', width=200px></img></div><div ><br><br><br><i>Medium Item</i><br><br><img src='med.jpg', width=200px></img></div></div><br><br>","0","","","","","","","","","","","","",""
"image-slider-response","33","192080","0.0-11.0-0.0-0.0","15139","pics2/SA2.jpg","","","33","null","","","","","","","","","",""
"image-slider-response","34","202883","0.0-11.0-0.0-0.1","10601","pics2/SA3.jpg","","","10","null","","","","","","","","","",""
"image-slider-response","35","211435","0.0-11.0-0.0-0.2","8350","pics2/FR5.jpg","","","63","null","","","","","","","","","",""
"image-slider-response","36","213829","0.0-11.0-0.0-0.3","2191","pics2/VE5.jpg","","","64","null","","","","","","","","","",""
"image-slider-response","37","216030","0.0-11.0-0.0-0.4","1999","pics2/SA4.jpg","","","85","null","","","","","","","","","",""
"image-slider-response","38","219015","0.0-11.0-0.0-0.5","2781","pics2/SA6.jpg","","","73","null","","","","","","","","","",""
"image-slider-response","39","221489","0.0-11.0-0.0-0.6","2272","pics2/SW4.jpg","","","68","null","","","","","","","","","",""
"image-slider-response","40","223919","0.0-11.0-0.0-0.7","2227","pics2/FR1.jpg","","","87","null","","","","","","","","","",""
"image-slider-response","41","227990","0.0-11.0-0.0-0.8","3867","pics2/SW1.jpg","","","71","null","","","","","","","","","",""
"image-slider-response","42","232012","0.0-11.0-0.0-0.9","3820","pics2/VE2.jpg","","","32","null","","","","","","","","","",""
"image-slider-response","43","234302","0.0-11.0-0.0-0.10","2089","pics2/FR4.jpg","","","21","null","","","","","","","","","",""
"image-slider-response","44","238437","0.0-11.0-0.0-0.11","3933","pics2/VE1.jpg","","","53","null","","","","","","","","","",""
"image-slider-response","45","241959","0.0-11.0-0.0-0.12","3319","pics2/FR6.jpg","","","27","null","","","","","","","","","",""
"image-slider-response","46","247822","0.0-11.0-0.0-0.13","5660","pics2/VE6.jpg","","","43","null","","","","","","","","","",""
"image-slider-response","47","251006","0.0-11.0-0.0-0.14","2981","pics2/SA5.jpg","","","25","null","","","","","","","","","",""
"image-slider-response","48","254275","0.0-11.0-0.0-0.15","3066","pics2/VE3.jpg","","","33","null","","","","","","","","","",""
"image-slider-response","49","256557","0.0-11.0-0.0-0.16","2079","pics2/FR3.jpg","","","64","null","","","","","","","","","",""
"image-slider-response","50","259083","0.0-11.0-0.0-0.17","2324","pics2/SW3.jpg","","","75","null","","","","","","","","","",""
"image-slider-response","51","264082","0.0-11.0-0.0-0.18","4795","pics2/SW6.jpg","","","31","null","","","","","","","","","",""
"image-slider-response","52","266388","0.0-11.0-0.0-0.19","2104","pics2/SW5.jpg","","","24","null","","","","","","","","","",""
"image-slider-response","53","268393","0.0-11.0-0.0-0.20","1803","pics2/SW2.jpg","","","27","null","","","","","","","","","",""
"image-slider-response","54","272109","0.0-11.0-0.0-0.21","3513","pics2/SA1.jpg","","","59","null","","","","","","","","","",""
"image-slider-response","55","274663","0.0-11.0-0.0-0.22","2352","pics2/VE4.jpg","","","54","null","","","","","","","","","",""
"image-slider-response","56","276961","0.0-11.0-0.0-0.23","2096","pics2/FR2.jpg","","","66","null","","","","","","","","","",""
"html-button-response","57","278268","0.0-12.0","1105","<div style='width: 900px;'> <font size = 6><b> End of the second rating</b><br><br>","0","","","","","","","","","","","","",""
"html-button-response","58","285696","0.0-13.0","7427","<div style='width: 900px;'>Now please rate the items for the second time. <br><br>This is not a memory test - you don't need to be consistent with your previous ratings. Just as before, try to make accurate judgements.<br><br>","0","","","","","","","","","","","","",""
"html-button-response","59","291724","0.0-14.0","6027","<div><img src='heartS.png'></img></div><br><div style='text-align: justify; width: 700px'>Using the mouse, rate the <b><i>likeness</b></i> of the food items (how much you like them/would like to eat them <i>right now</i>). Far right-end of the scale indicates an item you <i>like a lot</i>. Far left-end indicates an item you <i>dislike a lot</i>. Think about each answer.   <ul><li>Try <b><i>not</b></i> to give identical rating to different items.</li><li>Use the whole scale, and <b><i>not</b></i> just the extremes</ul></div><br>","0","","","","","","","","","","","","",""
"image-slider-response","60","294488","0.0-15.0-0.0-0.0","2761","pics2/SW2.jpg","","","60","SW","","","","","","","","","",""
"image-slider-response","61","297167","0.0-15.0-0.0-0.1","2476","pics2/FR2.jpg","","","79","FR","","","","","","","","","",""
"image-slider-response","62","299898","0.0-15.0-0.0-0.2","2529","pics2/FR4.jpg","","","86","FR","","","","","","","","","",""
"image-slider-response","63","302517","0.0-15.0-0.0-0.3","2417","pics2/FR6.jpg","","","65","FR","","","","","","","","","",""
"image-slider-response","64","304778","0.0-15.0-0.0-0.4","2059","pics2/VE6.jpg","","","0","VE","","","","","","","","","",""
"image-slider-response","65","306683","0.0-15.0-0.0-0.5","1702","pics2/FR1.jpg","","","76","FR","","","","","","","","","",""
"image-slider-response","66","308840","0.0-15.0-0.0-0.6","1955","pics2/SA4.jpg","","","78","SA","","","","","","","","","",""
"image-slider-response","67","310906","0.0-15.0-0.0-0.7","1864","pics2/SW6.jpg","","","58","SW","","","","","","","","","",""
"image-slider-response","68","313152","0.0-15.0-0.0-0.8","2044","pics2/VE5.jpg","","","56","VE","","","","","","","","","",""
"image-slider-response","69","315305","0.0-15.0-0.0-0.9","1951","pics2/SA2.jpg","","","28","SA","","","","","","","","","",""
"image-slider-response","70","317511","0.0-15.0-0.0-0.10","2003","pics2/VE2.jpg","","","41","VE","","","","","","","","","",""
"image-slider-response","71","319383","0.0-15.0-0.0-0.11","1670","pics2/SA6.jpg","","","63","SA","","","","","","","","","",""
"image-slider-response","72","321236","0.0-15.0-0.0-0.12","1650","pics2/FR3.jpg","","","82","FR","","","","","","","","","",""
"image-slider-response","73","323446","0.0-15.0-0.0-0.13","2007","pics2/SW3.jpg","","","82","SW","","","","","","","","","",""
"image-slider-response","74","325707","0.0-15.0-0.0-0.14","2059","pics2/SW5.jpg","","","90","SW","","","","","","","","","",""
"image-slider-response","75","328286","0.0-15.0-0.0-0.15","2377","pics2/VE4.jpg","","","63","VE","","","","","","","","","",""
"image-slider-response","76","330291","0.0-15.0-0.0-0.16","1802","pics2/SA1.jpg","","","62","SA","","","","","","","","","",""
"image-slider-response","77","332661","0.0-15.0-0.0-0.17","2167","pics2/VE1.jpg","","","8","VE","","","","","","","","","",""
"image-slider-response","78","334505","0.0-15.0-0.0-0.18","1642","pics2/SW4.jpg","","","56","SW","","","","","","","","","",""
"image-slider-response","79","336595","0.0-15.0-0.0-0.19","1888","pics2/FR5.jpg","","","5","FR","","","","","","","","","",""
"image-slider-response","80","338800","0.0-15.0-0.0-0.20","2003","pics2/VE3.jpg","","","36","VE","","","","","","","","","",""
"image-slider-response","81","340681","0.0-15.0-0.0-0.21","1679","pics2/SA3.jpg","","","92","SA","","","","","","","","","",""
"image-slider-response","82","342550","0.0-15.0-0.0-0.22","1666","pics2/SA5.jpg","","","41","SA","","","","","","","","","",""
"image-slider-response","83","344479","0.0-15.0-0.0-0.23","1726","pics2/SW1.jpg","","","96","SW","","","","","","","","","",""
"call-function","84","344688","0.0-16.0","","","","","","","","","","","","","","","",""
"call-function","85","344691","0.0-17.0","","","","","","","","","","","","","","","",""
"html-button-response","86","345666","0.0-18.0","975","<div style='width: 900px;'> <font size = 6><b> End of the first rating</b><br><br>","0","","","","","","","","","","","","",""
"html-button-response","87","363077","0.0-19.0","17409","<div ><img src='sizeS.png'></img></div><br><div style='text-align: justify; width: 700px'> Using the mouse, rate the <b><i>size</b></i> of the food items <b><i> relative to the white background.</b></i> Right-end of the scale indicates a <i>very large item</i>, which covers a large portion of the white rectangle. Left-end indicates a <i>very tiny</i> item which covers a tiny portion of the white rectangle.<br><br><i><u>Remember</i></u>: everything that is not the white background also contributes to item size (e.g. packing, plates, ect.)<br><br> Please keep in mind that if the accuracy of ratings do not allign well with actual sizes, the experiment will end.  As a result it will be consider incomplete and therefore no payment would be made. Good luck!<br><br></div><br>","0","","","","","","","","","","","","",""
"image-slider-response","88","368023","0.0-20.0-0.0-0.0","4945","pics2/VE3.jpg","","","44","null","","","","","","","","","",""
"image-slider-response","89","370357","0.0-20.0-0.0-0.1","2132","pics2/SA5.jpg","","","9","null","","","","","","","","","",""
"image-slider-response","90","372610","0.0-20.0-0.0-0.2","2051","pics2/VE2.jpg","","","27","null","","","","","","","","","",""
"image-slider-response","91","374828","0.0-20.0-0.0-0.3","2015","pics2/SW3.jpg","","","95","null","","","","","","","","","",""
"image-slider-response","92","378887","0.0-20.0-0.0-0.4","3857","pics2/VE1.jpg","","","56","null","","","","","","","","","",""
"image-slider-response","93","381734","0.0-20.0-0.0-0.5","2645","pics2/SW2.jpg","","","54","null","","","","","","","","","",""
"image-slider-response","94","383920","0.0-20.0-0.0-0.6","1985","pics2/SW4.jpg","","","61","null","","","","","","","","","",""
"image-slider-response","95","386467","0.0-20.0-0.0-0.7","2344","pics2/FR5.jpg","","","58","null","","","","","","","","","",""
"image-slider-response","96","388728","0.0-20.0-0.0-0.8","2059","pics2/FR4.jpg","","","11","null","","","","","","","","","",""
"image-slider-response","97","390526","0.0-20.0-0.0-0.9","1595","pics2/SA1.jpg","","","94","null","","","","","","","","","",""
"image-slider-response","98","392887","0.0-20.0-0.0-0.10","2159","pics2/VE6.jpg","","","99","null","","","","","","","","","",""
"image-slider-response","99","395181","0.0-20.0-0.0-0.11","2091","pics2/SA6.jpg","","","54","null","","","","","","","","","",""
"image-slider-response","100","397688","0.0-20.0-0.0-0.12","2304","pics2/FR3.jpg","","","38","null","","","","","","","","","",""
"image-slider-response","101","399524","0.0-20.0-0.0-0.13","1634","pics2/SW6.jpg","","","32","null","","","","","","","","","",""
"image-slider-response","102","401966","0.0-20.0-0.0-0.14","2240","pics2/SW5.jpg","","","53","null","","","","","","","","","",""
"image-slider-response","103","403935","0.0-20.0-0.0-0.15","1767","pics2/SA2.jpg","","","67","null","","","","","","","","","",""
"image-slider-response","104","406165","0.0-20.0-0.0-0.16","2027","pics2/VE5.jpg","","","67","null","","","","","","","","","",""
"image-slider-response","105","408150","0.0-20.0-0.0-0.17","1783","pics2/SW1.jpg","","","95","null","","","","","","","","","",""
"image-slider-response","106","410324","0.0-20.0-0.0-0.18","1971","pics2/SA3.jpg","","","24","null","","","","","","","","","",""
"image-slider-response","107","413392","0.0-20.0-0.0-0.19","2866","pics2/FR6.jpg","","","43","null","","","","","","","","","",""
"image-slider-response","108","415429","0.0-20.0-0.0-0.20","1835","pics2/VE4.jpg","","","56","null","","","","","","","","","",""
"image-slider-response","109","417358","0.0-20.0-0.0-0.21","1727","pics2/FR1.jpg","","","76","null","","","","","","","","","",""
"image-slider-response","110","419267","0.0-20.0-0.0-0.22","1708","pics2/SA4.jpg","","","90","null","","","","","","","","","",""
"image-slider-response","111","421076","0.0-20.0-0.0-0.23","1606","pics2/FR2.jpg","","","66","null","","","","","","","","","",""
"call-function","112","421281","0.0-21.0","","","","","","","","","","","","","","","",""
"html-button-response","113","422223","0.0-22.0","942","<div style='width: 900px;'> <font size = 6><b> End of the second rating</b><br><br>","0","","","","","","","","","","","","",""
"pavlovia","114","422233","0.0-23.0","","","","","","","","","","","","","","","",""
"html-keyboard-response","115","427236","0.0-24.0","null","<div style='width: 700px;'> <font size=6><b>SHORT BREAK</font></b><br><br><i> Please wait 5 seconds to continue</i></div> ","","","","","","null","","","","","","","",""
"pavlovia","116","427237","0.0-25.0","","","","","","","","","","","","","","","",""
"html-button-response","117","442534","0.0-26.0","15296","<div style='width: 700px;'>In the main part of the study, you will be choosing between 2 items. When it's time to choose,  this symbol will appear: <br><br><img src='chooseS.png'></img><br><br>Below, a cue will signify the type of choice: </div><br><div style='width: 700px;'><div style='float: left; width: 50%'><img src='heartS.png'></img><p class='small'>Heart cue means you should choose the item you <b><i>prefer</b></i> more.</p></div><div class='float: right; width:50%'><img src='sizeS.png'></img><p class='small'>Size cue means you should choose the <b><i>larger</b></i> item. </p></div></div><br><div style='width: 700px;'>When you click, a green square will appear around the item you chose.<br></div><div><br>","0","","","","","","","","","","","","",""
"image-selector-fb-tut","118","453271","0.0-27.0","9732","0232.jpg,0123.jpg","","","","","","","false","0","","","","","",""
"image-selector-fb-tut","119","456476","0.0-28.0","2202","0232.jpg,0123.jpg","","","","","","","false","0","","","","","",""
"html-button-response","120","462927","0.0-29.0","6451","<div style='width: 900px;'>Your choices should be both <b><i>fast and accurate</b></i>. <br><br>You will have <i>4 seconds</i> to make each choice, which should be enough consider the options and click on one of the items.<br><br>","0","","","","","","","","","","","","",""
"html-button-response","121","471050","0.0-30.0","8122","<div style='width: 900px;'>Additionally, on some choice trials you will see the <b><i>no-choice cue</b></i>: <br><br><img src='noS.png'></img> <br><br>This cue means you can't make any choice. You can examine the items, but  can't click on any of them. Just wait patiently for the cue to dissapear.<br><br>","0","","","","","","","","","","","","",""
"image-selector-fb-tut","122","473055","0.0-31.0","null","0232.jpg,0123.jpg","","","","","","","false","null","","","","","",""
"html-button-response","123","483357","0.0-32.0","10300","<div style='width: 900px;'>After each choice the items will remain on the screen and you will see this symbol: <br><br><img src='judgeS.png'></img> <br><br>This means you should rate<b> the magnitude of the difference</b> between the items using a scale: </div><br><div style='width: 900px; '><div style='float: left; width: 50%; margin-right: 2.5em; align-self:left'><img src='heartS.png'></img><p class='small' style = 'text-align: justify;'>Heart cue means you should rate <b>how much you prefer</b> one of the items over the other. Moving the scale indicator to the left means you prefer the left one; moving it to the right - right one. The more you prefer one of them, the more towards that side you should move the scale indicator. </p></div><div class='float: right; width: 50%; margin-left: 2.5em;'><img src='sizeS.png'></img><p class='small' style='text-align: justify'>Size cue means you should rate <b>how much larger</b> is one of the items over the other. Moving the scale indicator to the left means you think the left is larger; moving it to the right - right one. The greater the difference in size, the more towards that side you should move the scale indicator.</div><br>","0","","","","","","","","","","","","",""
"image-slider-2AFC-tut","124","490040","0.0-33.0","6681","","","","31","","","","","","5942","31","","","",""
"image-slider-2AFC-tut","125","495900","0.0-34.0","5858","","","","27","","","","","","5135","27","","","",""
"html-button-response","126","508537","0.0-35.0","12636","<br><br><font size = 36><b> Examples </b></font><br><br><i> 1) I would like to eat some croissants a <b>lot more</b> than doritos right now:</i><br><img src='ex1.PNG', width='62%'></img><br><br><br><i> 2) I would like to eat some doritos a <b>bit more</b> than croissants right now, but just slightly:</i><br><img src='ex2.PNG' width='62%'></img>","0","","","","","","","","","","","","",""
"html-button-response","127","511926","0.0-36.0","3388","<div style='width: 900px;'><i>Now you know everything you need to do the task!</i> <br><br>Let's start by doing a <b>short training</b>, so you'll get used to how it works. </div><br>","0","","","","","","","","","","","","",""
"image-selector-fb","128","514933","0.0-37.0-0.0","null","pics2/VE1.jpg,pics2/SA2.jpg","","","","","","","false","null","","","noS.png","","",""
"image-slider-2AFC","129","519936","0.0-37.0-1.0","null","","","","null","","","","","","","","sizeS.png","4691","21",""
"html-keyboard-response","130","520640","0.0-37.0-2.0","null","","","","","","","null","","","","","","","",""
"image-selector-fb","131","525145","0.0-37.1-0.1","null","pics2/FR5.jpg,pics2/VE1.jpg","","","","","","","false","null","","","sizeS.png","","",""
"image-slider-2AFC","132","525145","0.0-37.1-1.1","null","","","","null","","","","","","","","sizeS.png","","",""
"html-keyboard-response","133","525849","0.0-37.1-2.1","null","","","","","","","null","","","","","","","",""
"image-selector-fb","134","528853","0.0-37.2-0.2","null","pics2/SA5.jpg,pics2/SW4.jpg","","","","","","","false","null","","","noS.png","","",""
"image-slider-2AFC","135","532117","0.0-37.2-1.2","3261","","","","29","","","","","","","","sizeS.png","2860","29",""
"html-keyboard-response","136","532870","0.0-37.2-2.2","null","","","","","","","null","","","","","","","",""
"image-selector-fb","137","534661","0.0-37.3-0.3","1287","pics2/VE6.jpg,pics2/SW4.jpg","","","","","","","true","1","","","heartS.png","","",""
"image-slider-2AFC","138","539664","0.0-37.3-1.3","null","","","","null","","","","","","","","heartS.png","2877,4481","33,93",""
"html-keyboard-response","139","540517","0.0-37.3-2.3","null","","","","","","","null","","","","","","","",""
"image-selector-fb","140","543031","0.0-37.4-0.4","2011","pics2/VE6.jpg,pics2/VE5.jpg","","","","","","","true","1","","","heartS.png","","",""
"image-slider-2AFC","141","548035","0.0-37.4-1.4","null","","","","null","","","","","","","","sizeS.png","","",""
"html-keyboard-response","142","548738","0.0-37.4-2.4","null","","","","","","","null","","","","","","","",""
"image-selector-fb","143","550491","0.0-37.5-0.5","1250","pics2/SW2.jpg,pics2/VE1.jpg","","","","","","","false","0","","","heartS.png","","",""
"image-slider-2AFC","144","551978","0.0-37.5-1.5","1485","","","","-56","","","","","","","","heartS.png","892","-56",""
"html-keyboard-response","145","552681","0.0-37.5-2.5","null","","","","","","","null","","","","","","","",""
"image-selector-fb","146","554329","0.0-37.6-0.6","1144","pics2/VE6.jpg,pics2/SA5.jpg","","","","","","","true","1","","","heartS.png","","",""
"image-slider-2AFC","147","555360","0.0-37.6-1.6","1029","","","","9","","","","","","","","heartS.png","611","9",""
"html-keyboard-response","148","556062","0.0-37.6-2.6","null","","","","","","","null","","","","","","","",""
"image-selector-fb","149","559067","0.0-37.7-0.7","null","pics2/SW6.jpg,pics2/SW4.jpg","","","","","","","false","null","","","noS.png","","",""
"image-slider-2AFC","150","562541","0.0-37.7-1.7","3473","","","","-23","","","","","","","","sizeS.png","2851","-23",""
"html-keyboard-response","151","563394","0.0-37.7-2.7","null","","","","","","","null","","","","","","","",""
"image-selector-fb","152","566843","0.0-37.8-0.8","2945","pics2/VE2.jpg,pics2/SA6.jpg","","","","","","","true","1","","","sizeS.png","","",""
"image-slider-2AFC","153","568775","0.0-37.8-1.8","1931","","","","19","","","","","","","","sizeS.png","1506","19",""
"html-keyboard-response","154","569628","0.0-37.8-2.8","null","","","","","","","null","","","","","","","",""
"image-selector-fb","155","572251","0.0-37.9-0.9","2121","pics2/VE2.jpg,pics2/SW2.jpg","","","","","","","true","1","","","sizeS.png","","",""
"image-slider-2AFC","156","573851","0.0-37.9-1.9","1598","","","","14","","","","","","","","heartS.png","1124","14",""
"html-keyboard-response","157","574704","0.0-37.9-2.9","null","","","","","","","null","","","","","","","",""
"image-selector-fb","158","576882","0.0-37.10-0.10","1674","pics2/SA6.jpg,pics2/VE1.jpg","","","","","","","false","0","","","heartS.png","","",""
"image-slider-2AFC","159","578393","0.0-37.10-1.10","1509","","","","-48","","","","","","","","heartS.png","900","-48",""
"html-keyboard-response","160","579196","0.0-37.10-2.10","null","","","","","","","null","","","","","","","",""
"image-selector-fb","161","582202","0.0-37.11-0.11","null","pics2/VE3.jpg,pics2/SA2.jpg","","","","","","","false","null","","","noS.png","","",""
"image-slider-2AFC","162","587204","0.0-37.11-1.11","null","","","","null","","","","","","","","heartS.png","","",""
"html-keyboard-response","163","587957","0.0-37.11-2.11","null","","","","","","","null","","","","","","","",""
"html-button-response","164","591414","0.0-38.0","3456","<i><font size=10>Good job!</font></i> <br><br>Before we begin, you have a chance to review the rules, in case something was not clear.<br><br>","0","","","","","","","","","","","","",""
"instructions","165","601939","0.0-39.0","10524","","","","","","","","","","","","","","","[{""page_index"":0,""viewing_time"":4656},{""page_index"":1,""viewing_time"":1901},{""page_index"":2,""viewing_time"":3966}]"
"html-button-response","166","612531","0.0-40.0","10592","<div style='width: 900px;'> <font size='40'>Great! Now you're ready to begin</font><br><br>The main part of the experiment will consist of <u>3 blocks</u>. Each block consists of 66 decisions and judgements. You will have time for a short break between blocks.<br><br><br><i><u>Do your best to respond within the time limit.</u></i><br><br><i> Press the button to start the experiment<br><br></i>","0","","","","","","","","","","","","",""
"image-selector-fb","167","614470","0.0-41.0-0.0","1435","pics2/FR6.jpg,pics2/SW5.jpg","","","","","","","true","1","","","heartS.png","","",""
"image-slider-2AFC","168","616061","0.0-41.0-1.0","1590","","","","19","","","","","","","","heartS.png","1085","19",""
"html-keyboard-response","169","616864","0.0-41.0-2.0","null","","","","","","","null","","","","","","","",""
"image-selector-fb","170","618660","0.0-41.1-0.1","1292","pics2/FR6.jpg,pics2/SA3.jpg","","","","","","","true","1","","","heartS.png","","",""
"image-slider-2AFC","171","619602","0.0-41.1-1.1","939","","","","21","","","","","","","","heartS.png","514","21",""
"html-keyboard-response","172","620455","0.0-41.1-2.1","null","","","","","","","null","","","","","","","",""
"image-selector-fb","173","623460","0.0-41.2-0.2","null","pics2/SA3.jpg,pics2/VE4.jpg","","","","","","","false","null","","","noS.png","","",""
"image-slider-2AFC","174","628463","0.0-41.2-1.2","null","","","","null","","","","","","","","sizeS.png","","",""
"html-keyboard-response","175","629316","0.0-41.2-2.2","null","","","","","","","null","","","","","","","",""
"image-selector-fb","176","631075","0.0-41.3-0.3","1256","pics2/FR4.jpg,pics2/FR1.jpg","","","","","","","false","0","","","heartS.png","","",""
"image-slider-2AFC","177","632538","0.0-41.3-1.3","1462","","","","-41","","","","","","","","heartS.png","1045","-41",""
"html-keyboard-response","178","633241","0.0-41.3-2.3","null","","","","","","","null","","","","","","","",""
"image-selector-fb","179","634937","0.0-41.4-0.4","1193","pics2/FR6.jpg,pics2/FR2.jpg","","","","","","","true","1","","","heartS.png","","",""
"image-slider-2AFC","180","636770","0.0-41.4-1.4","1831","","","","33","","","","","","","","heartS.png","571","33",""
"html-keyboard-response","181","637523","0.0-41.4-2.4","null","","","","","","","null","","","","","","","",""
"image-selector-fb","182","641184","0.0-41.5-0.5","3158","pics2/SW3.jpg,pics2/SA1.jpg","","","","","","","true","1","","","sizeS.png","","",""
"image-slider-2AFC","183","642756","0.0-41.5-1.5","1570","","","","6","","","","","","","","sizeS.png","1185","6",""
"html-keyboard-response","184","643509","0.0-41.5-2.5","null","","","","","","","null","","","","","","","",""
"image-selector-fb","185","645415","0.0-41.6-0.6","1403","pics2/SW5.jpg,pics2/SW1.jpg","","","","","","","true","1","","","heartS.png","","",""
"image-slider-2AFC","186","647933","0.0-41.6-1.6","2516","","","","38","","","","","","","","heartS.png","1364","38",""
"html-keyboard-response","187","648686","0.0-41.6-2.6","null","","","","","","","null","","","","","","","",""
"image-selector-fb","188","650733","0.0-41.7-0.7","1543","pics2/FR1.jpg,pics2/SA4.jpg","","","","","","","true","1","","","sizeS.png","","",""
"image-slider-2AFC","189","651948","0.0-41.7-1.7","1212","","","","42","","","","","","","","heartS.png","618","42",""
"html-keyboard-response","190","652650","0.0-41.7-2.7","null","","","","","","","null","","","","","","","",""
"image-selector-fb","191","655654","0.0-41.8-0.8","null","pics2/VE4.jpg,pics2/SW1.jpg","","","","","","","false","null","","","noS.png","","",""
"image-slider-2AFC","192","660657","0.0-41.8-1.8","null","","","","null","","","","","","","","heartS.png","","",""
"html-keyboard-response","193","661409","0.0-41.8-2.8","null","","","","","","","null","","","","","","","",""
"image-selector-fb","194","664584","0.0-41.9-0.9","2671","pics2/FR3.jpg,pics2/SA3.jpg","","","","","","","false","0","","","sizeS.png","","",""
"image-slider-2AFC","195","666605","0.0-41.9-1.9","2018","","","","-8","","","","","","","","sizeS.png","1589","-8",""
"html-keyboard-response","196","667308","0.0-41.9-2.9","null","","","","","","","null","","","","","","","",""
"image-selector-fb","197","670313","0.0-41.10-0.10","null","pics2/SA3.jpg,pics2/SA4.jpg","","","","","","","false","null","","","noS.png","","",""
"image-slider-2AFC","198","672968","0.0-41.10-1.10","2654","","","","41","","","","","","","","heartS.png","2237","41",""
"html-keyboard-response","199","673671","0.0-41.10-2.10","null","","","","","","","null","","","","","","","",""
"image-selector-fb","200","676675","0.0-41.11-0.11","null","pics2/SW3.jpg,pics2/VE4.jpg","","","","","","","false","null","","","noS.png","","",""
"image-slider-2AFC","201","681678","0.0-41.11-1.11","null","","","","null","","","","","","","","sizeS.png","","",""
"html-keyboard-response","202","682430","0.0-41.11-2.11","null","","","","","","","null","","","","","","","",""
"image-selector-fb","203","685435","0.0-41.12-0.12","null","pics2/FR6.jpg,pics2/FR3.jpg","","","","","","","false","null","","","noS.png","","",""
"image-slider-2AFC","204","689541","0.0-41.12-1.12","4104","","","","44","","","","","","","","heartS.png","3671","44",""
"html-keyboard-response","205","690394","0.0-41.12-2.12","null","","","","","","","null","","","","","","","",""
"image-selector-fb","206","692763","0.0-41.13-0.13","1866","pics2/SW5.jpg,pics2/SA1.jpg","","","","","","","true","1","","","sizeS.png","","",""
"image-slider-2AFC","207","697765","0.0-41.13-1.13","null","","","","null","","","","","","","","heartS.png","","",""
"html-keyboard-response","208","698618","0.0-41.13-2.13","null","","","","","","","null","","","","","","","",""
"image-selector-fb","209","701623","0.0-41.14-0.14","null","pics2/SA3.jpg,pics2/FR4.jpg","","","","","","","false","null","","","noS.png","","",""
"image-slider-2AFC","210","705489","0.0-41.14-1.14","3865","","","","36","","","","","","","","heartS.png","3468","36",""
"html-keyboard-response","211","706192","0.0-41.14-2.14","null","","","","","","","null","","","","","","","",""
"image-selector-fb","212","708896","0.0-41.15-0.15","2200","pics2/SW5.jpg,pics2/VE4.jpg","","","","","","","false","0","","","heartS.png","","",""
"image-slider-2AFC","213","710927","0.0-41.15-1.15","2029","","","","-16","","","","","","","","sizeS.png","1651","-16",""
"html-keyboard-response","214","711780","0.0-41.15-2.15","null","","","","","","","null","","","","","","","",""
"image-selector-fb","215","713983","0.0-41.16-0.16","1699","pics2/SW1.jpg,pics2/SA3.jpg","","","","","","","false","0","","","sizeS.png","","",""
"image-slider-2AFC","216","716649","0.0-41.16-1.16","2664","","","","-29","","","","","","","","heartS.png","1798","-29",""
"html-keyboard-response","217","717502","0.0-41.16-2.16","null","","","","","","","null","","","","","","","",""
"image-selector-fb","218","719385","0.0-41.17-0.17","1379","pics2/FR1.jpg,pics2/FR6.jpg","","","","","","","false","0","","","sizeS.png","","",""
"image-slider-2AFC","219","721506","0.0-41.17-1.17","2120","","","","-16","","","","","","","","heartS.png","1767","-16",""
"html-keyboard-response","220","722259","0.0-41.17-2.17","null","","","","","","","null","","","","","","","",""
"image-selector-fb","221","725271","0.0-41.18-0.18","null","pics2/FR6.jpg,pics2/SW3.jpg","","","","","","","false","null","","","noS.png","","",""
"image-slider-2AFC","222","730273","0.0-41.18-1.18","null","","","","null","","","","","","","","heartS.png","4979","50",""
"html-keyboard-response","223","731026","0.0-41.18-2.18","null","","","","","","","null","","","","","","","",""
"image-selector-fb","224","733775","0.0-41.19-0.19","2245","pics2/FR3.jpg,pics2/SA4.jpg","","","","","","","true","1","","","sizeS.png","","",""
"image-slider-2AFC","225","735499","0.0-41.19-1.19","1721","","","","-15","","","","","","","","heartS.png","1236","-15",""
"html-keyboard-response","226","736202","0.0-41.19-2.19","null","","","","","","","null","","","","","","","",""
"image-selector-fb","227","739207","0.0-41.20-0.20","null","pics2/SW5.jpg,pics2/SW3.jpg","","","","","","","false","null","","","noS.png","","",""
"image-slider-2AFC","228","744213","0.0-41.20-1.20","null","","","","null","","","","","","","","sizeS.png","","",""
"html-keyboard-response","229","744965","0.0-41.20-2.20","null","","","","","","","null","","","","","","","",""
"image-selector-fb","230","748304","0.0-41.21-0.21","2834","pics2/SA3.jpg,pics2/FR1.jpg","","","","","","","true","1","","","heartS.png","","",""
"image-slider-2AFC","231","749547","0.0-41.21-1.21","1240","","","","23","","","","","","","","sizeS.png","740","23",""
"html-keyboard-response","232","750250","0.0-41.21-2.21","null","","","","","","","null","","","","","","","",""
"image-selector-fb","233","753255","0.0-41.22-0.22","null","pics2/FR3.jpg,pics2/VE4.jpg","","","","","","","false","null","","","noS.png","","",""
"image-slider-2AFC","234","757446","0.0-41.22-1.22","4190","","","","-28","","","","","","","","heartS.png","3764","-28",""
"html-keyboard-response","235","758199","0.0-41.22-2.22","null","","","","","","","null","","","","","","","",""
"image-selector-fb","236","760272","0.0-41.23-0.23","1570","pics2/SA4.jpg,pics2/FR4.jpg","","","","","","","false","0","","","heartS.png","","",""
"image-slider-2AFC","237","761454","0.0-41.23-1.23","1179","","","","-44","","","","","","","","heartS.png","763","-44",""
"html-keyboard-response","238","762257","0.0-41.23-2.23","null","","","","","","","null","","","","","","","",""
"image-selector-fb","239","765262","0.0-41.24-0.24","null","pics2/FR1.jpg,pics2/FR4.jpg","","","","","","","false","null","","","noS.png","","",""
"image-slider-2AFC","240","768009","0.0-41.24-1.24","2746","","","","51","","","","","","","","heartS.png","1968","51",""
"html-keyboard-response","241","768812","0.0-41.24-2.24","null","","","","","","","null","","","","","","","",""
"image-selector-fb","242","771817","0.0-41.25-0.25","null","pics2/SW5.jpg,pics2/FR3.jpg","","","","","","","false","null","","","noS.png","","",""
"image-slider-2AFC","243","776820","0.0-41.25-1.25","null","","","","null","","","","","","","","sizeS.png","","",""
"html-keyboard-response","244","777672","0.0-41.25-2.25","null","","","","","","","null","","","","","","","",""
"image-selector-fb","245","780805","0.0-41.26-0.26","2629","pics2/SA3.jpg,pics2/FR6.jpg","","","","","","","false","0","","","sizeS.png","","",""
"image-slider-2AFC","246","782739","0.0-41.26-1.26","1932","","","","-6","","","","","","","","heartS.png","1539","-6",""
"html-keyboard-response","247","783492","0.0-41.26-2.26","null","","","","","","","null","","","","","","","",""
"image-selector-fb","248","786497","0.0-41.27-0.27","null","pics2/SW5.jpg,pics2/SA3.jpg","","","","","","","false","null","","","noS.png","","",""
"image-slider-2AFC","249","788869","0.0-41.27-1.27","2371","","","","-30","","","","","","","","sizeS.png","1962","-30",""
"html-keyboard-response","250","789622","0.0-41.27-2.27","null","","","","","","","null","","","","","","","",""
"image-selector-fb","251","792627","0.0-41.28-0.28","null","pics2/SA1.jpg,pics2/VE4.jpg","","","","","","","false","null","","","noS.png","","",""
"image-slider-2AFC","252","796247","0.0-41.28-1.28","3618","","","","-43","","","","","","","","sizeS.png","2558","-43",""
"html-keyboard-response","253","797050","0.0-41.28-2.28","null","","","","","","","null","","","","","","","",""
"image-selector-fb","254","799133","0.0-41.29-0.29","1579","pics2/SW5.jpg,pics2/SA3.jpg","","","","","","","false","0","","","heartS.png","","",""
"image-slider-2AFC","255","800168","0.0-41.29-1.29","1032","","","","-16","","","","","","","","heartS.png","596","-16",""
"html-keyboard-response","256","800871","0.0-41.29-2.29","null","","","","","","","null","","","","","","","",""
"image-selector-fb","257","802699","0.0-41.30-0.30","1325","pics2/FR3.jpg,pics2/SW3.jpg","","","","","","","true","1","","","heartS.png","","",""
"image-slider-2AFC","258","803706","0.0-41.30-1.30","1005","","","","8","","","","","","","","heartS.png","627","8",""
"html-keyboard-response","259","804559","0.0-41.30-2.30","null","","","","","","","null","","","","","","","",""
"image-selector-fb","260","807565","0.0-41.31-0.31","null","pics2/FR1.jpg,pics2/SW1.jpg","","","","","","","false","null","","","noS.png","","",""
"image-slider-2AFC","261","809430","0.0-41.31-1.31","1864","","","","48","","","","","","","","sizeS.png","1415","48",""
"html-keyboard-response","262","810183","0.0-41.31-2.31","null","","","","","","","null","","","","","","","",""
"image-selector-fb","263","812142","0.0-41.32-0.32","1456","pics2/FR3.jpg,pics2/FR4.jpg","","","","","","","true","1","","","heartS.png","","",""
"image-slider-2AFC","264","813734","0.0-41.32-1.32","1590","","","","16","","","","","","","","heartS.png","1150","16",""
"html-keyboard-response","265","814587","0.0-41.32-2.32","null","","","","","","","null","","","","","","","",""
"image-selector-fb","266","817365","0.0-41.33-0.33","2275","pics2/SW3.jpg,pics2/FR2.jpg","","","","","","","false","0","","","sizeS.png","","",""
"image-slider-2AFC","267","822372","0.0-41.33-1.33","null","","","","null","","","","","","","","sizeS.png","","",""
"html-keyboard-response","268","823175","0.0-41.33-2.33","null","","","","","","","null","","","","","","","",""
"image-selector-fb","269","826181","0.0-41.34-0.34","null","pics2/FR2.jpg,pics2/SW1.jpg","","","","","","","false","null","","","noS.png","","",""
"image-slider-2AFC","270","828474","0.0-41.34-1.34","2292","","","","75","","","","","","","","sizeS.png","1788","75",""
"html-keyboard-response","271","829177","0.0-41.34-2.34","null","","","","","","","null","","","","","","","",""
"image-selector-fb","272","832182","0.0-41.35-0.35","null","pics2/SA3.jpg,pics2/FR3.jpg","","","","","","","false","null","","","noS.png","","",""
"image-slider-2AFC","273","837185","0.0-41.35-1.35","null","","","","null","","","","","","","","sizeS.png","","",""
"html-keyboard-response","274","838038","0.0-41.35-2.35","null","","","","","","","null","","","","","","","",""
"image-selector-fb","275","840137","0.0-41.36-0.36","1596","pics2/SA1.jpg,pics2/FR6.jpg","","","","","","","true","1","","","heartS.png","","",""
"image-slider-2AFC","276","841215","0.0-41.36-1.36","1076","","","","14","","","","","","","","sizeS.png","612","14",""
"html-keyboard-response","277","842068","0.0-41.36-2.36","null","","","","","","","null","","","","","","","",""
"image-selector-fb","278","844246","0.0-41.37-0.37","1673","pics2/SA1.jpg,pics2/SW5.jpg","","","","","","","true","1","","","heartS.png","","",""
"image-slider-2AFC","279","845813","0.0-41.37-1.37","1564","","","","43","","","","","","","","heartS.png","657","43",""
"html-keyboard-response","280","846516","0.0-41.37-2.37","null","","","","","","","null","","","","","","","",""
"image-selector-fb","281","848372","0.0-41.38-0.38","1353","pics2/FR2.jpg,pics2/FR6.jpg","","","","","","","false","0","","","sizeS.png","","",""
"image-slider-2AFC","282","853378","0.0-41.38-1.38","null","","","","null","","","","","","","","heartS.png","","",""
"html-keyboard-response","283","854082","0.0-41.38-2.38","null","","","","","","","null","","","","","","","",""
"image-selector-fb","284","856516","0.0-41.39-0.39","1929","pics2/SA1.jpg,pics2/FR4.jpg","","","","","","","true","1","","","heartS.png","","",""
"image-slider-2AFC","285","858116","0.0-41.39-1.39","1598","","","","33","","","","","","","","sizeS.png","922","33",""
"html-keyboard-response","286","858969","0.0-41.39-2.39","null","","","","","","","null","","","","","","","",""
"image-selector-fb","287","860423","0.0-41.40-0.40","951","pics2/SW1.jpg,pics2/FR2.jpg","","","","","","","false","0","","","sizeS.png","","",""
"image-slider-2AFC","288","861798","0.0-41.40-1.40","1372","","","","-62","","","","","","","","heartS.png","610","-62",""
"html-keyboard-response","289","862601","0.0-41.40-2.40","null","","","","","","","null","","","","","","","",""
"image-selector-fb","290","865605","0.0-41.41-0.41","null","pics2/FR6.jpg,pics2/FR2.jpg","","","","","","","false","null","","","noS.png","","",""
"image-slider-2AFC","291","867960","0.0-41.41-1.41","2352","","","","55","","","","","","","","sizeS.png","1590","55",""
"html-keyboard-response","292","868663","0.0-41.41-2.41","null","","","","","","","null","","","","","","","",""
"image-selector-fb","293","871668","0.0-41.42-0.42","null","pics2/SA4.jpg,pics2/VE4.jpg","","","","","","","false","null","","","noS.png","","",""
"image-slider-2AFC","294","873989","0.0-41.42-1.42","2320","","","","-48","","","","","","","","heartS.png","1750","-48",""
"html-keyboard-response","295","874692","0.0-41.42-2.42","null","","","","","","","null","","","","","","","",""
"image-selector-fb","296","876468","0.0-41.43-0.43","1272","pics2/SA1.jpg,pics2/SA4.jpg","","","","","","","true","1","","","heartS.png","","",""
"image-slider-2AFC","297","878148","0.0-41.43-1.43","1679","","","","54","","","","","","","","sizeS.png","1093","54",""
"html-keyboard-response","298","878850","0.0-41.43-2.43","null","","","","","","","null","","","","","","","",""
"image-selector-fb","299","880820","0.0-41.44-0.44","1466","pics2/FR3.jpg,pics2/SW5.jpg","","","","","","","true","1","","","sizeS.png","","",""
"image-slider-2AFC","300","882709","0.0-41.44-1.44","1887","","","","56","","","","","","","","sizeS.png","1125","56",""
"html-keyboard-response","301","883511","0.0-41.44-2.44","null","","","","","","","null","","","","","","","",""
"image-selector-fb","302","886516","0.0-41.45-0.45","null","pics2/FR6.jpg,pics2/SA1.jpg","","","","","","","false","null","","","noS.png","","",""
"image-slider-2AFC","303","888735","0.0-41.45-1.45","2217","","","","74","","","","","","","","sizeS.png","1545","74",""
"html-keyboard-response","304","889439","0.0-41.45-2.45","null","","","","","","","null","","","","","","","",""
"image-selector-fb","305","893944","0.0-41.46-0.46","null","pics2/SA4.jpg,pics2/FR2.jpg","","","","","","","false","null","","","sizeS.png","","",""
"image-slider-2AFC","306","893944","0.0-41.46-1.46","null","","","","null","","","","","","","","sizeS.png","","",""
"html-keyboard-response","307","894647","0.0-41.46-2.46","null","","","","","","","null","","","","","","","",""
"image-selector-fb","308","896690","0.0-41.47-0.47","1538","pics2/SA1.jpg,pics2/SW1.jpg","","","","","","","true","1","","","heartS.png","","",""
"image-slider-2AFC","309","897754","0.0-41.47-1.47","1062","","","","47","","","","","","","","heartS.png","538","47",""
"html-keyboard-response","310","898509","0.0-41.47-2.47","null","","","","","","","null","","","","","","","",""
"image-selector-fb","311","901515","0.0-41.48-0.48","null","pics2/FR2.jpg,pics2/FR1.jpg","","","","","","","false","null","","","noS.png","","",""
"image-slider-2AFC","312","903825","0.0-41.48-1.48","2309","","","","56","","","","","","","","sizeS.png","1767","56",""
"html-keyboard-response","313","904678","0.0-41.48-2.48","null","","","","","","","null","","","","","","","",""
"image-selector-fb","314","906349","0.0-41.49-0.49","1165","pics2/SW1.jpg,pics2/FR6.jpg","","","","","","","false","0","","","sizeS.png","","",""
"image-slider-2AFC","315","907700","0.0-41.49-1.49","1349","","","","-55","","","","","","","","sizeS.png","547","-55",""
"html-keyboard-response","316","908553","0.0-41.49-2.49","null","","","","","","","null","","","","","","","",""
"image-selector-fb","317","910500","0.0-41.50-0.50","1443","pics2/FR2.jpg,pics2/SW1.jpg","","","","","","","true","1","","","heartS.png","","",""
"image-slider-2AFC","318","911508","0.0-41.50-1.50","1005","","","","28","","","","","","","","sizeS.png","492","28",""
"html-keyboard-response","319","912211","0.0-41.50-2.50","null","","","","","","","null","","","","","","","",""
"image-selector-fb","320","913781","0.0-41.51-0.51","1063","pics2/FR4.jpg,pics2/FR2.jpg","","","","","","","false","0","","","sizeS.png","","",""
"image-slider-2AFC","321","916483","0.0-41.51-1.51","2701","","","","54","","","","","","","","heartS.png","1803","54",""
"html-keyboard-response","322","917286","0.0-41.51-2.51","null","","","","","","","null","","","","","","","",""
"image-selector-fb","323","920291","0.0-41.52-0.52","null","pics2/SW5.jpg,pics2/SA1.jpg","","","","","","","false","null","","","noS.png","","",""
"image-slider-2AFC","324","922932","0.0-41.52-1.52","2639","","","","-42","","","","","","","","heartS.png","2087","-42",""
"html-keyboard-response","325","923784","0.0-41.52-2.52","null","","","","","","","null","","","","","","","",""
"image-selector-fb","326","926484","0.0-41.53-0.53","2196","pics2/FR1.jpg,pics2/FR3.jpg","","","","","","","false","0","","","sizeS.png","","",""
"image-slider-2AFC","327","928683","0.0-41.53-1.53","2198","","","","24","","","","","","","","heartS.png","1411","24",""
"html-keyboard-response","328","929386","0.0-41.53-2.53","null","","","","","","","null","","","","","","","",""
"image-selector-fb","329","931683","0.0-41.54-0.54","1792","pics2/SA3.jpg,pics2/VE4.jpg","","","","","","","true","1","","","sizeS.png","","",""
"image-slider-2AFC","330","933586","0.0-41.54-1.54","1902","","","","-39","","","","","","","","heartS.png","1357","-39",""
"html-keyboard-response","331","934289","0.0-41.54-2.54","null","","","","","","","null","","","","","","","",""
"image-selector-fb","332","937294","0.0-41.55-0.55","null","pics2/FR3.jpg,pics2/FR4.jpg","","","","","","","false","null","","","noS.png","","",""
"image-slider-2AFC","333","940388","0.0-41.55-1.55","3093","","","","-63","","","","","","","","sizeS.png","2447","-63",""
"html-keyboard-response","334","941142","0.0-41.55-2.55","null","","","","","","","null","","","","","","","",""
"image-selector-fb","335","942991","0.0-41.56-0.56","1344","pics2/SA3.jpg,pics2/SW1.jpg","","","","","","","true","1","","","heartS.png","","",""
"image-slider-2AFC","336","944915","0.0-41.56-1.56","1922","","","","58","","","","","","","","sizeS.png","1388","58",""
"html-keyboard-response","337","945668","0.0-41.56-2.56","null","","","","","","","null","","","","","","","",""
"image-selector-fb","338","947535","0.0-41.57-0.57","1362","pics2/SW3.jpg,pics2/SA4.jpg","","","","","","","false","0","","","sizeS.png","","",""
"image-slider-2AFC","339","949347","0.0-41.57-1.57","1811","","","","35","","","","","","","","heartS.png","1294","35",""
"html-keyboard-response","340","950200","0.0-41.57-2.57","null","","","","","","","null","","","","","","","",""
"image-selector-fb","341","952195","0.0-41.58-0.58","1490","pics2/FR3.jpg,pics2/SA1.jpg","","","","","","","true","1","","","sizeS.png","","",""
"image-slider-2AFC","342","954120","0.0-41.58-1.58","1922","","","","66","","","","","","","","sizeS.png","1396","66",""
"html-keyboard-response","343","954823","0.0-41.58-2.58","null","","","","","","","null","","","","","","","",""
"image-selector-fb","344","957828","0.0-41.59-0.59","null","pics2/FR4.jpg,pics2/SW1.jpg","","","","","","","false","null","","","noS.png","","",""
"image-slider-2AFC","345","960207","0.0-41.59-1.59","2377","","","","49","","","","","","","","heartS.png","1727","49",""
"html-keyboard-response","346","961010","0.0-41.59-2.59","null","","","","","","","null","","","","","","","",""
"image-selector-fb","347","962535","0.0-41.60-0.60","1021","pics2/SA4.jpg,pics2/FR6.jpg","","","","","","","false","0","","","sizeS.png","","",""
"image-slider-2AFC","348","964705","0.0-41.60-1.60","2167","","","","-22","","","","","","","","heartS.png","1284","-22",""
"html-keyboard-response","349","965458","0.0-41.60-2.60","null","","","","","","","null","","","","","","","",""
"image-selector-fb","350","967924","0.0-41.61-0.61","1960","pics2/FR4.jpg,pics2/FR6.jpg","","","","","","","true","1","","","sizeS.png","","",""
"image-slider-2AFC","351","970170","0.0-41.61-1.61","2243","","","","27","","","","","","","","sizeS.png","1786","27",""
"html-keyboard-response","352","970923","0.0-41.61-2.61","null","","","","","","","null","","","","","","","",""
"image-selector-fb","353","972693","0.0-41.62-0.62","1267","pics2/VE4.jpg,pics2/SA3.jpg","","","","","","","true","1","","","heartS.png","","",""
"image-slider-2AFC","354","974020","0.0-41.62-1.62","1325","","","","66","","","","","","","","heartS.png","522","66",""
"html-keyboard-response","355","974823","0.0-41.62-2.62","null","","","","","","","null","","","","","","","",""
"image-selector-fb","356","976605","0.0-41.63-0.63","1278","pics2/FR4.jpg,pics2/SW1.jpg","","","","","","","true","1","","","sizeS.png","","",""
"image-slider-2AFC","357","978737","0.0-41.63-1.63","2129","","","","19","","","","","","","","heartS.png","1700","19",""
"html-keyboard-response","358","979590","0.0-41.63-2.63","null","","","","","","","null","","","","","","","",""
"image-selector-fb","359","981806","0.0-41.64-0.64","1711","pics2/SA4.jpg,pics2/SW5.jpg","","","","","","","true","1","","","heartS.png","","",""
"image-slider-2AFC","360","983136","0.0-41.64-1.64","1329","","","","9","","","","","","","","sizeS.png","932","9",""
"html-keyboard-response","361","983939","0.0-41.64-2.64","null","","","","","","","null","","","","","","","",""
"image-selector-fb","362","986320","0.0-41.65-0.65","1877","pics2/SW3.jpg,pics2/VE4.jpg","","","","","","","false","0","","","sizeS.png","","",""
"image-slider-2AFC","363","987923","0.0-41.65-1.65","1602","","","","-8","","","","","","","","heartS.png","1182","-8",""
"html-keyboard-response","364","988677","0.0-41.65-2.65","null","","","","","","","null","","","","","","","",""
"pavlovia","365","988690","0.0-42.0","","","","","","","","","","","","","","","",""
"html-keyboard-response","366","993692","0.0-43.0","null","<div style='width: 700px;'> <font size=6><b>SHORT BREAK</font></b><br><br><i> Please wait 5 seconds to continue</i></div> ","","","","","","null","","","","","","","",""
"pavlovia","367","993693","0.0-44.0","","","","","","","","","","","","","","","",""
"html-button-response","368","1038101","0.0-45.0","44408","<div style='width: 700px;'> <font size=6><b>BLOCK 2</font></b><br><br>Press the button whenever you feel ready to start the second block (there are 3 in total)</div>","0","","","","","","","","","","","","",""
"image-selector-fb","369","1041109","0.0-46.0-0.0","null","pics2/VE4.jpg,pics2/FR4.jpg","","","","","","","false","null","","","noS.png","","",""
"image-slider-2AFC","370","1044105","0.0-46.0-1.0","2994","","","","-56","","","","","","","","sizeS.png","2009","-56",""
"html-keyboard-response","371","1044858","0.0-46.0-2.0","null","","","","","","","null","","","","","","","",""
"image-selector-fb","372","1046528","0.0-46.1-0.1","1166","pics2/SW3.jpg,pics2/FR3.jpg","","","","","","","false","0","","","sizeS.png","","",""
"image-slider-2AFC","373","1048329","0.0-46.1-1.1","1799","","","","-16","","","","","","","","heartS.png","1421","-16",""
"html-keyboard-response","374","1049082","0.0-46.1-2.1","null","","","","","","","null","","","","","","","",""
"image-selector-fb","375","1052087","0.0-46.2-0.2","null","pics2/SA3.jpg,pics2/FR1.jpg","","","","","","","false","null","","","noS.png","","",""
"image-slider-2AFC","376","1053581","0.0-46.2-1.2","1493","","","","49","","","","","","","","sizeS.png","896","49",""
"html-keyboard-response","377","1054384","0.0-46.2-2.2","null","","","","","","","null","","","","","","","",""
"image-selector-fb","378","1056145","0.0-46.3-0.3","1256","pics2/FR6.jpg,pics2/SA4.jpg","","","","","","","true","1","","","heartS.png","","",""
"image-slider-2AFC","379","1058414","0.0-46.3-1.3","2267","","","","51","","","","","","","","sizeS.png","1665","51",""
"html-keyboard-response","380","1059216","0.0-46.3-2.3","null","","","","","","","null","","","","","","","",""
"image-selector-fb","381","1060937","0.0-46.4-0.4","1218","pics2/SW5.jpg,pics2/FR3.jpg","","","","","","","false","0","","","heartS.png","","",""
"image-slider-2AFC","382","1062769","0.0-46.4-1.4","1831","","","","-40","","","","","","","","sizeS.png","1360","-40",""
"html-keyboard-response","383","1063622","0.0-46.4-2.4","null","","","","","","","null","","","","","","","",""
"image-selector-fb","384","1066627","0.0-46.5-0.5","null","pics2/VE4.jpg,pics2/FR2.jpg","","","","","","","false","null","","","noS.png","","",""
"image-slider-2AFC","385","1071632","0.0-46.5-1.5","null","","","","null","","","","","","","","sizeS.png","","",""
"html-keyboard-response","386","1072385","0.0-46.5-2.5","null","","","","","","","null","","","","","","","",""
"image-selector-fb","387","1075391","0.0-46.6-0.6","null","pics2/SA1.jpg,pics2/SW1.jpg","","","","","","","false","null","","","noS.png","","",""
"image-slider-2AFC","388","1077812","0.0-46.6-1.6","2419","","","","80","","","","","","","","sizeS.png","1754","80",""
"html-keyboard-response","389","1078565","0.0-46.6-2.6","null","","","","","","","null","","","","","","","",""
"image-selector-fb","390","1081572","0.0-46.7-0.7","null","pics2/SW5.jpg,pics2/SW1.jpg","","","","","","","false","null","","","noS.png","","",""
"image-slider-2AFC","391","1086576","0.0-46.7-1.7","null","","","","null","","","","","","","","sizeS.png","","",""
"html-keyboard-response","392","1087429","0.0-46.7-2.7","null","","","","","","","null","","","","","","","",""
"image-selector-fb","393","1090682","0.0-46.8-0.8","2749","pics2/SW5.jpg,pics2/FR6.jpg","","","","","","","false","0","","","sizeS.png","","",""
"image-slider-2AFC","394","1092838","0.0-46.8-1.8","2154","","","","-8","","","","","","","","sizeS.png","1669","-8",""
"html-keyboard-response","395","1093591","0.0-46.8-2.8","null","","","","","","","null","","","","","","","",""
"image-selector-fb","396","1095450","0.0-46.9-0.9","1355","pics2/FR2.jpg,pics2/SA1.jpg","","","","","","","true","1","","","sizeS.png","","",""
"image-slider-2AFC","397","1096625","0.0-46.9-1.9","1172","","","","52","","","","","","","","sizeS.png","586","52",""
"html-keyboard-response","398","1097477","0.0-46.9-2.9","null","","","","","","","null","","","","","","","",""
"image-selector-fb","399","1100161","0.0-46.10-0.10","2180","pics2/SW5.jpg,pics2/FR2.jpg","","","","","","","true","1","","","sizeS.png","","",""
"image-slider-2AFC","400","1102126","0.0-46.10-1.10","1963","","","","-9","","","","","","","","heartS.png","1531","-9",""
"html-keyboard-response","401","1102829","0.0-46.10-2.10","null","","","","","","","null","","","","","","","",""
"image-selector-fb","402","1105089","0.0-46.11-0.11","1756","pics2/FR6.jpg,pics2/VE4.jpg","","","","","","","false","0","","","heartS.png","","",""
"image-slider-2AFC","403","1108297","0.0-46.11-1.11","3206","","","","55","","","","","","","","sizeS.png","2620","55",""
"html-keyboard-response","404","1109099","0.0-46.11-2.11","null","","","","","","","null","","","","","","","",""
"image-selector-fb","405","1111208","0.0-46.12-0.12","1604","pics2/FR2.jpg,pics2/FR3.jpg","","","","","","","false","0","","","heartS.png","","",""
"image-slider-2AFC","406","1112944","0.0-46.12-1.12","1733","","","","-26","","","","","","","","heartS.png","1220","-26",""
"html-keyboard-response","407","1113797","0.0-46.12-2.12","null","","","","","","","null","","","","","","","",""
"image-selector-fb","408","1116505","0.0-46.13-0.13","2203","pics2/VE4.jpg,pics2/SA1.jpg","","","","","","","true","1","","","sizeS.png","","",""
"image-slider-2AFC","409","1118055","0.0-46.13-1.13","1549","","","","-38","","","","","","","","heartS.png","1052","-38",""
"html-keyboard-response","410","1118758","0.0-46.13-2.13","null","","","","","","","null","","","","","","","",""
"image-selector-fb","411","1120703","0.0-46.14-0.14","1441","pics2/SA1.jpg,pics2/SA3.jpg","","","","","","","true","1","","","heartS.png","","",""
"image-slider-2AFC","412","1122524","0.0-46.14-1.14","1816","","","","21","","","","","","","","heartS.png","1325","21",""
"html-keyboard-response","413","1123277","0.0-46.14-2.14","null","","","","","","","null","","","","","","","",""
"image-selector-fb","414","1125055","0.0-46.15-0.15","1273","pics2/FR1.jpg,pics2/VE4.jpg","","","","","","","true","1","","","sizeS.png","","",""
"image-slider-2AFC","415","1126486","0.0-46.15-1.15","1429","","","","-31","","","","","","","","heartS.png","901","-31",""
"html-keyboard-response","416","1127188","0.0-46.15-2.15","null","","","","","","","null","","","","","","","",""
"image-selector-fb","417","1129533","0.0-46.16-0.16","1841","pics2/SW1.jpg,pics2/SW3.jpg","","","","","","","false","0","","","heartS.png","","",""
"image-slider-2AFC","418","1131577","0.0-46.16-1.16","2042","","","","-21","","","","","","","","sizeS.png","1521","-21",""
"html-keyboard-response","419","1132280","0.0-46.16-2.16","null","","","","","","","null","","","","","","","",""
"image-selector-fb","420","1134744","0.0-46.17-0.17","1959","pics2/SA1.jpg,pics2/FR1.jpg","","","","","","","true","1","","","heartS.png","","",""
"image-slider-2AFC","421","1136459","0.0-46.17-1.17","1714","","","","20","","","","","","","","heartS.png","1257","20",""
"html-keyboard-response","422","1137312","0.0-46.17-2.17","null","","","","","","","null","","","","","","","",""
"image-selector-fb","423","1140317","0.0-46.18-0.18","null","pics2/SA3.jpg,pics2/FR2.jpg","","","","","","","false","null","","","noS.png","","",""
"image-slider-2AFC","424","1142133","0.0-46.18-1.18","1814","","","","-28","","","","","","","","heartS.png","1391","-28",""
"html-keyboard-response","425","1142935","0.0-46.18-2.18","null","","","","","","","null","","","","","","","",""
"image-selector-fb","426","1144548","0.0-46.19-0.19","1108","pics2/FR6.jpg,pics2/FR4.jpg","","","","","","","true","1","","","heartS.png","","",""
"image-slider-2AFC","427","1146605","0.0-46.19-1.19","2056","","","","-48","","","","","","","","sizeS.png","1247","-48",""
"html-keyboard-response","428","1147308","0.0-46.19-2.19","null","","","","","","","null","","","","","","","",""
"image-selector-fb","429","1150315","0.0-46.20-0.20","null","pics2/SW5.jpg,pics2/FR4.jpg","","","","","","","false","null","","","noS.png","","",""
"image-slider-2AFC","430","1152804","0.0-46.20-1.20","2487","","","","-29","","","","","","","","heartS.png","1949","-29",""
"html-keyboard-response","431","1153557","0.0-46.20-2.20","null","","","","","","","null","","","","","","","",""
"image-selector-fb","432","1156564","0.0-46.21-0.21","null","pics2/FR2.jpg,pics2/FR4.jpg","","","","","","","false","null","","","noS.png","","",""
"image-slider-2AFC","433","1159143","0.0-46.21-1.21","2577","","","","25","","","","","","","","heartS.png","2133","25",""
"html-keyboard-response","434","1159896","0.0-46.21-2.21","null","","","","","","","null","","","","","","","",""
"image-selector-fb","435","1162650","0.0-46.22-0.22","2250","pics2/FR1.jpg,pics2/FR2.jpg","","","","","","","false","0","","","sizeS.png","","",""
"image-slider-2AFC","436","1164486","0.0-46.22-1.22","1835","","","","-10","","","","","","","","sizeS.png","1398","-10",""
"html-keyboard-response","437","1165289","0.0-46.22-2.22","null","","","","","","","null","","","","","","","",""
"image-selector-fb","438","1168295","0.0-46.23-0.23","null","pics2/SW5.jpg,pics2/VE4.jpg","","","","","","","false","null","","","noS.png","","",""
"image-slider-2AFC","439","1170103","0.0-46.23-1.23","1806","","","","38","","","","","","","","sizeS.png","1308","38",""
"html-keyboard-response","440","1170806","0.0-46.23-2.23","null","","","","","","","null","","","","","","","",""
"image-selector-fb","441","1172860","0.0-46.24-0.24","1550","pics2/VE4.jpg,pics2/SW5.jpg","","","","","","","false","0","","","sizeS.png","","",""
"image-slider-2AFC","442","1174640","0.0-46.24-1.24","1779","","","","24","","","","","","","","heartS.png","953","24",""
"html-keyboard-response","443","1175393","0.0-46.24-2.24","null","","","","","","","null","","","","","","","",""
"image-selector-fb","444","1177108","0.0-46.25-0.25","1210","pics2/SA4.jpg,pics2/SA1.jpg","","","","","","","true","1","","","sizeS.png","","",""
"image-slider-2AFC","445","1178888","0.0-46.25-1.25","1778","","","","50","","","","","","","","sizeS.png","1266","50",""
"html-keyboard-response","446","1179740","0.0-46.25-2.25","null","","","","","","","null","","","","","","","",""
"image-selector-fb","447","1182746","0.0-46.26-0.26","null","pics2/SA1.jpg,pics2/FR2.jpg","","","","","","","false","null","","","noS.png","","",""
"image-slider-2AFC","448","1185111","0.0-46.26-1.26","2364","","","","35","","","","","","","","heartS.png","1402","35",""
"html-keyboard-response","449","1185864","0.0-46.26-2.26","null","","","","","","","null","","","","","","","",""
"image-selector-fb","450","1187438","0.0-46.27-0.27","1070","pics2/VE4.jpg,pics2/SW3.jpg","","","","","","","true","1","","","heartS.png","","",""
"image-slider-2AFC","451","1189712","0.0-46.27-1.27","2272","","","","-46","","","","","","","","sizeS.png","1865","-46",""
"html-keyboard-response","452","1190465","0.0-46.27-2.27","null","","","","","","","null","","","","","","","",""
"image-selector-fb","453","1192528","0.0-46.28-0.28","1558","pics2/FR4.jpg,pics2/SW5.jpg","","","","","","","true","1","","","sizeS.png","","",""
"image-slider-2AFC","454","1194545","0.0-46.28-1.28","2016","","","","22","","","","","","","","heartS.png","1422","22",""
"html-keyboard-response","455","1195247","0.0-46.28-2.28","null","","","","","","","null","","","","","","","",""
"image-selector-fb","456","1198251","0.0-46.29-0.29","null","pics2/FR6.jpg,pics2/SA4.jpg","","","","","","","false","null","","","noS.png","","",""
"image-slider-2AFC","457","1200083","0.0-46.29-1.29","1829","","","","34","","","","","","","","sizeS.png","1317","34",""
"html-keyboard-response","458","1200786","0.0-46.29-2.29","null","","","","","","","null","","","","","","","",""
"image-selector-fb","459","1203394","0.0-46.30-0.30","2103","pics2/SW1.jpg,pics2/VE4.jpg","","","","","","","false","0","","","sizeS.png","","",""
"image-slider-2AFC","460","1205270","0.0-46.30-1.30","1874","","","","-23","","","","","","","","sizeS.png","1249","-23",""
"html-keyboard-response","461","1206023","0.0-46.30-2.30","null","","","","","","","null","","","","","","","",""
"image-selector-fb","462","1209028","0.0-46.31-0.31","null","pics2/SW5.jpg,pics2/SA4.jpg","","","","","","","false","null","","","noS.png","","",""
"image-slider-2AFC","463","1211374","0.0-46.31-1.31","2345","","","","-14","","","","","","","","heartS.png","1992","-14",""
"html-keyboard-response","464","1212077","0.0-46.31-2.31","null","","","","","","","null","","","","","","","",""
"image-selector-fb","465","1214215","0.0-46.32-0.32","1631","pics2/SA3.jpg,pics2/SA4.jpg","","","","","","","true","1","","","sizeS.png","","",""
"image-slider-2AFC","466","1215952","0.0-46.32-1.32","1736","","","","11","","","","","","","","heartS.png","1366","11",""
"html-keyboard-response","467","1216704","0.0-46.32-2.32","null","","","","","","","null","","","","","","","",""
"image-selector-fb","468","1218679","0.0-46.33-0.33","1471","pics2/FR1.jpg,pics2/SW3.jpg","","","","","","","true","1","","","heartS.png","","",""
"image-slider-2AFC","469","1220572","0.0-46.33-1.33","1891","","","","23","","","","","","","","heartS.png","1092","23",""
"html-keyboard-response","470","1221425","0.0-46.33-2.33","null","","","","","","","null","","","","","","","",""
"image-selector-fb","471","1223040","0.0-46.34-0.34","1108","pics2/SA3.jpg,pics2/SW5.jpg","","","","","","","true","1","","","sizeS.png","","",""
"image-slider-2AFC","472","1224756","0.0-46.34-1.34","1714","","","","41","","","","","","","","sizeS.png","1085","41",""
"html-keyboard-response","473","1225609","0.0-46.34-2.34","null","","","","","","","null","","","","","","","",""
"image-selector-fb","474","1227362","0.0-46.35-0.35","1249","pics2/FR1.jpg,pics2/SW5.jpg","","","","","","","false","0","","","sizeS.png","","",""
"image-slider-2AFC","475","1228694","0.0-46.35-1.35","1331","","","","-31","","","","","","","","sizeS.png","866","-31",""
"html-keyboard-response","476","1229497","0.0-46.35-2.35","null","","","","","","","null","","","","","","","",""
"image-selector-fb","477","1232502","0.0-46.36-0.36","null","pics2/SA4.jpg,pics2/FR2.jpg","","","","","","","false","null","","","noS.png","","",""
"image-slider-2AFC","478","1234929","0.0-46.36-1.36","2426","","","","-46","","","","","","","","sizeS.png","1898","-46",""
"html-keyboard-response","479","1235632","0.0-46.36-2.36","null","","","","","","","null","","","","","","","",""
"image-selector-fb","480","1237285","0.0-46.37-0.37","1148","pics2/FR6.jpg,pics2/SW3.jpg","","","","","","","true","1","","","heartS.png","","",""
"image-slider-2AFC","481","1238760","0.0-46.37-1.37","1473","","","","37","","","","","","","","sizeS.png","985","37",""
"html-keyboard-response","482","1239613","0.0-46.37-2.37","null","","","","","","","null","","","","","","","",""
"image-selector-fb","483","1242055","0.0-46.38-0.38","1937","pics2/FR3.jpg,pics2/FR1.jpg","","","","","","","true","1","","","heartS.png","","",""
"image-slider-2AFC","484","1243695","0.0-46.38-1.38","1638","","","","39","","","","","","","","sizeS.png","1109","39",""
"html-keyboard-response","485","1244448","0.0-46.38-2.38","null","","","","","","","null","","","","","","","",""
"image-selector-fb","486","1247453","0.0-46.39-0.39","null","pics2/SW5.jpg,pics2/FR1.jpg","","","","","","","false","null","","","noS.png","","",""
"image-slider-2AFC","487","1249474","0.0-46.39-1.39","2018","","","","38","","","","","","","","sizeS.png","1537","38",""
"html-keyboard-response","488","1250327","0.0-46.39-2.39","null","","","","","","","null","","","","","","","",""
"image-selector-fb","489","1252457","0.0-46.40-0.40","1623","pics2/SW1.jpg,pics2/FR4.jpg","","","","","","","false","0","","","heartS.png","","",""
"image-slider-2AFC","490","1254386","0.0-46.40-1.40","1927","","","","-40","","","","","","","","sizeS.png","1174","-40",""
"html-keyboard-response","491","1255239","0.0-46.40-2.40","null","","","","","","","null","","","","","","","",""
"image-selector-fb","492","1257401","0.0-46.41-0.41","1659","pics2/SW1.jpg,pics2/FR1.jpg","","","","","","","false","0","","","heartS.png","","",""
"image-slider-2AFC","493","1259735","0.0-46.41-1.41","2332","","","","-69","","","","","","","","heartS.png","1289","-69",""
"html-keyboard-response","494","1260488","0.0-46.41-2.41","null","","","","","","","null","","","","","","","",""
"image-selector-fb","495","1262178","0.0-46.42-0.42","1186","pics2/FR3.jpg,pics2/FR6.jpg","","","","","","","true","1","","","sizeS.png","","",""
"image-slider-2AFC","496","1264444","0.0-46.42-1.42","2265","","","","-28","","","","","","","","heartS.png","1850","-28",""
"html-keyboard-response","497","1265147","0.0-46.42-2.42","null","","","","","","","null","","","","","","","",""
"image-selector-fb","498","1268153","0.0-46.43-0.43","null","pics2/FR6.jpg,pics2/SW1.jpg","","","","","","","false","null","","","noS.png","","",""
"image-slider-2AFC","499","1272588","0.0-46.43-1.43","4432","","","","31","","","","","","","","heartS.png","3574","31",""
"html-keyboard-response","500","1273440","0.0-46.43-2.43","null","","","","","","","null","","","","","","","",""
"image-selector-fb","501","1277573","0.0-46.44-0.44","3630","pics2/FR2.jpg,pics2/SA4.jpg","","","","","","","true","1","","","heartS.png","","",""
"image-slider-2AFC","502","1279218","0.0-46.44-1.44","1642","","","","10","","","","","","","","heartS.png","1228","10",""
"html-keyboard-response","503","1279921","0.0-46.44-2.44","null","","","","","","","null","","","","","","","",""
"image-selector-fb","504","1281525","0.0-46.45-0.45","1100","pics2/FR1.jpg,pics2/FR4.jpg","","","","","","","false","0","","","sizeS.png","","",""
"image-slider-2AFC","505","1283249","0.0-46.45-1.45","1723","","","","-43","","","","","","","","heartS.png","873","-43",""
"html-keyboard-response","506","1284000","0.0-46.45-2.45","null","","","","","","","null","","","","","","","",""
"image-selector-fb","507","1285974","0.0-46.46-0.46","1470","pics2/VE4.jpg,pics2/FR6.jpg","","","","","","","false","0","","","sizeS.png","","",""
"image-slider-2AFC","508","1288267","0.0-46.46-1.46","2291","","","","-33","","","","","","","","sizeS.png","1136","-33",""
"html-keyboard-response","509","1289069","0.0-46.46-2.46","null","","","","","","","null","","","","","","","",""
"image-selector-fb","510","1290852","0.0-46.47-0.47","1278","pics2/SA4.jpg,pics2/SW1.jpg","","","","","","","true","1","","","heartS.png","","",""
"image-slider-2AFC","511","1293214","0.0-46.47-1.47","2360","","","","49","","","","","","","","sizeS.png","1526","49",""
"html-keyboard-response","512","1293967","0.0-46.47-2.47","null","","","","","","","null","","","","","","","",""
"image-selector-fb","513","1296972","0.0-46.48-0.48","null","pics2/SA3.jpg,pics2/SW1.jpg","","","","","","","false","null","","","noS.png","","",""
"image-slider-2AFC","514","1298941","0.0-46.48-1.48","1967","","","","91","","","","","","","","sizeS.png","1374","91",""
"html-keyboard-response","515","1299644","0.0-46.48-2.48","null","","","","","","","null","","","","","","","",""
"image-selector-fb","516","1301568","0.0-46.49-0.49","1420","pics2/FR1.jpg,pics2/SW1.jpg","","","","","","","true","1","","","sizeS.png","","",""
"image-slider-2AFC","517","1303039","0.0-46.49-1.49","1468","","","","81","","","","","","","","sizeS.png","819","81",""
"html-keyboard-response","518","1303843","0.0-46.49-2.49","null","","","","","","","null","","","","","","","",""
"image-selector-fb","519","1306849","0.0-46.50-0.50","null","pics2/FR3.jpg,pics2/FR1.jpg","","","","","","","false","null","","","noS.png","","",""
"image-slider-2AFC","520","1309360","0.0-46.50-1.50","2510","","","","62","","","","","","","","heartS.png","1892","62",""
"html-keyboard-response","521","1310113","0.0-46.50-2.50","null","","","","","","","null","","","","","","","",""
"image-selector-fb","522","1313120","0.0-46.51-0.51","null","pics2/SW3.jpg,pics2/FR1.jpg","","","","","","","false","null","","","noS.png","","",""
"image-slider-2AFC","523","1314585","0.0-46.51-1.51","1462","","","","-43","","","","","","","","sizeS.png","917","-43",""
"html-keyboard-response","524","1315387","0.0-46.51-2.51","null","","","","","","","null","","","","","","","",""
"image-selector-fb","525","1317088","0.0-46.52-0.52","1197","pics2/VE4.jpg,pics2/FR4.jpg","","","","","","","true","1","","","heartS.png","","",""
"image-slider-2AFC","526","1318592","0.0-46.52-1.52","1502","","","","-40","","","","","","","","sizeS.png","1109","-40",""
"html-keyboard-response","527","1319395","0.0-46.52-2.52","null","","","","","","","null","","","","","","","",""
"image-selector-fb","528","1321239","0.0-46.53-0.53","1341","pics2/SW1.jpg,pics2/SW5.jpg","","","","","","","false","0","","","sizeS.png","","",""
"image-slider-2AFC","529","1322912","0.0-46.53-1.53","1670","","","","-52","","","","","","","","heartS.png","1174","-52",""
"html-keyboard-response","530","1323615","0.0-46.53-2.53","null","","","","","","","null","","","","","","","",""
"image-selector-fb","531","1325351","0.0-46.54-0.54","1232","pics2/SW3.jpg,pics2/SW5.jpg","","","","","","","false","0","","","sizeS.png","","",""
"image-slider-2AFC","532","1327135","0.0-46.54-1.54","1782","","","","-67","","","","","","","","sizeS.png","1004","-67",""
"html-keyboard-response","533","1327888","0.0-46.54-2.54","null","","","","","","","null","","","","","","","",""
"image-selector-fb","534","1330957","0.0-46.55-0.55","2565","pics2/SA4.jpg,pics2/VE4.jpg","","","","","","","false","0","","","heartS.png","","",""
"image-slider-2AFC","535","1332518","0.0-46.55-1.55","1560","","","","-53","","","","","","","","heartS.png","986","-53",""
"html-keyboard-response","536","1333221","0.0-46.55-2.55","null","","","","","","","null","","","","","","","",""
"image-selector-fb","537","1336028","0.0-46.56-0.56","2302","pics2/FR3.jpg,pics2/SW1.jpg","","","","","","","true","1","","","heartS.png","","",""
"image-slider-2AFC","538","1337668","0.0-46.56-1.56","1639","","","","98","","","","","","","","sizeS.png","1014","98",""
"html-keyboard-response","539","1338471","0.0-46.56-2.56","null","","","","","","","null","","","","","","","",""
"image-selector-fb","540","1339979","0.0-46.57-0.57","1003","pics2/SW5.jpg,pics2/SW3.jpg","","","","","","","true","1","","","heartS.png","","",""
"image-slider-2AFC","541","1341450","0.0-46.57-1.57","1470","","","","23","","","","","","","","sizeS.png","1030","23",""
"html-keyboard-response","542","1342204","0.0-46.57-2.57","null","","","","","","","null","","","","","","","",""
"image-selector-fb","543","1345210","0.0-46.58-0.58","null","pics2/FR3.jpg,pics2/SW3.jpg","","","","","","","false","null","","","noS.png","","",""
"image-slider-2AFC","544","1347435","0.0-46.58-1.58","2223","","","","54","","","","","","","","heartS.png","1558","54",""
"html-keyboard-response","545","1348188","0.0-46.58-2.58","null","","","","","","","null","","","","","","","",""
"image-selector-fb","546","1350144","0.0-46.59-0.59","1452","pics2/VE4.jpg,pics2/FR2.jpg","","","","","","","false","0","","","sizeS.png","","",""
"image-slider-2AFC","547","1351723","0.0-46.59-1.59","1578","","","","29","","","","","","","","heartS.png","1129","29",""
"html-keyboard-response","548","1352427","0.0-46.59-2.59","null","","","","","","","null","","","","","","","",""
"image-selector-fb","549","1355435","0.0-46.60-0.60","null","pics2/SA1.jpg,pics2/FR4.jpg","","","","","","","false","null","","","noS.png","","",""
"image-slider-2AFC","550","1358046","0.0-46.60-1.60","2610","","","","35","","","","","","","","heartS.png","2137","35",""
"html-keyboard-response","551","1358750","0.0-46.60-2.60","null","","","","","","","null","","","","","","","",""
"image-selector-fb","552","1360860","0.0-46.61-0.61","1606","pics2/SA1.jpg,pics2/VE4.jpg","","","","","","","true","1","","","heartS.png","","",""
"image-slider-2AFC","553","1363624","0.0-46.61-1.61","2762","","","","-66","","","","","","","","sizeS.png","1653","-66",""
"html-keyboard-response","554","1364428","0.0-46.61-2.61","null","","","","","","","null","","","","","","","",""
"image-selector-fb","555","1367239","0.0-46.62-0.62","2307","pics2/SA4.jpg,pics2/FR1.jpg","","","","","","","false","0","","","heartS.png","","",""
"image-slider-2AFC","556","1369252","0.0-46.62-1.62","2011","","","","-37","","","","","","","","sizeS.png","1556","-37",""
"html-keyboard-response","557","1369954","0.0-46.62-2.62","null","","","","","","","null","","","","","","","",""
"image-selector-fb","558","1372048","0.0-46.63-0.63","1591","pics2/FR2.jpg,pics2/FR4.jpg","","","","","","","true","1","","","heartS.png","","",""
"image-slider-2AFC","559","1373789","0.0-46.63-1.63","1738","","","","-24","","","","","","","","heartS.png","1314","-24",""
"html-keyboard-response","560","1374492","0.0-46.63-2.63","null","","","","","","","null","","","","","","","",""
"image-selector-fb","561","1376352","0.0-46.64-0.64","1357","pics2/SW3.jpg,pics2/SW1.jpg","","","","","","","true","1","","","sizeS.png","","",""
"image-slider-2AFC","562","1377646","0.0-46.64-1.64","1292","","","","27","","","","","","","","sizeS.png","808","27",""
"html-keyboard-response","563","1378349","0.0-46.64-2.64","null","","","","","","","null","","","","","","","",""
"image-selector-fb","564","1381089","0.0-46.65-0.65","2236","pics2/FR2.jpg,pics2/VE4.jpg","","","","","","","false","0","","","heartS.png","","",""
"image-slider-2AFC","565","1382899","0.0-46.65-1.65","1806","","","","-26","","","","","","","","heartS.png","1335","-26",""
"html-keyboard-response","566","1383601","0.0-46.65-2.65","null","","","","","","","null","","","","","","","",""
"pavlovia","567","1383617","0.0-47.0","","","","","","","","","","","","","","","",""
"html-keyboard-response","568","1388619","0.0-48.0","null","<div style='width: 700px;'> <font size=6><b>SHORT BREAK</font></b><br><br><i> Please wait 5 seconds to continue</i></div> ","","","","","","null","","","","","","","",""
"pavlovia","569","1388620","0.0-49.0","","","","","","","","","","","","","","","",""
"html-button-response","570","1411806","0.0-50.0","23186","<div style='width: 700px;'> <font size=6><b>BLOCK 3</font></b><br><br>Press the button whenever you feel ready to start the third and final block</div>","0","","","","","","","","","","","","",""
"image-selector-fb","571","1413741","0.0-51.0-0.0","1431","pics2/FR6.jpg,pics2/FR1.jpg","","","","","","","true","1","","","heartS.png","","",""
"image-slider-2AFC","572","1415139","0.0-51.0-1.0","1397","","","","17","","","","","","","","heartS.png","949","17",""
"html-keyboard-response","573","1415843","0.0-51.0-2.0","null","","","","","","","null","","","","","","","",""
"image-selector-fb","574","1417409","0.0-51.1-0.1","1063","pics2/VE4.jpg,pics2/SA4.jpg","","","","","","","false","0","","","sizeS.png","","",""
"image-slider-2AFC","575","1418377","0.0-51.1-1.1","966","","","","-14","","","","","","","","sizeS.png","573","-14",""
"html-keyboard-response","576","1419079","0.0-51.1-2.1","null","","","","","","","null","","","","","","","",""
"image-selector-fb","577","1420819","0.0-51.2-0.2","1236","pics2/FR3.jpg,pics2/FR2.jpg","","","","","","","true","1","","","sizeS.png","","",""
"image-slider-2AFC","578","1422343","0.0-51.2-1.2","1522","","","","39","","","","","","","","sizeS.png","1088","39",""
"html-keyboard-response","579","1423146","0.0-51.2-2.2","null","","","","","","","null","","","","","","","",""
"image-selector-fb","580","1426152","0.0-51.3-0.3","null","pics2/SW3.jpg,pics2/FR4.jpg","","","","","","","false","null","","","noS.png","","",""
"image-slider-2AFC","581","1427777","0.0-51.3-1.3","1624","","","","-43","","","","","","","","heartS.png","1104","-43",""
"html-keyboard-response","582","1428580","0.0-51.3-2.3","null","","","","","","","null","","","","","","","",""
"image-selector-fb","583","1431586","0.0-51.4-0.4","null","pics2/FR3.jpg,pics2/FR2.jpg","","","","","","","false","null","","","noS.png","","",""
"image-slider-2AFC","584","1433131","0.0-51.4-1.4","1544","","","","50","","","","","","","","sizeS.png","962","50",""
"html-keyboard-response","585","1433935","0.0-51.4-2.4","null","","","","","","","null","","","","","","","",""
"image-selector-fb","586","1435879","0.0-51.5-0.5","1439","pics2/FR4.jpg,pics2/SA1.jpg","","","","","","","true","1","","","sizeS.png","","",""
"image-slider-2AFC","587","1437334","0.0-51.5-1.5","1454","","","","-26","","","","","","","","heartS.png","1101","-26",""
"html-keyboard-response","588","1438037","0.0-51.5-2.5","null","","","","","","","null","","","","","","","",""
"image-selector-fb","589","1441042","0.0-51.6-0.6","null","pics2/FR6.jpg,pics2/VE4.jpg","","","","","","","false","null","","","noS.png","","",""
"image-slider-2AFC","590","1442794","0.0-51.6-1.6","1748","","","","51","","","","","","","","heartS.png","1059","51",""
"html-keyboard-response","591","1443595","0.0-51.6-2.6","null","","","","","","","null","","","","","","","",""
"image-selector-fb","592","1445213","0.0-51.7-0.7","1114","pics2/SW1.jpg,pics2/FR3.jpg","","","","","","","false","0","","","sizeS.png","","",""
"image-slider-2AFC","593","1446576","0.0-51.7-1.7","1360","","","","-79","","","","","","","","sizeS.png","839","-79",""
"html-keyboard-response","594","1447379","0.0-51.7-2.7","null","","","","","","","null","","","","","","","",""
"image-selector-fb","595","1450383","0.0-51.8-0.8","null","pics2/SA4.jpg,pics2/SW1.jpg","","","","","","","false","null","","","noS.png","","",""
"image-slider-2AFC","596","1452433","0.0-51.8-1.8","2049","","","","32","","","","","","","","heartS.png","1576","32",""
"html-keyboard-response","597","1453137","0.0-51.8-2.8","null","","","","","","","null","","","","","","","",""
"image-selector-fb","598","1456143","0.0-51.9-0.9","null","pics2/SW5.jpg,pics2/FR2.jpg","","","","","","","false","null","","","noS.png","","",""
"image-slider-2AFC","599","1457986","0.0-51.9-1.9","1842","","","","-40","","","","","","","","heartS.png","1249","-40",""
"html-keyboard-response","600","1458789","0.0-51.9-2.9","null","","","","","","","null","","","","","","","",""
"image-selector-fb","601","1461793","0.0-51.10-0.10","null","pics2/VE4.jpg,pics2/FR1.jpg","","","","","","","false","null","","","noS.png","","",""
"image-slider-2AFC","602","1463659","0.0-51.10-1.10","1862","","","","30","","","","","","","","heartS.png","1301","30",""
"html-keyboard-response","603","1464412","0.0-51.10-2.10","null","","","","","","","null","","","","","","","",""
"image-selector-fb","604","1466728","0.0-51.11-0.11","1811","pics2/SA4.jpg,pics2/SA3.jpg","","","","","","","true","1","","","heartS.png","","",""
"image-slider-2AFC","605","1469052","0.0-51.11-1.11","2323","","","","8","","","","","","","","sizeS.png","1900","8",""
"html-keyboard-response","606","1469805","0.0-51.11-2.11","null","","","","","","","null","","","","","","","",""
"image-selector-fb","607","1471254","0.0-51.12-0.12","944","pics2/FR2.jpg,pics2/SW5.jpg","","","","","","","true","1","","","heartS.png","","",""
"image-slider-2AFC","608","1473109","0.0-51.12-1.12","1854","","","","-38","","","","","","","","sizeS.png","1293","-38",""
"html-keyboard-response","609","1473862","0.0-51.12-2.12","null","","","","","","","null","","","","","","","",""
"image-selector-fb","610","1476868","0.0-51.13-0.13","null","pics2/SW3.jpg,pics2/FR2.jpg","","","","","","","false","null","","","noS.png","","",""
"image-slider-2AFC","611","1478622","0.0-51.13-1.13","1752","","","","-24","","","","","","","","heartS.png","1337","-24",""
"html-keyboard-response","612","1479324","0.0-51.13-2.13","null","","","","","","","null","","","","","","","",""
"image-selector-fb","613","1482331","0.0-51.14-0.14","null","pics2/FR3.jpg,pics2/SA4.jpg","","","","","","","false","null","","","noS.png","","",""
"image-slider-2AFC","614","1484785","0.0-51.14-1.14","2452","","","","39","","","","","","","","sizeS.png","1835","39",""
"html-keyboard-response","615","1485638","0.0-51.14-2.14","null","","","","","","","null","","","","","","","",""
"image-selector-fb","616","1487525","0.0-51.15-0.15","1383","pics2/FR1.jpg,pics2/SA1.jpg","","","","","","","true","1","","","sizeS.png","","",""
"image-slider-2AFC","617","1489242","0.0-51.15-1.15","1715","","","","75","","","","","","","","sizeS.png","1049","75",""
"html-keyboard-response","618","1489945","0.0-51.15-2.15","null","","","","","","","null","","","","","","","",""
"image-selector-fb","619","1492464","0.0-51.16-0.16","2016","pics2/SA3.jpg,pics2/SA1.jpg","","","","","","","true","1","","","sizeS.png","","",""
"image-slider-2AFC","620","1494546","0.0-51.16-1.16","2081","","","","82","","","","","","","","sizeS.png","1479","82",""
"html-keyboard-response","621","1495399","0.0-51.16-2.16","null","","","","","","","null","","","","","","","",""
"image-selector-fb","622","1498404","0.0-51.17-0.17","null","pics2/SA4.jpg,pics2/FR4.jpg","","","","","","","false","null","","","noS.png","","",""
"image-slider-2AFC","623","1500388","0.0-51.17-1.17","1980","","","","-59","","","","","","","","sizeS.png","1331","-59",""
"html-keyboard-response","624","1501240","0.0-51.17-2.17","null","","","","","","","null","","","","","","","",""
"image-selector-fb","625","1503044","0.0-51.18-0.18","1299","pics2/SA3.jpg,pics2/FR3.jpg","","","","","","","false","0","","","heartS.png","","",""
"image-slider-2AFC","626","1504354","0.0-51.18-1.18","1309","","","","-15","","","","","","","","heartS.png","868","-15",""
"html-keyboard-response","627","1505156","0.0-51.18-2.18","null","","","","","","","null","","","","","","","",""
"image-selector-fb","628","1506914","0.0-51.19-0.19","1254","pics2/SW1.jpg,pics2/SA4.jpg","","","","","","","false","0","","","sizeS.png","","",""
"image-slider-2AFC","629","1508738","0.0-51.19-1.19","1822","","","","-48","","","","","","","","sizeS.png","1206","-48",""
"html-keyboard-response","630","1509542","0.0-51.19-2.19","null","","","","","","","null","","","","","","","",""
"image-selector-fb","631","1512481","0.0-51.20-0.20","2435","pics2/FR2.jpg,pics2/SW3.jpg","","","","","","","true","1","","","heartS.png","","",""
"image-slider-2AFC","632","1515049","0.0-51.20-1.20","2565","","","","29","","","","","","","","heartS.png","1121","29",""
"html-keyboard-response","633","1515802","0.0-51.20-2.20","null","","","","","","","null","","","","","","","",""
"image-selector-fb","634","1517862","0.0-51.21-0.21","1556","pics2/FR1.jpg,pics2/SA3.jpg","","","","","","","false","0","","","sizeS.png","","",""
"image-slider-2AFC","635","1519305","0.0-51.21-1.21","1441","","","","-37","","","","","","","","sizeS.png","816","-37",""
"html-keyboard-response","636","1520008","0.0-51.21-2.21","null","","","","","","","null","","","","","","","",""
"image-selector-fb","637","1522623","0.0-51.22-0.22","2113","pics2/FR4.jpg,pics2/SA4.jpg","","","","","","","true","1","","","sizeS.png","","",""
"image-slider-2AFC","638","1524048","0.0-51.22-1.22","1423","","","","48","","","","","","","","sizeS.png","855","48",""
"html-keyboard-response","639","1524901","0.0-51.22-2.22","null","","","","","","","null","","","","","","","",""
"image-selector-fb","640","1526640","0.0-51.23-0.23","1234","pics2/FR6.jpg,pics2/FR3.jpg","","","","","","","true","1","","","heartS.png","","",""
"image-slider-2AFC","641","1529218","0.0-51.23-1.23","2577","","","","-65","","","","","","","","sizeS.png","1935","-65",""
"html-keyboard-response","642","1530071","0.0-51.23-2.23","null","","","","","","","null","","","","","","","",""
"image-selector-fb","643","1533077","0.0-51.24-0.24","null","pics2/FR6.jpg,pics2/FR1.jpg","","","","","","","false","null","","","noS.png","","",""
"image-slider-2AFC","644","1534641","0.0-51.24-1.24","1563","","","","47","","","","","","","","heartS.png","975","47",""
"html-keyboard-response","645","1535395","0.0-51.24-2.24","null","","","","","","","null","","","","","","","",""
"image-selector-fb","646","1537738","0.0-51.25-0.25","1839","pics2/SW3.jpg,pics2/FR1.jpg","","","","","","","false","0","","","sizeS.png","","",""
"image-slider-2AFC","647","1539589","0.0-51.25-1.25","1850","","","","-48","","","","","","","","sizeS.png","1320","-48",""
"html-keyboard-response","648","1540342","0.0-51.25-2.25","null","","","","","","","null","","","","","","","",""
"image-selector-fb","649","1542564","0.0-51.26-0.26","1718","pics2/SA1.jpg,pics2/FR3.jpg","","","","","","","true","1","","","heartS.png","","",""
"image-slider-2AFC","650","1544264","0.0-51.26-1.26","1699","","","","-75","","","","","","","","sizeS.png","1090","-75",""
"html-keyboard-response","651","1545117","0.0-51.26-2.26","null","","","","","","","null","","","","","","","",""
"image-selector-fb","652","1548154","0.0-51.27-0.27","2532","pics2/FR4.jpg,pics2/FR3.jpg","","","","","","","true","1","","","sizeS.png","","",""
"image-slider-2AFC","653","1549834","0.0-51.27-1.27","1676","","","","10","","","","","","","","sizeS.png","1275","10",""
"html-keyboard-response","654","1550537","0.0-51.27-2.27","null","","","","","","","null","","","","","","","",""
"image-selector-fb","655","1552106","0.0-51.28-0.28","1065","pics2/SA3.jpg,pics2/SW3.jpg","","","","","","","true","1","","","heartS.png","","",""
"image-slider-2AFC","656","1553111","0.0-51.28-1.28","1002","","","","21","","","","","","","","heartS.png","601","21",""
"html-keyboard-response","657","1553814","0.0-51.28-2.28","null","","","","","","","null","","","","","","","",""
"image-selector-fb","658","1555662","0.0-51.29-0.29","1345","pics2/SA4.jpg,pics2/SW3.jpg","","","","","","","true","1","","","heartS.png","","",""
"image-slider-2AFC","659","1556719","0.0-51.29-1.29","1056","","","","15","","","","","","","","heartS.png","668","15",""
"html-keyboard-response","660","1557573","0.0-51.29-2.29","null","","","","","","","null","","","","","","","",""
"image-selector-fb","661","1560579","0.0-51.30-0.30","null","pics2/SA1.jpg,pics2/SW3.jpg","","","","","","","false","null","","","noS.png","","",""
"image-slider-2AFC","662","1563302","0.0-51.30-1.30","2721","","","","-20","","","","","","","","sizeS.png","2122","-20",""
"html-keyboard-response","663","1564155","0.0-51.30-2.30","null","","","","","","","null","","","","","","","",""
"image-selector-fb","664","1567160","0.0-51.31-0.31","null","pics2/SA3.jpg,pics2/SW3.jpg","","","","","","","false","null","","","noS.png","","",""
"image-slider-2AFC","665","1569072","0.0-51.31-1.31","1907","","","","66","","","","","","","","sizeS.png","1314","66",""
"html-keyboard-response","666","1569925","0.0-51.31-2.31","null","","","","","","","null","","","","","","","",""
"image-selector-fb","667","1572524","0.0-51.32-0.32","2095","pics2/FR6.jpg,pics2/SW1.jpg","","","","","","","true","1","","","heartS.png","","",""
"image-slider-2AFC","668","1574170","0.0-51.32-1.32","1644","","","","58","","","","","","","","heartS.png","1036","58",""
"html-keyboard-response","669","1574923","0.0-51.32-2.32","null","","","","","","","null","","","","","","","",""
"image-selector-fb","670","1576606","0.0-51.33-0.33","1178","pics2/SW3.jpg,pics2/FR6.jpg","","","","","","","false","0","","","sizeS.png","","",""
"image-slider-2AFC","671","1578410","0.0-51.33-1.33","1802","","","","-17","","","","","","","","heartS.png","1472","-17",""
"html-keyboard-response","672","1579213","0.0-51.33-2.33","null","","","","","","","null","","","","","","","",""
"image-selector-fb","673","1582219","0.0-51.34-0.34","null","pics2/SW5.jpg,pics2/FR6.jpg","","","","","","","false","null","","","noS.png","","",""
"image-slider-2AFC","674","1584872","0.0-51.34-1.34","2651","","","","-54","","","","","","","","heartS.png","1991","-54",""
"html-keyboard-response","675","1585575","0.0-51.34-2.34","null","","","","","","","null","","","","","","","",""
"image-selector-fb","676","1588580","0.0-51.35-0.35","null","pics2/SA1.jpg,pics2/SA4.jpg","","","","","","","false","null","","","noS.png","","",""
"image-slider-2AFC","677","1590467","0.0-51.35-1.35","1885","","","","48","","","","","","","","heartS.png","1187","48",""
"html-keyboard-response","678","1591270","0.0-51.35-2.35","null","","","","","","","null","","","","","","","",""
"image-selector-fb","679","1594848","0.0-51.36-0.36","3074","pics2/FR4.jpg,pics2/SA3.jpg","","","","","","","true","1","","","sizeS.png","","",""
"image-slider-2AFC","680","1597142","0.0-51.36-1.36","2293","","","","40","","","","","","","","heartS.png","1787","40",""
"html-keyboard-response","681","1597896","0.0-51.36-2.36","null","","","","","","","null","","","","","","","",""
"image-selector-fb","682","1599834","0.0-51.37-0.37","1434","pics2/SW5.jpg,pics2/SA4.jpg","","","","","","","true","1","","","sizeS.png","","",""
"image-slider-2AFC","683","1600937","0.0-51.37-1.37","1100","","","","55","","","","","","","","sizeS.png","579","55",""
"html-keyboard-response","684","1601789","0.0-51.37-2.37","null","","","","","","","null","","","","","","","",""
"image-selector-fb","685","1603448","0.0-51.38-0.38","1156","pics2/FR4.jpg,pics2/SW3.jpg","","","","","","","true","1","","","heartS.png","","",""
"image-slider-2AFC","686","1604879","0.0-51.38-1.38","1430","","","","54","","","","","","","","sizeS.png","886","54",""
"html-keyboard-response","687","1605734","0.0-51.38-2.38","null","","","","","","","null","","","","","","","",""
"image-selector-fb","688","1607126","0.0-51.39-0.39","887","pics2/FR4.jpg,pics2/VE4.jpg","","","","","","","true","1","","","sizeS.png","","",""
"image-slider-2AFC","689","1608975","0.0-51.39-1.39","1847","","","","40","","","","","","","","sizeS.png","1406","40",""
"html-keyboard-response","690","1609728","0.0-51.39-2.39","null","","","","","","","null","","","","","","","",""
"image-selector-fb","691","1611446","0.0-51.40-0.40","1215","pics2/SA3.jpg,pics2/FR2.jpg","","","","","","","true","1","","","sizeS.png","","",""
"image-slider-2AFC","692","1613399","0.0-51.40-1.40","1952","","","","25","","","","","","","","sizeS.png","1551","25",""
"html-keyboard-response","693","1614252","0.0-51.40-2.40","null","","","","","","","null","","","","","","","",""
"image-selector-fb","694","1615686","0.0-51.41-0.41","928","pics2/SA1.jpg,pics2/FR2.jpg","","","","","","","true","1","","","heartS.png","","",""
"image-slider-2AFC","695","1617133","0.0-51.41-1.41","1445","","","","32","","","","","","","","heartS.png","1011","32",""
"html-keyboard-response","696","1617936","0.0-51.41-2.41","null","","","","","","","null","","","","","","","",""
"image-selector-fb","697","1620942","0.0-51.42-0.42","null","pics2/SA1.jpg,pics2/FR1.jpg","","","","","","","false","null","","","noS.png","","",""
"image-slider-2AFC","698","1622964","0.0-51.42-1.42","2021","","","","-63","","","","","","","","sizeS.png","1314","-63",""
"html-keyboard-response","699","1623716","0.0-51.42-2.42","null","","","","","","","null","","","","","","","",""
"image-selector-fb","700","1626724","0.0-51.43-0.43","null","pics2/SA3.jpg,pics2/SA1.jpg","","","","","","","false","null","","","noS.png","","",""
"image-slider-2AFC","701","1628827","0.0-51.43-1.43","2102","","","","-57","","","","","","","","heartS.png","1452","-57",""
"html-keyboard-response","702","1629581","0.0-51.43-2.43","null","","","","","","","null","","","","","","","",""
"image-selector-fb","703","1631170","0.0-51.44-0.44","1086","pics2/SW5.jpg,pics2/FR4.jpg","","","","","","","false","0","","","heartS.png","","",""
"image-slider-2AFC","704","1633042","0.0-51.44-1.44","1870","","","","-36","","","","","","","","sizeS.png","1454","-36",""
"html-keyboard-response","705","1633845","0.0-51.44-2.44","null","","","","","","","null","","","","","","","",""
"image-selector-fb","706","1635826","0.0-51.45-0.45","1476","pics2/VE4.jpg,pics2/FR1.jpg","","","","","","","true","1","","","heartS.png","","",""
"image-slider-2AFC","707","1637569","0.0-51.45-1.45","1742","","","","31","","","","","","","","heartS.png","1302","31",""
"html-keyboard-response","708","1638373","0.0-51.45-2.45","null","","","","","","","null","","","","","","","",""
"image-selector-fb","709","1640322","0.0-51.46-0.46","1444","pics2/SA3.jpg,pics2/FR4.jpg","","","","","","","false","0","","","heartS.png","","",""
"image-slider-2AFC","710","1641889","0.0-51.46-1.46","1565","","","","-42","","","","","","","","heartS.png","940","-42",""
"html-keyboard-response","711","1642742","0.0-51.46-2.46","null","","","","","","","null","","","","","","","",""
