"trial_type","trial_index","time_elapsed","internal_node_id","rt","stimulus","button_pressed","success","response","cat","value","key_press","correct","image_click","first_click_rt","first_click_val","symbol","all_click_rt","all_click_val","view_history"
"pavlovia","0","2","0.0-0.0","","","","","","","","","","","","","","","",""
"html-button-response","1","3314","0.0-1.0","3310","<div style='width: 700px; font-size: 150%'><font size='40'>  Welcome to our study!</font><br><br><br> <small> Our experiment is about <i>decision making</i>. You will choose and rate different food items, such as these: <br><br> <div><img src='food_combo2.png', height = '400px'></img></div>","0","","","","","","","","","","","","",""
"html-button-response","2","6823","0.0-2.0","3507","<div style='width: 700px; font-size: 150%'><br><br><br><small> <u><i>This is a multi-part study.</i></u><br><br> In the first part you will rate 24 food items twice.<br><br><div><img src=""rat1.png"" style=""width: 25%""></img></div><br>In the second part (longest) you will make repeated choices and judgements concerning the food items.<br><br><div><img src=""mainx.png"" style=""width: 50%""></img></div><br>In the third and final part, you will rate the items again and answer few short questionnaires.<br><br><div><img src=""rat2.png"" style=""width: 50%""></img></div><br><br>","0","","","","","","","","","","","","",""
"fullscreen","3","9171","0.0-3.0","","","","true","","","","","","","","","","","",""
"html-button-response","4","47150","0.0-4.0","37979","<div style='width: 900px; font-size: 150%;' <font size='20%'> In the first part of the task you will use the mouse to rate food items on <i>2 scales</i> </font></div><br><br><div style='width: 900px'><div style='float: left; width: 50%; margin-right:2.5em'><img src='heartS.png'></img><p class='small' style='text-align: justify'>When you see the heart cue you will rate food items in terms of how much like them/would like to eat them <i>right now</i>. You will rate them on a continuous scale from left (strong dislike) to right (strong liking). Before submitting your rating, try imagining how the item tastes and how much you desire it.<br><br></p></div><div ><img src='sizeS.png'></img><p class='small' style='text-align: justify'>When you see the size cue, you will rate the same food items in terms of their size. The scale goes from left (tiny) to right (very large). You should assess picture size <i><u>relative</i></u> to the white background. <b>Remember:</b> rate the size of the picture, <u>not</u> the size of the item in real life. </p></div><div style='width: 900px'><br><br><b><i>Notice:</b> by starting the rating you agree that your sumbission might be rejected at an early stage and the experiment might end, if your size ratings are not at least modestly related to objective sizes, or if you repeat the same value ratings too many times. If you don't agree, please exit by closing the browser window. </i><br><br><br>","0","","","","","","","","","","","","",""
"html-button-response","5","58837","0.0-5.0","11686","<div><img src='heartS.png'></img></div><br><div style='text-align: justify; width: 700px'>Using the mouse, rate the <b><i>likeness</b></i> of the food items (how much you like them/would like to eat them <i>right now</i>). Far right-end of the scale indicates an item you <i>like a lot</i>. Far left-end indicates an item you <i>dislike a lot</i>. Think about each answer.   <ul><li>Try <b><i>not</b></i> to give identical rating to different items.</li><li>Use the whole scale, and <b><i>not</b></i> just the extremes</ul></div><br>","0","","","","","","","","","","","","",""
"image-slider-response","6","63178","0.0-6.0-0.0-0.0","4340","pics2/SW4.jpg","","","87","SW","","","","","","","","","",""
"image-slider-response","7","69269","0.0-6.0-0.0-0.1","5888","pics2/SW1.jpg","","","77","SW","","","","","","","","","",""
"image-slider-response","8","72541","0.0-6.0-0.0-0.2","3063","pics2/FR4.jpg","","","73","FR","","","","","","","","","",""
"image-slider-response","9","77054","0.0-6.0-0.0-0.3","4309","pics2/SA4.jpg","","","75","SA","","","","","","","","","",""
"image-slider-response","10","84716","0.0-6.0-0.0-0.4","7455","pics2/VE6.jpg","","","52","VE","","","","","","","","","",""
"image-slider-response","11","88870","0.0-6.0-0.0-0.5","3951","pics2/FR2.jpg","","","62","FR","","","","","","","","","",""
"image-slider-response","12","93494","0.0-6.0-0.0-0.6","4421","pics2/VE3.jpg","","","64","VE","","","","","","","","","",""
"image-slider-response","13","98283","0.0-6.0-0.0-0.7","4587","pics2/SW6.jpg","","","81","SW","","","","","","","","","",""
"image-slider-response","14","101371","0.0-6.0-0.0-0.8","2886","pics2/FR3.jpg","","","79","FR","","","","","","","","","",""
"image-slider-response","15","104166","0.0-6.0-0.0-0.9","2582","pics2/FR5.jpg","","","69","FR","","","","","","","","","",""
"image-slider-response","16","108438","0.0-6.0-0.0-0.10","4070","pics2/SA2.jpg","","","69","SA","","","","","","","","","",""
"image-slider-response","17","114160","0.0-6.0-0.0-0.11","5504","pics2/SA1.jpg","","","64","SA","","","","","","","","","",""
"image-slider-response","18","118990","0.0-6.0-0.0-0.12","4624","pics2/FR1.jpg","","","69","FR","","","","","","","","","",""
"image-slider-response","19","124692","0.0-6.0-0.0-0.13","5487","pics2/SW2.jpg","","","75","SW","","","","","","","","","",""
"image-slider-response","20","128708","0.0-6.0-0.0-0.14","3813","pics2/FR6.jpg","","","72","FR","","","","","","","","","",""
"image-slider-response","21","132682","0.0-6.0-0.0-0.15","3772","pics2/SA5.jpg","","","63","SA","","","","","","","","","",""
"image-slider-response","22","136522","0.0-6.0-0.0-0.16","3639","pics2/VE4.jpg","","","62","VE","","","","","","","","","",""
"image-slider-response","23","141020","0.0-6.0-0.0-0.17","4295","pics2/VE5.jpg","","","52","VE","","","","","","","","","",""
"image-slider-response","24","145758","0.0-6.0-0.0-0.18","4526","pics2/SW3.jpg","","","81","SW","","","","","","","","","",""
"image-slider-response","25","150006","0.0-6.0-0.0-0.19","4047","pics2/SW5.jpg","","","89","SW","","","","","","","","","",""
"image-slider-response","26","152592","0.0-6.0-0.0-0.20","2384","pics2/VE2.jpg","","","56","VE","","","","","","","","","",""
"image-slider-response","27","154860","0.0-6.0-0.0-0.21","2066","pics2/VE1.jpg","","","50","VE","","","","","","","","","",""
"image-slider-response","28","159277","0.0-6.0-0.0-0.22","4214","pics2/SA6.jpg","","","56","SA","","","","","","","","","",""
"image-slider-response","29","162222","0.0-6.0-0.0-0.23","2743","pics2/SA3.jpg","","","62","SA","","","","","","","","","",""
"html-button-response","30","163602","0.0-7.0","1179","<div style='width: 900px;'> <font size = 6><b> End of the first rating</b><br><br>","0","","","","","","","","","","","","",""
"html-button-response","31","184532","0.0-9.0","20928","<div ><img src='sizeS.png'></img></div><br><div style='text-align: justify; width: 700px'> Using the mouse, rate the <b><i>size</b></i> of the food items <b><i> relative to the white background.</b></i> Right-end of the scale indicates a <i>very large item</i>, which covers a large portion of the white rectangle. Left-end indicates a <i>very tiny</i> item which covers a tiny portion of the white rectangle.<br><br><i><u>Remember</i></u>: everything that is not the white background also contributes to item size (e.g. packing, plates, ect.)<br><br> Please keep in mind that if the accuracy of ratings do not allign well with actual sizes, the experiment will end.  As a result it will be consider incomplete and therefore no payment would be made. Good luck!<br><br></div><br>","0","","","","","","","","","","","","",""
"html-button-response","32","188218","0.0-10.0","3684","<div ><img src='sizeS.png'></img></div><br><b><font size=6>Examples of items that you might encounter</b><br><div style='width: 750px;'><div style='width: 33.33%; float:left'><br><br><br><i>Large Item</i><br><br><img src='large.jpg', width=200px></img></div><div style='float:right'><br><br><br><i>Small Item</i><br><br><img src='small.jpg', width=200px></img></div><div ><br><br><br><i>Medium Item</i><br><br><img src='med.jpg', width=200px></img></div></div><br><br>","0","","","","","","","","","","","","",""
"image-slider-response","33","193574","0.0-11.0-0.0-0.0","5356","pics2/SW1.jpg","","","89","null","","","","","","","","","",""
"image-slider-response","34","199247","0.0-11.0-0.0-0.1","5465","pics2/VE5.jpg","","","50","null","","","","","","","","","",""
"image-slider-response","35","202361","0.0-11.0-0.0-0.2","2913","pics2/SW6.jpg","","","50","null","","","","","","","","","",""
"image-slider-response","36","204582","0.0-11.0-0.0-0.3","2014","pics2/SA5.jpg","","","50","null","","","","","","","","","",""
"image-slider-response","37","208301","0.0-11.0-0.0-0.4","3510","pics2/FR2.jpg","","","65","null","","","","","","","","","",""
"image-slider-response","38","212652","0.0-11.0-0.0-0.5","4148","pics2/SW3.jpg","","","67","null","","","","","","","","","",""
"image-slider-response","39","216453","0.0-11.0-0.0-0.6","3591","pics2/FR6.jpg","","","55","null","","","","","","","","","",""
"image-slider-response","40","220585","0.0-11.0-0.0-0.7","3930","pics2/VE4.jpg","","","54","null","","","","","","","","","",""
"image-slider-response","41","227136","0.0-11.0-0.0-0.8","6344","pics2/FR1.jpg","","","76","null","","","","","","","","","",""
"image-slider-response","42","231305","0.0-11.0-0.0-0.9","3965","pics2/VE6.jpg","","","68","null","","","","","","","","","",""
"image-slider-response","43","234465","0.0-11.0-0.0-0.10","2947","pics2/SA1.jpg","","","83","null","","","","","","","","","",""
"image-slider-response","44","238404","0.0-11.0-0.0-0.11","3722","pics2/SA3.jpg","","","76","null","","","","","","","","","",""
"image-slider-response","45","243023","0.0-11.0-0.0-0.12","4408","pics2/SA2.jpg","","","52","null","","","","","","","","","",""
"image-slider-response","46","248394","0.0-11.0-0.0-0.13","5159","pics2/SW5.jpg","","","72","null","","","","","","","","","",""
"image-slider-response","47","251862","0.0-11.0-0.0-0.14","3267","pics2/VE2.jpg","","","70","null","","","","","","","","","",""
"image-slider-response","48","254516","0.0-11.0-0.0-0.15","2451","pics2/SA6.jpg","","","56","null","","","","","","","","","",""
"image-slider-response","49","260526","0.0-11.0-0.0-0.16","5796","pics2/SW4.jpg","","","78","null","","","","","","","","","",""
"image-slider-response","50","264151","0.0-11.0-0.0-0.17","3412","pics2/SW2.jpg","","","98","null","","","","","","","","","",""
"image-slider-response","51","267251","0.0-11.0-0.0-0.18","2888","pics2/FR4.jpg","","","85","null","","","","","","","","","",""
"image-slider-response","52","270187","0.0-11.0-0.0-0.19","2724","pics2/FR3.jpg","","","88","null","","","","","","","","","",""
"image-slider-response","53","274466","0.0-11.0-0.0-0.20","4074","pics2/SA4.jpg","","","46","null","","","","","","","","","",""
"image-slider-response","54","279374","0.0-11.0-0.0-0.21","4690","pics2/VE1.jpg","","","56","null","","","","","","","","","",""
"image-slider-response","55","284908","0.0-11.0-0.0-0.22","5325","pics2/VE3.jpg","","","69","null","","","","","","","","","",""
"image-slider-response","56","288150","0.0-11.0-0.0-0.23","3036","pics2/FR5.jpg","","","63","null","","","","","","","","","",""
"html-button-response","57","289638","0.0-12.0","1286","<div style='width: 900px;'> <font size = 6><b> End of the second rating</b><br><br>","0","","","","","","","","","","","","",""
"html-button-response","58","293142","0.0-13.0","3503","<div style='width: 900px;'>Now please rate the items for the second time. <br><br>This is not a memory test - you don't need to be consistent with your previous ratings. Just as before, try to make accurate judgements.<br><br>","0","","","","","","","","","","","","",""
"html-button-response","59","294895","0.0-14.0","1753","<div><img src='heartS.png'></img></div><br><div style='text-align: justify; width: 700px'>Using the mouse, rate the <b><i>likeness</b></i> of the food items (how much you like them/would like to eat them <i>right now</i>). Far right-end of the scale indicates an item you <i>like a lot</i>. Far left-end indicates an item you <i>dislike a lot</i>. Think about each answer.   <ul><li>Try <b><i>not</b></i> to give identical rating to different items.</li><li>Use the whole scale, and <b><i>not</b></i> just the extremes</ul></div><br>","0","","","","","","","","","","","","",""
"image-slider-response","60","299777","0.0-15.0-0.0-0.0","4881","pics2/SW2.jpg","","","95","SW","","","","","","","","","",""
"image-slider-response","61","303406","0.0-15.0-0.0-0.1","3412","pics2/VE5.jpg","","","55","VE","","","","","","","","","",""
"image-slider-response","62","306454","0.0-15.0-0.0-0.2","2832","pics2/FR4.jpg","","","68","FR","","","","","","","","","",""
"image-slider-response","63","309520","0.0-15.0-0.0-0.3","2854","pics2/SA3.jpg","","","63","SA","","","","","","","","","",""
"image-slider-response","64","313124","0.0-15.0-0.0-0.4","3390","pics2/SW5.jpg","","","75","SW","","","","","","","","","",""
"image-slider-response","65","315388","0.0-15.0-0.0-0.5","2060","pics2/VE1.jpg","","","53","VE","","","","","","","","","",""
"image-slider-response","66","319802","0.0-15.0-0.0-0.6","4211","pics2/FR6.jpg","","","62","FR","","","","","","","","","",""
"image-slider-response","67","322966","0.0-15.0-0.0-0.7","2961","pics2/VE3.jpg","","","61","VE","","","","","","","","","",""
"image-slider-response","68","325272","0.0-15.0-0.0-0.8","2102","pics2/SA5.jpg","","","54","SA","","","","","","","","","",""
"image-slider-response","69","327729","0.0-15.0-0.0-0.9","2255","pics2/SW3.jpg","","","85","SW","","","","","","","","","",""
"image-slider-response","70","331598","0.0-15.0-0.0-0.10","3661","pics2/VE2.jpg","","","54","VE","","","","","","","","","",""
"image-slider-response","71","335234","0.0-15.0-0.0-0.11","3429","pics2/FR2.jpg","","","66","FR","","","","","","","","","",""
"image-slider-response","72","338040","0.0-15.0-0.0-0.12","2602","pics2/SW4.jpg","","","91","SW","","","","","","","","","",""
"image-slider-response","73","344393","0.0-15.0-0.0-0.13","6151","pics2/SA4.jpg","","","70","SA","","","","","","","","","",""
"image-slider-response","74","346598","0.0-15.0-0.0-0.14","2004","pics2/FR1.jpg","","","62","FR","","","","","","","","","",""
"image-slider-response","75","352110","0.0-15.0-0.0-0.15","5309","pics2/SW1.jpg","","","100","SW","","","","","","","","","",""
"image-slider-response","76","355052","0.0-15.0-0.0-0.16","2727","pics2/SA6.jpg","","","61","SA","","","","","","","","","",""
"image-slider-response","77","357084","0.0-15.0-0.0-0.17","1817","pics2/FR3.jpg","","","77","FR","","","","","","","","","",""
"image-slider-response","78","360354","0.0-15.0-0.0-0.18","3064","pics2/VE6.jpg","","","50","VE","","","","","","","","","",""
"image-slider-response","79","362575","0.0-15.0-0.0-0.19","2020","pics2/VE4.jpg","","","54","VE","","","","","","","","","",""
"image-slider-response","80","364978","0.0-15.0-0.0-0.20","2200","pics2/SA1.jpg","","","61","SA","","","","","","","","","",""
"image-slider-response","81","367752","0.0-15.0-0.0-0.21","2570","pics2/SW6.jpg","","","84","SW","","","","","","","","","",""
"image-slider-response","82","370184","0.0-15.0-0.0-0.22","2215","pics2/FR5.jpg","","","68","FR","","","","","","","","","",""
"image-slider-response","83","373200","0.0-15.0-0.0-0.23","2813","pics2/SA2.jpg","","","56","SA","","","","","","","","","",""
"call-function","84","373406","0.0-16.0","","","","","","","","","","","","","","","",""
"call-function","85","373409","0.0-17.0","","","","","","","","","","","","","","","",""
"html-button-response","86","374434","0.0-18.0","1024","<div style='width: 900px;'> <font size = 6><b> End of the first rating</b><br><br>","0","","","","","","","","","","","","",""
"html-button-response","87","376562","0.0-19.0","2127","<div ><img src='sizeS.png'></img></div><br><div style='text-align: justify; width: 700px'> Using the mouse, rate the <b><i>size</b></i> of the food items <b><i> relative to the white background.</b></i> Right-end of the scale indicates a <i>very large item</i>, which covers a large portion of the white rectangle. Left-end indicates a <i>very tiny</i> item which covers a tiny portion of the white rectangle.<br><br><i><u>Remember</i></u>: everything that is not the white background also contributes to item size (e.g. packing, plates, ect.)<br><br> Please keep in mind that if the accuracy of ratings do not allign well with actual sizes, the experiment will end.  As a result it will be consider incomplete and therefore no payment would be made. Good luck!<br><br></div><br>","0","","","","","","","","","","","","",""
"image-slider-response","88","382151","0.0-20.0-0.0-0.0","5588","pics2/SA6.jpg","","","69","null","","","","","","","","","",""
"image-slider-response","89","384836","0.0-20.0-0.0-0.1","2469","pics2/FR2.jpg","","","81","null","","","","","","","","","",""
"image-slider-response","90","388204","0.0-20.0-0.0-0.2","3164","pics2/FR3.jpg","","","82","null","","","","","","","","","",""
"image-slider-response","91","393498","0.0-20.0-0.0-0.3","5089","pics2/SA4.jpg","","","51","null","","","","","","","","","",""
"image-slider-response","92","397607","0.0-20.0-0.0-0.4","3894","pics2/SA1.jpg","","","81","null","","","","","","","","","",""
"image-slider-response","93","400944","0.0-20.0-0.0-0.5","3133","pics2/SW6.jpg","","","61","null","","","","","","","","","",""
"image-slider-response","94","403526","0.0-20.0-0.0-0.6","2372","pics2/FR5.jpg","","","68","null","","","","","","","","","",""
"image-slider-response","95","419410","0.0-20.0-0.0-0.7","15683","pics2/SA5.jpg","","","58","null","","","","","","","","","",""
"image-slider-response","96","423394","0.0-20.0-0.0-0.8","3781","pics2/SW1.jpg","","","94","null","","","","","","","","","",""
"image-slider-response","97","426296","0.0-20.0-0.0-0.9","2699","pics2/SW3.jpg","","","88","null","","","","","","","","","",""
"image-slider-response","98","429908","0.0-20.0-0.0-0.10","3411","pics2/SW2.jpg","","","97","null","","","","","","","","","",""
"image-slider-response","99","452038","0.0-20.0-0.0-0.11","21926","pics2/SW5.jpg","","","83","null","","","","","","","","","",""
"image-slider-response","100","459705","0.0-20.0-0.0-0.12","7466","pics2/VE6.jpg","","","70","null","","","","","","","","","",""
"image-slider-response","101","463934","0.0-20.0-0.0-0.13","4026","pics2/VE4.jpg","","","62","null","","","","","","","","","",""
"image-slider-response","102","467671","0.0-20.0-0.0-0.14","3522","pics2/SA2.jpg","","","60","null","","","","","","","","","",""
"image-slider-response","103","470332","0.0-20.0-0.0-0.15","2448","pics2/SA3.jpg","","","65","null","","","","","","","","","",""
"image-slider-response","104","472645","0.0-20.0-0.0-0.16","2111","pics2/FR4.jpg","","","71","null","","","","","","","","","",""
"image-slider-response","105","475878","0.0-20.0-0.0-0.17","3030","pics2/VE2.jpg","","","76","null","","","","","","","","","",""
"image-slider-response","106","478994","0.0-20.0-0.0-0.18","2898","pics2/VE1.jpg","","","60","null","","","","","","","","","",""
"image-slider-response","107","481686","0.0-20.0-0.0-0.19","2490","pics2/SW4.jpg","","","77","null","","","","","","","","","",""
"image-slider-response","108","483872","0.0-20.0-0.0-0.20","1969","pics2/VE5.jpg","","","56","null","","","","","","","","","",""
"image-slider-response","109","492404","0.0-20.0-0.0-0.21","8329","pics2/FR1.jpg","","","65","null","","","","","","","","","",""
"image-slider-response","110","495302","0.0-20.0-0.0-0.22","2686","pics2/FR6.jpg","","","54","null","","","","","","","","","",""
"image-slider-response","111","497637","0.0-20.0-0.0-0.23","2132","pics2/VE3.jpg","","","67","null","","","","","","","","","",""
"call-function","112","497857","0.0-21.0","","","","","","","","","","","","","","","",""
"html-button-response","113","498836","0.0-22.0","978","<div style='width: 900px;'> <font size = 6><b> End of the second rating</b><br><br>","0","","","","","","","","","","","","",""
"pavlovia","114","498842","0.0-23.0","","","","","","","","","","","","","","","",""
"html-keyboard-response","115","503855","0.0-24.0","null","<div style='width: 700px;'> <font size=6><b>SHORT BREAK</font></b><br><br><i> Please wait 5 seconds to continue</i></div> ","","","","","","null","","","","","","","",""
"pavlovia","116","503857","0.0-25.0","","","","","","","","","","","","","","","",""
"html-button-response","117","511636","0.0-26.0","7778","<div style='width: 700px;'>In the main part of the study, you will be choosing between 2 items. When it's time to choose,  this symbol will appear: <br><br><img src='chooseS.png'></img><br><br>Below, a cue will signify the type of choice: </div><br><div style='width: 700px;'><div style='float: left; width: 50%'><img src='heartS.png'></img><p class='small'>Heart cue means you should choose the item you <b><i>prefer</b></i> more.</p></div><div class='float: right; width:50%'><img src='sizeS.png'></img><p class='small'>Size cue means you should choose the <b><i>larger</b></i> item. </p></div></div><br><div style='width: 700px;'>When you click, a green square will appear around the item you chose.<br></div><div><br>","0","","","","","","","","","","","","",""
"image-selector-fb-tut","118","516558","0.0-27.0","3916","0232.jpg,0123.jpg","","","","","","","false","0","","","","","",""
"image-selector-fb-tut","119","519336","0.0-28.0","1771","0232.jpg,0123.jpg","","","","","","","true","1","","","","","",""
"html-button-response","120","522595","0.0-29.0","3257","<div style='width: 900px;'>Your choices should be both <b><i>fast and accurate</b></i>. <br><br>You will have <i>4 seconds</i> to make each choice, which should be enough consider the options and click on one of the items.<br><br>","0","","","","","","","","","","","","",""
"html-button-response","121","530664","0.0-30.0","8069","<div style='width: 900px;'>Additionally, on some choice trials you will see the <b><i>no-choice cue</b></i>: <br><br><img src='noS.png'></img> <br><br>This cue means you can't make any choice. You can examine the items, but  can't click on any of them. Just wait patiently for the cue to dissapear.<br><br>","0","","","","","","","","","","","","",""
"image-selector-fb-tut","122","532679","0.0-31.0","null","0232.jpg,0123.jpg","","","","","","","false","null","","","","","",""
"html-button-response","123","543044","0.0-32.0","10364","<div style='width: 900px;'>After each choice the items will remain on the screen and you will see this symbol: <br><br><img src='judgeS.png'></img> <br><br>This means you should rate<b> the magnitude of the difference</b> between the items using a scale: </div><br><div style='width: 900px; '><div style='float: left; width: 50%; margin-right: 2.5em; align-self:left'><img src='heartS.png'></img><p class='small' style = 'text-align: justify;'>Heart cue means you should rate <b>how much you prefer</b> one of the items over the other. Moving the scale indicator to the left means you prefer the left one; moving it to the right - right one. The more you prefer one of them, the more towards that side you should move the scale indicator. </p></div><div class='float: right; width: 50%; margin-left: 2.5em;'><img src='sizeS.png'></img><p class='small' style='text-align: justify'>Size cue means you should rate <b>how much larger</b> is one of the items over the other. Moving the scale indicator to the left means you think the left is larger; moving it to the right - right one. The greater the difference in size, the more towards that side you should move the scale indicator.</div><br>","0","","","","","","","","","","","","",""
"image-slider-2AFC-tut","124","549377","0.0-33.0","6331","","","","58","","","","","","5671","58","","","",""
"image-slider-2AFC-tut","125","556348","0.0-34.0","6969","","","","78","","","","","","6333","78","","","",""
"html-button-response","126","563830","0.0-35.0","7481","<br><br><font size = 36><b> Examples </b></font><br><br><i> 1) I would like to eat some croissants a <b>lot more</b> than doritos right now:</i><br><img src='ex1.PNG', width='62%'></img><br><br><br><i> 2) I would like to eat some doritos a <b>bit more</b> than croissants right now, but just slightly:</i><br><img src='ex2.PNG' width='62%'></img>","0","","","","","","","","","","","","",""
"html-button-response","127","565510","0.0-36.0","1679","<div style='width: 900px;'><i>Now you know everything you need to do the task!</i> <br><br>Let's start by doing a <b>short training</b>, so you'll get used to how it works. </div><br>","0","","","","","","","","","","","","",""
"image-selector-fb","128","568540","0.0-37.0-0.0","null","pics2/SA5.jpg,pics2/SA2.jpg","","","","","","","false","null","","","noS.png","","",""
"image-slider-2AFC","129","573545","0.0-37.0-1.0","null","","","","null","","","","","","","","heartS.png","","",""
"html-keyboard-response","130","574355","0.0-37.0-2.0","null","","","","","","","null","","","","","","","",""
"image-selector-fb","131","577363","0.0-37.1-0.1","null","pics2/VE4.jpg,pics2/FR2.jpg","","","","","","","false","null","","","noS.png","","",""
"image-slider-2AFC","132","582258","0.0-37.1-1.1","4893","","","","49","","","","","","","","sizeS.png","2721","49",""
"html-keyboard-response","133","582960","0.0-37.1-2.1","null","","","","","","","null","","","","","","","",""
"image-selector-fb","134","585990","0.0-37.2-0.2","null","pics2/VE4.jpg,pics2/VE3.jpg","","","","","","","false","null","","","noS.png","","",""
"image-slider-2AFC","135","590004","0.0-37.2-1.2","4011","","","","-40","","","","","","","","heartS.png","3396","-40",""
"html-keyboard-response","136","590762","0.0-37.2-2.2","null","","","","","","","null","","","","","","","",""
"image-selector-fb","137","595266","0.0-37.3-0.3","null","pics2/SA1.jpg,pics2/VE5.jpg","","","","","","","false","null","","","sizeS.png","","",""
"image-slider-2AFC","138","595268","0.0-37.3-1.3","null","","","","null","","","","","","","","sizeS.png","","",""
"html-keyboard-response","139","596086","0.0-37.3-2.3","null","","","","","","","null","","","","","","","",""
"image-selector-fb","140","599322","0.0-37.4-0.4","2731","pics2/VE6.jpg,pics2/VE3.jpg","","","","","","","true","1","","","heartS.png","","",""
"image-slider-2AFC","141","602996","0.0-37.4-1.4","3671","","","","23","","","","","","","","sizeS.png","2968","23",""
"html-keyboard-response","142","603748","0.0-37.4-2.4","null","","","","","","","null","","","","","","","",""
"image-selector-fb","143","606316","0.0-37.5-0.5","2055","pics2/VE6.jpg,pics2/VE5.jpg","","","","","","","true","1","","","sizeS.png","","",""
"image-slider-2AFC","144","610522","0.0-37.5-1.5","4205","","","","37","","","","","","","","heartS.png","3549","37",""
"html-keyboard-response","145","611276","0.0-37.5-2.5","null","","","","","","","null","","","","","","","",""
"image-selector-fb","146","613562","0.0-37.6-0.6","1782","pics2/VE5.jpg,pics2/VE4.jpg","","","","","","","true","1","","","heartS.png","","",""
"image-slider-2AFC","147","618292","0.0-37.6-1.6","4729","","","","27","","","","","","","","sizeS.png","4085","27",""
"html-keyboard-response","148","619045","0.0-37.6-2.6","null","","","","","","","null","","","","","","","",""
"image-selector-fb","149","621025","0.0-37.7-0.7","1475","pics2/SA1.jpg,pics2/VE4.jpg","","","","","","","false","0","","","sizeS.png","","",""
"image-slider-2AFC","150","624450","0.0-37.7-1.7","3423","","","","61","","","","","","","","heartS.png","2651","61",""
"html-keyboard-response","151","625311","0.0-37.7-2.7","null","","","","","","","null","","","","","","","",""
"image-selector-fb","152","628330","0.0-37.8-0.8","null","pics2/SA6.jpg,pics2/VE3.jpg","","","","","","","false","null","","","noS.png","","",""
"image-slider-2AFC","153","633334","0.0-37.8-1.8","null","","","","null","","","","","","","","sizeS.png","","",""
"html-keyboard-response","154","634197","0.0-37.8-2.8","null","","","","","","","null","","","","","","","",""
"image-selector-fb","155","636550","0.0-37.9-0.9","1839","pics2/VE6.jpg,pics2/VE2.jpg","","","","","","","true","1","","","heartS.png","","",""
"image-slider-2AFC","156","641231","0.0-37.9-1.9","4679","","","","29","","","","","","","","heartS.png","3947","29",""
"html-keyboard-response","157","642088","0.0-37.9-2.9","null","","","","","","","null","","","","","","","",""
"image-selector-fb","158","644609","0.0-37.10-0.10","2017","pics2/VE6.jpg,pics2/SA6.jpg","","","","","","","true","1","","","heartS.png","","",""
"image-slider-2AFC","159","649612","0.0-37.10-1.10","null","","","","null","","","","","","","","sizeS.png","3517","52",""
"html-keyboard-response","160","650314","0.0-37.10-2.10","null","","","","","","","null","","","","","","","",""
"image-selector-fb","161","653699","0.0-37.11-0.11","2882","pics2/VE1.jpg,pics2/SA5.jpg","","","","","","","false","0","","","heartS.png","","",""
"image-slider-2AFC","162","656303","0.0-37.11-1.11","2601","","","","31","","","","","","","","sizeS.png","2073","31",""
"html-keyboard-response","163","657172","0.0-37.11-2.11","null","","","","","","","null","","","","","","","",""
"html-button-response","164","659129","0.0-38.0","1956","<i><font size=10>Good job!</font></i> <br><br>Before we begin, you have a chance to review the rules, in case something was not clear.<br><br>","0","","","","","","","","","","","","",""
"instructions","165","678407","0.0-39.0","19278","","","","","","","","","","","","","","","[{""page_index"":0,""viewing_time"":5561},{""page_index"":1,""viewing_time"":3456},{""page_index"":2,""viewing_time"":10260}]"
"html-button-response","166","682914","0.0-40.0","4507","<div style='width: 900px;'> <font size='40'>Great! Now you're ready to begin</font><br><br>The main part of the experiment will consist of <u>3 blocks</u>. Each block consists of 66 decisions and judgements. You will have time for a short break between blocks.<br><br><br><i><u>Do your best to respond within the time limit.</u></i><br><br><i> Press the button to start the experiment<br><br></i>","0","","","","","","","","","","","","",""
"image-selector-fb","167","685935","0.0-41.0-0.0","null","pics2/FR4.jpg,pics2/FR1.jpg","","","","","","","false","null","","","noS.png","","",""
"image-slider-2AFC","168","690939","0.0-41.0-1.0","null","","","","null","","","","","","","","sizeS.png","4324","29",""
"html-keyboard-response","169","691804","0.0-41.0-2.0","null","","","","","","","null","","","","","","","",""
"image-selector-fb","170","695600","0.0-41.1-0.1","3291","pics2/SW1.jpg,pics2/SW4.jpg","","","","","","","false","0","","","sizeS.png","","",""
"image-slider-2AFC","171","699222","0.0-41.1-1.1","3620","","","","73","","","","","","","","heartS.png","2780","73",""
"html-keyboard-response","172","699985","0.0-41.1-2.1","null","","","","","","","null","","","","","","","",""
"image-selector-fb","173","703005","0.0-41.2-0.2","null","pics2/FR6.jpg,pics2/SW4.jpg","","","","","","","false","null","","","noS.png","","",""
"image-slider-2AFC","174","708018","0.0-41.2-1.2","null","","","","null","","","","","","","","heartS.png","","",""
"html-keyboard-response","175","708871","0.0-41.2-2.2","null","","","","","","","null","","","","","","","",""
"image-selector-fb","176","712092","0.0-41.3-0.3","2718","pics2/SW6.jpg,pics2/SW4.jpg","","","","","","","true","1","","","heartS.png","","",""
"image-slider-2AFC","177","715121","0.0-41.3-1.3","3025","","","","30","","","","","","","","heartS.png","2187","30",""
"html-keyboard-response","178","715987","0.0-41.3-2.3","null","","","","","","","null","","","","","","","",""
"image-selector-fb","179","720062","0.0-41.4-0.4","3572","pics2/FR6.jpg,pics2/FR5.jpg","","","","","","","true","1","","","sizeS.png","","",""
"image-slider-2AFC","180","725077","0.0-41.4-1.4","null","","","","null","","","","","","","","heartS.png","4479","5",""
"html-keyboard-response","181","725789","0.0-41.4-2.4","null","","","","","","","null","","","","","","","",""
"image-selector-fb","182","728524","0.0-41.5-0.5","2219","pics2/FR4.jpg,pics2/SW2.jpg","","","","","","","true","1","","","sizeS.png","","",""
"image-slider-2AFC","183","731877","0.0-41.5-1.5","3353","","","","86","","","","","","","","heartS.png","2477","86",""
"html-keyboard-response","184","732682","0.0-41.5-2.5","null","","","","","","","null","","","","","","","",""
"image-selector-fb","185","736889","0.0-41.6-0.6","3702","pics2/FR1.jpg,pics2/FR4.jpg","","","","","","","false","0","","","sizeS.png","","",""
"image-slider-2AFC","186","741707","0.0-41.6-1.6","4815","","","","43","","","","","","","","sizeS.png","4115","43",""
"html-keyboard-response","187","742560","0.0-41.6-2.6","null","","","","","","","null","","","","","","","",""
"image-selector-fb","188","746066","0.0-41.7-0.7","3002","pics2/FR3.jpg,pics2/SA4.jpg","","","","","","","false","0","","","sizeS.png","","",""
"image-slider-2AFC","189","750021","0.0-41.7-1.7","3953","","","","23","","","","","","","","heartS.png","3433","23",""
"html-keyboard-response","190","750827","0.0-41.7-2.7","null","","","","","","","null","","","","","","","",""
"image-selector-fb","191","754277","0.0-41.8-0.8","2946","pics2/FR6.jpg,pics2/SW6.jpg","","","","","","","false","0","","","sizeS.png","","",""
"image-slider-2AFC","192","758526","0.0-41.8-1.8","4247","","","","-56","","","","","","","","sizeS.png","2308,3388","4,-56",""
"html-keyboard-response","193","759227","0.0-41.8-2.8","null","","","","","","","null","","","","","","","",""
"image-selector-fb","194","762257","0.0-41.9-0.9","null","pics2/FR3.jpg,pics2/SA4.jpg","","","","","","","false","null","","","noS.png","","",""
"image-slider-2AFC","195","767261","0.0-41.9-1.9","null","","","","null","","","","","","","","sizeS.png","","",""
"html-keyboard-response","196","768020","0.0-41.9-2.9","null","","","","","","","null","","","","","","","",""
"image-selector-fb","197","771042","0.0-41.10-0.10","null","pics2/SW6.jpg,pics2/FR5.jpg","","","","","","","false","null","","","noS.png","","",""
"image-slider-2AFC","198","775273","0.0-41.10-1.10","4227","","","","33","","","","","","","","sizeS.png","3219","33",""
"html-keyboard-response","199","776026","0.0-41.10-2.10","null","","","","","","","null","","","","","","","",""
"image-selector-fb","200","778330","0.0-41.11-0.11","1799","pics2/SW6.jpg,pics2/SW3.jpg","","","","","","","true","1","","","heartS.png","","",""
"image-slider-2AFC","201","781415","0.0-41.11-1.11","3083","","","","-45","","","","","","","","heartS.png","2383","-45",""
"html-keyboard-response","202","782267","0.0-41.11-2.11","null","","","","","","","null","","","","","","","",""
"image-selector-fb","203","785971","0.0-41.12-0.12","3201","pics2/FR1.jpg,pics2/FR5.jpg","","","","","","","true","1","","","sizeS.png","","",""
"image-slider-2AFC","204","790072","0.0-41.12-1.12","4098","","","","-91","","","","","","","","heartS.png","3422","-91",""
"html-keyboard-response","205","790780","0.0-41.12-2.12","null","","","","","","","null","","","","","","","",""
"image-selector-fb","206","793182","0.0-41.13-0.13","1897","pics2/SW5.jpg,pics2/SW3.jpg","","","","","","","true","1","","","heartS.png","","",""
"image-slider-2AFC","207","796392","0.0-41.13-1.13","3209","","","","-37","","","","","","","","heartS.png","2392","-37",""
"html-keyboard-response","208","797245","0.0-41.13-2.13","null","","","","","","","null","","","","","","","",""
"image-selector-fb","209","799764","0.0-41.14-0.14","2015","pics2/SW6.jpg,pics2/FR5.jpg","","","","","","","false","0","","","heartS.png","","",""
"image-slider-2AFC","210","804766","0.0-41.14-1.14","null","","","","null","","","","","","","","sizeS.png","","",""
"html-keyboard-response","211","805569","0.0-41.14-2.14","null","","","","","","","null","","","","","","","",""
"image-selector-fb","212","808718","0.0-41.15-0.15","2645","pics2/FR4.jpg,pics2/SW5.jpg","","","","","","","true","1","","","sizeS.png","","",""
"image-slider-2AFC","213","811739","0.0-41.15-1.15","3019","","","","-82","","","","","","","","sizeS.png","2131","-82",""
"html-keyboard-response","214","812599","0.0-41.15-2.15","null","","","","","","","null","","","","","","","",""
"image-selector-fb","215","815348","0.0-41.16-0.16","2245","pics2/SW1.jpg,pics2/SA4.jpg","","","","","","","false","0","","","sizeS.png","","",""
"image-slider-2AFC","216","817912","0.0-41.16-1.16","2562","","","","-22","","","","","","","","sizeS.png","1934","-22",""
"html-keyboard-response","217","818614","0.0-41.16-2.16","null","","","","","","","null","","","","","","","",""
"image-selector-fb","218","820947","0.0-41.17-0.17","1828","pics2/SW3.jpg,pics2/FR6.jpg","","","","","","","false","0","","","heartS.png","","",""
"image-slider-2AFC","219","824734","0.0-41.17-1.17","3785","","","","86","","","","","","","","heartS.png","2885","86",""
"html-keyboard-response","220","825498","0.0-41.17-2.17","null","","","","","","","null","","","","","","","",""
"image-selector-fb","221","828525","0.0-41.18-0.18","null","pics2/FR1.jpg,pics2/SW4.jpg","","","","","","","false","null","","","noS.png","","",""
"image-slider-2AFC","222","833540","0.0-41.18-1.18","null","","","","null","","","","","","","","heartS.png","4240","99",""
"html-keyboard-response","223","834353","0.0-41.18-2.18","null","","","","","","","null","","","","","","","",""
"image-selector-fb","224","837372","0.0-41.19-0.19","null","pics2/FR6.jpg,pics2/FR1.jpg","","","","","","","false","null","","","noS.png","","",""
"image-slider-2AFC","225","842376","0.0-41.19-1.19","null","","","","null","","","","","","","","heartS.png","","",""
"html-keyboard-response","226","843078","0.0-41.19-2.19","null","","","","","","","null","","","","","","","",""
"image-selector-fb","227","845612","0.0-41.20-0.20","2023","pics2/SW2.jpg,pics2/SW6.jpg","","","","","","","false","0","","","sizeS.png","","",""
"image-slider-2AFC","228","848605","0.0-41.20-1.20","2990","","","","49","","","","","","","","sizeS.png","2521","49",""
"html-keyboard-response","229","849480","0.0-41.20-2.20","null","","","","","","","null","","","","","","","",""
"image-selector-fb","230","852503","0.0-41.21-0.21","null","pics2/SW2.jpg,pics2/SW1.jpg","","","","","","","false","null","","","noS.png","","",""
"image-slider-2AFC","231","856735","0.0-41.21-1.21","4228","","","","-76","","","","","","","","sizeS.png","3488","-76",""
"html-keyboard-response","232","857551","0.0-41.21-2.21","null","","","","","","","null","","","","","","","",""
"image-selector-fb","233","859993","0.0-41.22-0.22","1938","pics2/SW5.jpg,pics2/SW2.jpg","","","","","","","true","1","","","heartS.png","","",""
"image-slider-2AFC","234","862625","0.0-41.22-1.22","2630","","","","-37","","","","","","","","heartS.png","1830","-37",""
"html-keyboard-response","235","863377","0.0-41.22-2.22","null","","","","","","","null","","","","","","","",""
"image-selector-fb","236","865306","0.0-41.23-0.23","1426","pics2/SW6.jpg,pics2/SW1.jpg","","","","","","","true","1","","","heartS.png","","",""
"image-slider-2AFC","237","867802","0.0-41.23-1.23","2494","","","","51","","","","","","","","sizeS.png","1970","51",""
"html-keyboard-response","238","868617","0.0-41.23-2.23","null","","","","","","","null","","","","","","","",""
"image-selector-fb","239","871742","0.0-41.24-0.24","2615","pics2/FR1.jpg,pics2/FR6.jpg","","","","","","","false","0","","","sizeS.png","","",""
"image-slider-2AFC","240","875405","0.0-41.24-1.24","3661","","","","-89","","","","","","","","heartS.png","2894","-89",""
"html-keyboard-response","241","876108","0.0-41.24-2.24","null","","","","","","","null","","","","","","","",""
"image-selector-fb","242","879113","0.0-41.25-0.25","null","pics2/SW4.jpg,pics2/SW5.jpg","","","","","","","false","null","","","noS.png","","",""
"image-slider-2AFC","243","882947","0.0-41.25-1.25","3832","","","","-24","","","","","","","","heartS.png","3100","-24",""
"html-keyboard-response","244","883800","0.0-41.25-2.25","null","","","","","","","null","","","","","","","",""
"image-selector-fb","245","887248","0.0-41.26-0.26","2945","pics2/FR1.jpg,pics2/SW3.jpg","","","","","","","true","1","","","sizeS.png","","",""
"image-slider-2AFC","246","890484","0.0-41.26-1.26","3234","","","","-96","","","","","","","","sizeS.png","2482","-96",""
"html-keyboard-response","247","891198","0.0-41.26-2.26","null","","","","","","","null","","","","","","","",""
"image-selector-fb","248","894055","0.0-41.27-0.27","2352","pics2/FR4.jpg,pics2/FR5.jpg","","","","","","","true","1","","","sizeS.png","","",""
"image-slider-2AFC","249","897027","0.0-41.27-1.27","2971","","","","-96","","","","","","","","sizeS.png","2071","-96",""
"html-keyboard-response","250","897891","0.0-41.27-2.27","null","","","","","","","null","","","","","","","",""
"image-selector-fb","251","901636","0.0-41.28-0.28","3242","pics2/FR3.jpg,pics2/SW4.jpg","","","","","","","false","0","","","sizeS.png","","",""
"image-slider-2AFC","252","904765","0.0-41.28-1.28","3127","","","","-96","","","","","","","","sizeS.png","2391","-96",""
"html-keyboard-response","253","905616","0.0-41.28-2.28","null","","","","","","","null","","","","","","","",""
"image-selector-fb","254","907655","0.0-41.29-0.29","1531","pics2/FR5.jpg,pics2/SW2.jpg","","","","","","","true","1","","","sizeS.png","","",""
"image-slider-2AFC","255","911787","0.0-41.29-1.29","4129","","","","-58","","","","","","","","sizeS.png","3484","-58",""
"html-keyboard-response","256","912657","0.0-41.29-2.29","null","","","","","","","null","","","","","","","",""
"image-selector-fb","257","915517","0.0-41.30-0.30","2354","pics2/SW4.jpg,pics2/FR4.jpg","","","","","","","false","0","","","sizeS.png","","",""
"image-slider-2AFC","258","919376","0.0-41.30-1.30","3856","","","","59","","","","","","","","heartS.png","3280","59",""
"html-keyboard-response","259","920238","0.0-41.30-2.30","null","","","","","","","null","","","","","","","",""
"image-selector-fb","260","923320","0.0-41.31-0.31","2571","pics2/FR1.jpg,pics2/SW6.jpg","","","","","","","false","0","","","sizeS.png","","",""
"image-slider-2AFC","261","926135","0.0-41.31-1.31","2812","","","","-52","","","","","","","","sizeS.png","2155","-52",""
"html-keyboard-response","262","926845","0.0-41.31-2.31","null","","","","","","","null","","","","","","","",""
"image-selector-fb","263","928804","0.0-41.32-0.32","1455","pics2/FR5.jpg,pics2/SW1.jpg","","","","","","","true","1","","","heartS.png","","",""
"image-slider-2AFC","264","931358","0.0-41.32-1.32","2552","","","","47","","","","","","","","heartS.png","1984","47",""
"html-keyboard-response","265","932211","0.0-41.32-2.32","null","","","","","","","null","","","","","","","",""
"image-selector-fb","266","935222","0.0-41.33-0.33","null","pics2/SW6.jpg,pics2/SW3.jpg","","","","","","","false","null","","","noS.png","","",""
"image-slider-2AFC","267","939380","0.0-41.33-1.33","4155","","","","-26","","","","","","","","heartS.png","3672","-26",""
"html-keyboard-response","268","940145","0.0-41.33-2.33","null","","","","","","","null","","","","","","","",""
"image-selector-fb","269","943080","0.0-41.34-0.34","2432","pics2/SW4.jpg,pics2/SW6.jpg","","","","","","","false","0","","","sizeS.png","","",""
"image-slider-2AFC","270","946394","0.0-41.34-1.34","3311","","","","-39","","","","","","","","heartS.png","2712","-39",""
"html-keyboard-response","271","947209","0.0-41.34-2.34","null","","","","","","","null","","","","","","","",""
"image-selector-fb","272","950225","0.0-41.35-0.35","null","pics2/FR6.jpg,pics2/FR5.jpg","","","","","","","false","null","","","noS.png","","",""
"image-slider-2AFC","273","954806","0.0-41.35-1.35","4579","","","","-70","","","","","","","","sizeS.png","3907","-70",""
"html-keyboard-response","274","955624","0.0-41.35-2.35","null","","","","","","","null","","","","","","","",""
"image-selector-fb","275","958596","0.0-41.36-0.36","2468","pics2/SW1.jpg,pics2/FR4.jpg","","","","","","","false","0","","","sizeS.png","","",""
"image-slider-2AFC","276","960614","0.0-41.36-1.36","2018","","","","62","","","","","","","","heartS.png","1329","62",""
"html-keyboard-response","277","961317","0.0-41.36-2.36","null","","","","","","","null","","","","","","","",""
"image-selector-fb","278","964347","0.0-41.37-0.37","null","pics2/FR1.jpg,pics2/SW3.jpg","","","","","","","false","null","","","noS.png","","",""
"image-slider-2AFC","279","968927","0.0-41.37-1.37","4576","","","","14","","","","","","","","heartS.png","4160","14",""
"html-keyboard-response","280","969780","0.0-41.37-2.37","null","","","","","","","null","","","","","","","",""
"image-selector-fb","281","974067","0.0-41.38-0.38","3778","pics2/FR4.jpg,pics2/FR6.jpg","","","","","","","false","0","","","heartS.png","","",""
"image-slider-2AFC","282","979070","0.0-41.38-1.38","null","","","","null","","","","","","","","sizeS.png","4559","18",""
"html-keyboard-response","283","979776","0.0-41.38-2.38","null","","","","","","","null","","","","","","","",""
"image-selector-fb","284","982909","0.0-41.39-0.39","2630","pics2/FR3.jpg,pics2/FR4.jpg","","","","","","","false","0","","","sizeS.png","","",""
"image-slider-2AFC","285","986214","0.0-41.39-1.39","3302","","","","-74","","","","","","","","sizeS.png","2543","-74",""
"html-keyboard-response","286","987032","0.0-41.39-2.39","null","","","","","","","null","","","","","","","",""
"image-selector-fb","287","989331","0.0-41.40-0.40","1796","pics2/SA4.jpg,pics2/FR4.jpg","","","","","","","true","1","","","sizeS.png","","",""
"image-slider-2AFC","288","993057","0.0-41.40-1.40","3723","","","","-54","","","","","","","","heartS.png","2843","-54",""
"html-keyboard-response","289","993761","0.0-41.40-2.40","null","","","","","","","null","","","","","","","",""
"image-selector-fb","290","996789","0.0-41.41-0.41","null","pics2/FR4.jpg,pics2/SW3.jpg","","","","","","","false","null","","","noS.png","","",""
"image-slider-2AFC","291","1001642","0.0-41.41-1.41","4851","","","","-60","","","","","","","","sizeS.png","4087","-60",""
"html-keyboard-response","292","1002402","0.0-41.41-2.41","null","","","","","","","null","","","","","","","",""
"image-selector-fb","293","1005853","0.0-41.42-0.42","2947","pics2/SW1.jpg,pics2/SW3.jpg","","","","","","","false","0","","","sizeS.png","","",""
"image-slider-2AFC","294","1009896","0.0-41.42-1.42","4041","","","","-32","","","","","","","","heartS.png","3570","-32",""
"html-keyboard-response","295","1010647","0.0-41.42-2.42","null","","","","","","","null","","","","","","","",""
"image-selector-fb","296","1013673","0.0-41.43-0.43","null","pics2/FR6.jpg,pics2/SW1.jpg","","","","","","","false","null","","","noS.png","","",""
"image-slider-2AFC","297","1017431","0.0-41.43-1.43","3754","","","","-10","","","","","","","","sizeS.png","3258","-10",""
"html-keyboard-response","298","1018234","0.0-41.43-2.43","null","","","","","","","null","","","","","","","",""
"image-selector-fb","299","1020456","0.0-41.44-0.44","1704","pics2/SW1.jpg,pics2/FR1.jpg","","","","","","","false","0","","","heartS.png","","",""
"image-slider-2AFC","300","1024116","0.0-41.44-1.44","3657","","","","-63","","","","","","","","sizeS.png","3062","-63",""
"html-keyboard-response","301","1024918","0.0-41.44-2.44","null","","","","","","","null","","","","","","","",""
"image-selector-fb","302","1027171","0.0-41.45-0.45","1749","pics2/SW3.jpg,pics2/SW1.jpg","","","","","","","true","1","","","heartS.png","","",""
"image-slider-2AFC","303","1030614","0.0-41.45-1.45","3441","","","","-24","","","","","","","","heartS.png","2758","-24",""
"html-keyboard-response","304","1031317","0.0-41.45-2.45","null","","","","","","","null","","","","","","","",""
"image-selector-fb","305","1033484","0.0-41.46-0.46","1662","pics2/SW3.jpg,pics2/SW5.jpg","","","","","","","false","0","","","sizeS.png","","",""
"image-slider-2AFC","306","1038388","0.0-41.46-1.46","4902","","","","-19","","","","","","","","heartS.png","4462","-19",""
"html-keyboard-response","307","1039254","0.0-41.46-2.46","null","","","","","","","null","","","","","","","",""
"image-selector-fb","308","1041337","0.0-41.47-0.47","1580","pics2/FR6.jpg,pics2/FR4.jpg","","","","","","","true","1","","","sizeS.png","","",""
"image-slider-2AFC","309","1045418","0.0-41.47-1.47","4079","","","","-17","","","","","","","","sizeS.png","3272","-17",""
"html-keyboard-response","310","1046121","0.0-41.47-2.47","null","","","","","","","null","","","","","","","",""
"image-selector-fb","311","1049082","0.0-41.48-0.48","2457","pics2/FR1.jpg,pics2/SW4.jpg","","","","","","","false","0","","","sizeS.png","","",""
"image-slider-2AFC","312","1052980","0.0-41.48-1.48","3897","","","","59","","","","","","","","sizeS.png","3225","59",""
"html-keyboard-response","313","1053786","0.0-41.48-2.48","null","","","","","","","null","","","","","","","",""
"image-selector-fb","314","1056815","0.0-41.49-0.49","null","pics2/FR1.jpg,pics2/SA4.jpg","","","","","","","false","null","","","noS.png","","",""
"image-slider-2AFC","315","1061821","0.0-41.49-1.49","null","","","","null","","","","","","","","heartS.png","","",""
"html-keyboard-response","316","1062524","0.0-41.49-2.49","null","","","","","","","null","","","","","","","",""
"image-selector-fb","317","1065962","0.0-41.50-0.50","2933","pics2/SW4.jpg,pics2/SW3.jpg","","","","","","","true","1","","","sizeS.png","","",""
"image-slider-2AFC","318","1069524","0.0-41.50-1.50","3560","","","","-36","","","","","","","","heartS.png","2752","-36",""
"html-keyboard-response","319","1070277","0.0-41.50-2.50","null","","","","","","","null","","","","","","","",""
"image-selector-fb","320","1072707","0.0-41.51-0.51","1926","pics2/FR6.jpg,pics2/FR1.jpg","","","","","","","true","1","","","heartS.png","","",""
"image-slider-2AFC","321","1076325","0.0-41.51-1.51","3617","","","","-86","","","","","","","","heartS.png","2866","-86",""
"html-keyboard-response","322","1077078","0.0-41.51-2.51","null","","","","","","","null","","","","","","","",""
"image-selector-fb","323","1081585","0.0-41.52-0.52","null","pics2/FR4.jpg,pics2/FR3.jpg","","","","","","","false","null","","","heartS.png","","",""
"image-slider-2AFC","324","1081587","0.0-41.52-1.52","null","","","","null","","","","","","","","heartS.png","","",""
"html-keyboard-response","325","1082401","0.0-41.52-2.52","null","","","","","","","null","","","","","","","",""
"image-selector-fb","326","1085549","0.0-41.53-0.53","2638","pics2/FR4.jpg,pics2/SW1.jpg","","","","","","","true","1","","","heartS.png","","",""
"image-slider-2AFC","327","1087981","0.0-41.53-1.53","2430","","","","67","","","","","","","","sizeS.png","1707","67",""
"html-keyboard-response","328","1088696","0.0-41.53-2.53","null","","","","","","","null","","","","","","","",""
"image-selector-fb","329","1090983","0.0-41.54-0.54","1784","pics2/FR4.jpg,pics2/SW4.jpg","","","","","","","true","1","","","heartS.png","","",""
"image-slider-2AFC","330","1095256","0.0-41.54-1.54","4271","","","","64","","","","","","","","heartS.png","3616","64",""
"html-keyboard-response","331","1096117","0.0-41.54-2.54","null","","","","","","","null","","","","","","","",""
"image-selector-fb","332","1099115","0.0-41.55-0.55","2493","pics2/FR1.jpg,pics2/SW2.jpg","","","","","","","true","1","","","sizeS.png","","",""
"image-slider-2AFC","333","1103511","0.0-41.55-1.55","4394","","","","-12","","","","","","","","sizeS.png","3989","-12",""
"html-keyboard-response","334","1104212","0.0-41.55-2.55","null","","","","","","","null","","","","","","","",""
"image-selector-fb","335","1107663","0.0-41.56-0.56","2946","pics2/FR3.jpg,pics2/SW5.jpg","","","","","","","false","0","","","sizeS.png","","",""
"image-slider-2AFC","336","1110848","0.0-41.56-1.56","3185","","","","35","","","","","","","","heartS.png","2525","35",""
"html-keyboard-response","337","1111601","0.0-41.56-2.56","null","","","","","","","null","","","","","","","",""
"image-selector-fb","338","1114539","0.0-41.57-0.57","2435","pics2/FR4.jpg,pics2/FR1.jpg","","","","","","","true","1","","","heartS.png","","",""
"image-slider-2AFC","339","1119541","0.0-41.57-1.57","null","","","","null","","","","","","","","sizeS.png","","",""
"html-keyboard-response","340","1120258","0.0-41.57-2.57","null","","","","","","","null","","","","","","","",""
"image-selector-fb","341","1123351","0.0-41.58-0.58","2585","pics2/SA4.jpg,pics2/FR1.jpg","","","","","","","false","0","","","heartS.png","","",""
"image-slider-2AFC","342","1127808","0.0-41.58-1.58","4455","","","","-27","","","","","","","","sizeS.png","3775","-27",""
"html-keyboard-response","343","1128610","0.0-41.58-2.58","null","","","","","","","null","","","","","","","",""
"image-selector-fb","344","1131552","0.0-41.59-0.59","2437","pics2/FR4.jpg,pics2/SA4.jpg","","","","","","","true","1","","","heartS.png","","",""
"image-slider-2AFC","345","1134874","0.0-41.59-1.59","3320","","","","-18","","","","","","","","sizeS.png","2844","-18",""
"html-keyboard-response","346","1135726","0.0-41.59-2.59","null","","","","","","","null","","","","","","","",""
"image-selector-fb","347","1139030","0.0-41.60-0.60","2799","pics2/SW2.jpg,pics2/SW4.jpg","","","","","","","true","1","","","heartS.png","","",""
"image-slider-2AFC","348","1143090","0.0-41.60-1.60","4059","","","","-64","","","","","","","","sizeS.png","3449","-64",""
"html-keyboard-response","349","1143943","0.0-41.60-2.60","null","","","","","","","null","","","","","","","",""
"image-selector-fb","350","1146576","0.0-41.61-0.61","2129","pics2/FR5.jpg,pics2/FR3.jpg","","","","","","","true","1","","","heartS.png","","",""
"image-slider-2AFC","351","1150048","0.0-41.61-1.61","3470","","","","-78","","","","","","","","sizeS.png","2637","-78",""
"html-keyboard-response","352","1150912","0.0-41.61-2.61","null","","","","","","","null","","","","","","","",""
"image-selector-fb","353","1153818","0.0-41.62-0.62","2402","pics2/SW2.jpg,pics2/FR6.jpg","","","","","","","false","0","","","heartS.png","","",""
"image-slider-2AFC","354","1157314","0.0-41.62-1.62","3496","","","","83","","","","","","","","heartS.png","2818","83",""
"html-keyboard-response","355","1158116","0.0-41.62-2.62","null","","","","","","","null","","","","","","","",""
"image-selector-fb","356","1161763","0.0-41.63-0.63","3137","pics2/SW3.jpg,pics2/SA4.jpg","","","","","","","false","0","","","sizeS.png","","",""
"image-slider-2AFC","357","1165784","0.0-41.63-1.63","4019","","","","22","","","","","","","","heartS.png","3583","22",""
"html-keyboard-response","358","1166539","0.0-41.63-2.63","null","","","","","","","null","","","","","","","",""
"image-selector-fb","359","1169316","0.0-41.64-0.64","2262","pics2/FR3.jpg,pics2/FR1.jpg","","","","","","","false","0","","","heartS.png","","",""
"image-slider-2AFC","360","1172530","0.0-41.64-1.64","3212","","","","-72","","","","","","","","heartS.png","2396","-72",""
"html-keyboard-response","361","1173296","0.0-41.64-2.64","null","","","","","","","null","","","","","","","",""
"image-selector-fb","362","1176326","0.0-41.65-0.65","null","pics2/SW2.jpg,pics2/FR5.jpg","","","","","","","false","null","","","noS.png","","",""
"image-slider-2AFC","363","1180512","0.0-41.65-1.65","4183","","","","-37","","","","","","","","sizeS.png","3660","-37",""
"html-keyboard-response","364","1181319","0.0-41.65-2.65","null","","","","","","","null","","","","","","","",""
"pavlovia","365","1181330","0.0-42.0","","","","","","","","","","","","","","","",""
"html-keyboard-response","366","1186344","0.0-43.0","null","<div style='width: 700px;'> <font size=6><b>SHORT BREAK</font></b><br><br><i> Please wait 5 seconds to continue</i></div> ","","","","","","null","","","","","","","",""
"pavlovia","367","1186346","0.0-44.0","","","","","","","","","","","","","","","",""
"html-button-response","368","1192682","0.0-45.0","6336","<div style='width: 700px;'> <font size=6><b>BLOCK 2</font></b><br><br>Press the button whenever you feel ready to start the second block (there are 3 in total)</div>","0","","","","","","","","","","","","",""
"image-selector-fb","369","1195105","0.0-46.0-0.0","1909","pics2/SW1.jpg,pics2/FR3.jpg","","","","","","","false","0","","","heartS.png","","",""
"image-slider-2AFC","370","1199820","0.0-46.0-1.0","4714","","","","-40","","","","","","","","heartS.png","4170","-40",""
"html-keyboard-response","371","1200523","0.0-46.0-2.0","null","","","","","","","null","","","","","","","",""
"image-selector-fb","372","1203776","0.0-46.1-0.1","2749","pics2/SW2.jpg,pics2/SW5.jpg","","","","","","","false","0","","","sizeS.png","","",""
"image-slider-2AFC","373","1207026","0.0-46.1-1.1","3249","","","","-14","","","","","","","","heartS.png","2520","-14",""
"html-keyboard-response","374","1207833","0.0-46.1-2.1","null","","","","","","","null","","","","","","","",""
"image-selector-fb","375","1210840","0.0-46.2-0.2","null","pics2/SW2.jpg,pics2/FR1.jpg","","","","","","","false","null","","","noS.png","","",""
"image-slider-2AFC","376","1215844","0.0-46.2-1.2","null","","","","null","","","","","","","","heartS.png","4499","70",""
"html-keyboard-response","377","1216545","0.0-46.2-2.2","null","","","","","","","null","","","","","","","",""
"image-selector-fb","378","1219909","0.0-46.3-0.3","2850","pics2/SW3.jpg,pics2/SW6.jpg","","","","","","","false","0","","","sizeS.png","","",""
"image-slider-2AFC","379","1223117","0.0-46.3-1.3","3205","","","","-12","","","","","","","","sizeS.png","1939","-12",""
"html-keyboard-response","380","1223920","0.0-46.3-2.3","null","","","","","","","null","","","","","","","",""
"image-selector-fb","381","1227427","0.0-46.4-0.4","3002","pics2/FR6.jpg,pics2/SW3.jpg","","","","","","","true","1","","","sizeS.png","","",""
"image-slider-2AFC","382","1230907","0.0-46.4-1.4","3478","","","","-45","","","","","","","","sizeS.png","2849","-45",""
"html-keyboard-response","383","1231662","0.0-46.4-2.4","null","","","","","","","null","","","","","","","",""
"image-selector-fb","384","1234383","0.0-46.5-0.5","2218","pics2/FR5.jpg,pics2/SW6.jpg","","","","","","","false","0","","","sizeS.png","","",""
"image-slider-2AFC","385","1237692","0.0-46.5-1.5","3308","","","","-65","","","","","","","","sizeS.png","2569","-65",""
"html-keyboard-response","386","1238422","0.0-46.5-2.5","null","","","","","","","null","","","","","","","",""
"image-selector-fb","387","1241447","0.0-46.6-0.6","null","pics2/SW2.jpg,pics2/SW5.jpg","","","","","","","false","null","","","noS.png","","",""
"image-slider-2AFC","388","1245723","0.0-46.6-1.6","4274","","","","-31","","","","","","","","sizeS.png","3753","-31",""
"html-keyboard-response","389","1246475","0.0-46.6-2.6","null","","","","","","","null","","","","","","","",""
"image-selector-fb","390","1250844","0.0-46.7-0.7","3867","pics2/SW5.jpg,pics2/SA4.jpg","","","","","","","false","0","","","heartS.png","","",""
"image-slider-2AFC","391","1254656","0.0-46.7-1.7","3810","","","","-18","","","","","","","","sizeS.png","3327","-18",""
"html-keyboard-response","392","1255409","0.0-46.7-2.7","null","","","","","","","null","","","","","","","",""
"image-selector-fb","393","1258431","0.0-46.8-0.8","null","pics2/SW1.jpg,pics2/SA4.jpg","","","","","","","false","null","","","noS.png","","",""
"image-slider-2AFC","394","1262546","0.0-46.8-1.8","4113","","","","17","","","","","","","","sizeS.png","3490","17",""
"html-keyboard-response","395","1263247","0.0-46.8-2.8","null","","","","","","","null","","","","","","","",""
"image-selector-fb","396","1266253","0.0-46.9-0.9","null","pics2/SW4.jpg,pics2/SW3.jpg","","","","","","","false","null","","","noS.png","","",""
"image-slider-2AFC","397","1271208","0.0-46.9-1.9","4953","","","","-44","","","","","","","","sizeS.png","4421","-44",""
"html-keyboard-response","398","1271975","0.0-46.9-2.9","null","","","","","","","null","","","","","","","",""
"image-selector-fb","399","1274336","0.0-46.10-0.10","1856","pics2/FR1.jpg,pics2/SA4.jpg","","","","","","","false","0","","","sizeS.png","","",""
"image-slider-2AFC","400","1278574","0.0-46.10-1.10","4235","","","","-61","","","","","","","","heartS.png","3599","-61",""
"html-keyboard-response","401","1279426","0.0-46.10-2.10","null","","","","","","","null","","","","","","","",""
"image-selector-fb","402","1282442","0.0-46.11-0.11","null","pics2/SW3.jpg,pics2/SA4.jpg","","","","","","","false","null","","","noS.png","","",""
"image-slider-2AFC","403","1286537","0.0-46.11-1.11","4091","","","","15","","","","","","","","heartS.png","3480","15",""
"html-keyboard-response","404","1287247","0.0-46.11-2.11","null","","","","","","","null","","","","","","","",""
"image-selector-fb","405","1290264","0.0-46.12-0.12","null","pics2/FR1.jpg,pics2/SW5.jpg","","","","","","","false","null","","","noS.png","","",""
"image-slider-2AFC","406","1294855","0.0-46.12-1.12","4588","","","","-76","","","","","","","","sizeS.png","3516","-76",""
"html-keyboard-response","407","1295666","0.0-46.12-2.12","null","","","","","","","null","","","","","","","",""
"image-selector-fb","408","1297978","0.0-46.13-0.13","1808","pics2/SW5.jpg,pics2/FR5.jpg","","","","","","","false","0","","","heartS.png","","",""
"image-slider-2AFC","409","1302992","0.0-46.13-1.13","null","","","","null","","","","","","","","sizeS.png","4526","-27",""
"html-keyboard-response","410","1303795","0.0-46.13-2.13","null","","","","","","","null","","","","","","","",""
"image-selector-fb","411","1306419","0.0-46.14-0.14","2120","pics2/SW5.jpg,pics2/SW6.jpg","","","","","","","false","0","","","sizeS.png","","",""
"image-slider-2AFC","412","1310108","0.0-46.14-1.14","3688","","","","-81","","","","","","","","heartS.png","3054","-81",""
"html-keyboard-response","413","1310910","0.0-46.14-2.14","null","","","","","","","null","","","","","","","",""
"image-selector-fb","414","1313782","0.0-46.15-0.15","2368","pics2/SW4.jpg,pics2/SW1.jpg","","","","","","","true","1","","","heartS.png","","",""
"image-slider-2AFC","415","1318050","0.0-46.15-1.15","4266","","","","-80","","","","","","","","sizeS.png","3469","-80",""
"html-keyboard-response","416","1318763","0.0-46.15-2.15","null","","","","","","","null","","","","","","","",""
"image-selector-fb","417","1321411","0.0-46.16-0.16","2144","pics2/SW6.jpg,pics2/SA4.jpg","","","","","","","false","0","","","heartS.png","","",""
"image-slider-2AFC","418","1325468","0.0-46.16-1.16","4053","","","","-58","","","","","","","","sizeS.png","3577","-58",""
"html-keyboard-response","419","1326170","0.0-46.16-2.16","null","","","","","","","null","","","","","","","",""
"image-selector-fb","420","1329185","0.0-46.17-0.17","2511","pics2/SW6.jpg,pics2/FR1.jpg","","","","","","","false","0","","","heartS.png","","",""
"image-slider-2AFC","421","1334188","0.0-46.17-1.17","null","","","","null","","","","","","","","sizeS.png","","",""
"html-keyboard-response","422","1334940","0.0-46.17-2.17","null","","","","","","","null","","","","","","","",""
"image-selector-fb","423","1337972","0.0-46.18-0.18","null","pics2/FR5.jpg,pics2/SW5.jpg","","","","","","","false","null","","","noS.png","","",""
"image-slider-2AFC","424","1342024","0.0-46.18-1.18","4050","","","","-62","","","","","","","","sizeS.png","3366","-62",""
"html-keyboard-response","425","1342742","0.0-46.18-2.18","null","","","","","","","null","","","","","","","",""
"image-selector-fb","426","1345745","0.0-46.19-0.19","2500","pics2/SW6.jpg,pics2/SW5.jpg","","","","","","","true","1","","","heartS.png","","",""
"image-slider-2AFC","427","1348954","0.0-46.19-1.19","3206","","","","-28","","","","","","","","sizeS.png","2626","-28",""
"html-keyboard-response","428","1349656","0.0-46.19-2.19","null","","","","","","","null","","","","","","","",""
"image-selector-fb","429","1352684","0.0-46.20-0.20","null","pics2/FR4.jpg,pics2/SA4.jpg","","","","","","","false","null","","","noS.png","","",""
"image-slider-2AFC","430","1356877","0.0-46.20-1.20","4190","","","","-57","","","","","","","","sizeS.png","3502","-57",""
"html-keyboard-response","431","1357736","0.0-46.20-2.20","null","","","","","","","null","","","","","","","",""
"image-selector-fb","432","1360944","0.0-46.21-0.21","2704","pics2/SW6.jpg,pics2/FR6.jpg","","","","","","","false","0","","","heartS.png","","",""
"image-slider-2AFC","433","1364626","0.0-46.21-1.21","3681","","","","-80","","","","","","","","sizeS.png","2833","-80",""
"html-keyboard-response","434","1365378","0.0-46.21-2.21","null","","","","","","","null","","","","","","","",""
"image-selector-fb","435","1369654","0.0-46.22-0.22","3772","pics2/SW3.jpg,pics2/FR4.jpg","","","","","","","false","0","","","sizeS.png","","",""
"image-slider-2AFC","436","1373528","0.0-46.22-1.22","3873","","","","-70","","","","","","","","sizeS.png","3185","-70",""
"html-keyboard-response","437","1374231","0.0-46.22-2.22","null","","","","","","","null","","","","","","","",""
"image-selector-fb","438","1377787","0.0-46.23-0.23","3044","pics2/SW4.jpg,pics2/FR6.jpg","","","","","","","false","0","","","sizeS.png","","",""
"image-slider-2AFC","439","1380354","0.0-46.23-1.23","2566","","","","-73","","","","","","","","sizeS.png","1802","-73",""
"html-keyboard-response","440","1381158","0.0-46.23-2.23","null","","","","","","","null","","","","","","","",""
"image-selector-fb","441","1385669","0.0-46.24-0.24","null","pics2/FR4.jpg,pics2/SW6.jpg","","","","","","","false","null","","","sizeS.png","","",""
"image-slider-2AFC","442","1385670","0.0-46.24-1.24","null","","","","null","","","","","","","","heartS.png","","",""
"html-keyboard-response","443","1386447","0.0-46.24-2.24","null","","","","","","","null","","","","","","","",""
"image-selector-fb","444","1388905","0.0-46.25-0.25","1955","pics2/SA4.jpg,pics2/SW3.jpg","","","","","","","true","1","","","heartS.png","","",""
"image-slider-2AFC","445","1392698","0.0-46.25-1.25","3792","","","","40","","","","","","","","heartS.png","3098","40",""
"html-keyboard-response","446","1393559","0.0-46.25-2.25","null","","","","","","","null","","","","","","","",""
"image-selector-fb","447","1395667","0.0-46.26-0.26","1604","pics2/SW1.jpg,pics2/FR5.jpg","","","","","","","false","0","","","sizeS.png","","",""
"image-slider-2AFC","448","1397972","0.0-46.26-1.26","2302","","","","-10","","","","","","","","sizeS.png","1738","-10",""
"html-keyboard-response","449","1398740","0.0-46.26-2.26","null","","","","","","","null","","","","","","","",""
"image-selector-fb","450","1401070","0.0-46.27-0.27","1822","pics2/SW5.jpg,pics2/SW4.jpg","","","","","","","true","1","","","heartS.png","","",""
"image-slider-2AFC","451","1404710","0.0-46.27-1.27","3638","","","","16","","","","","","","","heartS.png","3013","16",""
"html-keyboard-response","452","1405412","0.0-46.27-2.27","null","","","","","","","null","","","","","","","",""
"image-selector-fb","453","1408776","0.0-46.28-0.28","2860","pics2/FR5.jpg,pics2/SW3.jpg","","","","","","","true","1","","","heartS.png","","",""
"image-slider-2AFC","454","1413412","0.0-46.28-1.28","4634","","","","-27","","","","","","","","sizeS.png","4140","-27",""
"html-keyboard-response","455","1414275","0.0-46.28-2.28","null","","","","","","","null","","","","","","","",""
"image-selector-fb","456","1416181","0.0-46.29-0.29","1402","pics2/SA4.jpg,pics2/SW1.jpg","","","","","","","true","1","","","heartS.png","","",""
"image-slider-2AFC","457","1418715","0.0-46.29-1.29","2533","","","","48","","","","","","","","sizeS.png","1901","48",""
"html-keyboard-response","458","1419529","0.0-46.29-2.29","null","","","","","","","null","","","","","","","",""
"image-selector-fb","459","1422190","0.0-46.30-0.30","2142","pics2/SW5.jpg,pics2/SW1.jpg","","","","","","","true","1","","","heartS.png","","",""
"image-slider-2AFC","460","1425231","0.0-46.30-1.30","3039","","","","-30","","","","","","","","sizeS.png","2567","-30",""
"html-keyboard-response","461","1426085","0.0-46.30-2.30","null","","","","","","","null","","","","","","","",""
"image-selector-fb","462","1428442","0.0-46.31-0.31","1855","pics2/SA4.jpg,pics2/SW5.jpg","","","","","","","true","1","","","sizeS.png","","",""
"image-slider-2AFC","463","1430537","0.0-46.31-1.31","2093","","","","-39","","","","","","","","sizeS.png","1425","-39",""
"html-keyboard-response","464","1431289","0.0-46.31-2.31","null","","","","","","","null","","","","","","","",""
"image-selector-fb","465","1434319","0.0-46.32-0.32","2526","pics2/SW3.jpg,pics2/SW4.jpg","","","","","","","true","1","","","heartS.png","","",""
"image-slider-2AFC","466","1439323","0.0-46.32-1.32","null","","","","null","","","","","","","","sizeS.png","4668","-80",""
"html-keyboard-response","467","1440176","0.0-46.32-2.32","null","","","","","","","null","","","","","","","",""
"image-selector-fb","468","1443203","0.0-46.33-0.33","null","pics2/FR3.jpg,pics2/SW3.jpg","","","","","","","false","null","","","noS.png","","",""
"image-slider-2AFC","469","1447136","0.0-46.33-1.33","3931","","","","-90","","","","","","","","sizeS.png","3163","-90",""
"html-keyboard-response","470","1447890","0.0-46.33-2.33","null","","","","","","","null","","","","","","","",""
"image-selector-fb","471","1450744","0.0-46.34-0.34","2351","pics2/FR3.jpg,pics2/SW6.jpg","","","","","","","false","0","","","sizeS.png","","",""
"image-slider-2AFC","472","1453215","0.0-46.34-1.34","2471","","","","-28","","","","","","","","sizeS.png","1978","-28",""
"html-keyboard-response","473","1454068","0.0-46.34-2.34","null","","","","","","","null","","","","","","","",""
"image-selector-fb","474","1457096","0.0-46.35-0.35","null","pics2/SW4.jpg,pics2/FR5.jpg","","","","","","","false","null","","","noS.png","","",""
"image-slider-2AFC","475","1462098","0.0-46.35-1.35","null","","","","null","","","","","","","","heartS.png","4579","85",""
"html-keyboard-response","476","1462867","0.0-46.35-2.35","null","","","","","","","null","","","","","","","",""
"image-selector-fb","477","1465886","0.0-46.36-0.36","null","pics2/SW4.jpg,pics2/SA4.jpg","","","","","","","false","null","","","noS.png","","",""
"image-slider-2AFC","478","1468998","0.0-46.36-1.36","3110","","","","-26","","","","","","","","sizeS.png","2526","-26",""
"html-keyboard-response","479","1469861","0.0-46.36-2.36","null","","","","","","","null","","","","","","","",""
"image-selector-fb","480","1472881","0.0-46.37-0.37","null","pics2/FR4.jpg,pics2/SW1.jpg","","","","","","","false","null","","","noS.png","","",""
"image-slider-2AFC","481","1476053","0.0-46.37-1.37","3168","","","","79","","","","","","","","heartS.png","2505","79",""
"html-keyboard-response","482","1476874","0.0-46.37-2.37","null","","","","","","","null","","","","","","","",""
"image-selector-fb","483","1479277","0.0-46.38-0.38","1893","pics2/SW2.jpg,pics2/SA4.jpg","","","","","","","false","0","","","heartS.png","","",""
"image-slider-2AFC","484","1481819","0.0-46.38-1.38","2539","","","","18","","","","","","","","heartS.png","2060","18",""
"html-keyboard-response","485","1482673","0.0-46.38-2.38","null","","","","","","","null","","","","","","","",""
"image-selector-fb","486","1486231","0.0-46.39-0.39","3055","pics2/FR5.jpg,pics2/FR1.jpg","","","","","","","true","1","","","heartS.png","","",""
"image-slider-2AFC","487","1488665","0.0-46.39-1.39","2432","","","","-96","","","","","","","","heartS.png","1665","-96",""
"html-keyboard-response","488","1489532","0.0-46.39-2.39","null","","","","","","","null","","","","","","","",""
"image-selector-fb","489","1492555","0.0-46.40-0.40","null","pics2/FR3.jpg,pics2/SW1.jpg","","","","","","","false","null","","","noS.png","","",""
"image-slider-2AFC","490","1496127","0.0-46.40-1.40","3568","","","","81","","","","","","","","heartS.png","2421","81",""
"html-keyboard-response","491","1496932","0.0-46.40-2.40","null","","","","","","","null","","","","","","","",""
"image-selector-fb","492","1499961","0.0-46.41-0.41","null","pics2/SW1.jpg,pics2/SW5.jpg","","","","","","","false","null","","","noS.png","","",""
"image-slider-2AFC","493","1503054","0.0-46.41-1.41","3091","","","","29","","","","","","","","heartS.png","2558","29",""
"html-keyboard-response","494","1503864","0.0-46.41-2.41","null","","","","","","","null","","","","","","","",""
"image-selector-fb","495","1506584","0.0-46.42-0.42","2215","pics2/SW4.jpg,pics2/SW2.jpg","","","","","","","true","1","","","sizeS.png","","",""
"image-slider-2AFC","496","1509763","0.0-46.42-1.42","3178","","","","-77","","","","","","","","heartS.png","2494","-77",""
"html-keyboard-response","497","1510541","0.0-46.42-2.42","null","","","","","","","null","","","","","","","",""
"image-selector-fb","498","1513931","0.0-46.43-0.43","2876","pics2/SW1.jpg,pics2/SW5.jpg","","","","","","","false","0","","","sizeS.png","","",""
"image-slider-2AFC","499","1516876","0.0-46.43-1.43","2943","","","","-64","","","","","","","","sizeS.png","2215","-64",""
"html-keyboard-response","500","1517648","0.0-46.43-2.43","null","","","","","","","null","","","","","","","",""
"image-selector-fb","501","1520679","0.0-46.44-0.44","null","pics2/SW2.jpg,pics2/SW6.jpg","","","","","","","false","null","","","noS.png","","",""
"image-slider-2AFC","502","1524266","0.0-46.44-1.44","3585","","","","35","","","","","","","","sizeS.png","2902","35",""
"html-keyboard-response","503","1525019","0.0-46.44-2.44","null","","","","","","","null","","","","","","","",""
"image-selector-fb","504","1527497","0.0-46.45-0.45","1975","pics2/SW3.jpg,pics2/FR1.jpg","","","","","","","false","0","","","heartS.png","","",""
"image-slider-2AFC","505","1531280","0.0-46.45-1.45","3781","","","","-5","","","","","","","","heartS.png","3201","-5",""
"html-keyboard-response","506","1532142","0.0-46.45-2.45","null","","","","","","","null","","","","","","","",""
"image-selector-fb","507","1535171","0.0-46.46-0.46","null","pics2/FR4.jpg,pics2/SW5.jpg","","","","","","","false","null","","","noS.png","","",""
"image-slider-2AFC","508","1538183","0.0-46.46-1.46","3010","","","","59","","","","","","","","heartS.png","2365","59",""
"html-keyboard-response","509","1538995","0.0-46.46-2.46","null","","","","","","","null","","","","","","","",""
"image-selector-fb","510","1541657","0.0-46.47-0.47","2157","pics2/FR5.jpg,pics2/FR4.jpg","","","","","","","true","1","","","heartS.png","","",""
"image-slider-2AFC","511","1545217","0.0-46.47-1.47","3557","","","","-48","","","","","","","","sizeS.png","3003","-48",""
"html-keyboard-response","512","1546078","0.0-46.47-2.47","null","","","","","","","null","","","","","","","",""
"image-selector-fb","513","1550594","0.0-46.48-0.48","null","pics2/FR3.jpg,pics2/FR6.jpg","","","","","","","false","null","","","sizeS.png","","",""
"image-slider-2AFC","514","1550595","0.0-46.48-1.48","null","","","","null","","","","","","","","heartS.png","","",""
"html-keyboard-response","515","1551467","0.0-46.48-2.48","null","","","","","","","null","","","","","","","",""
"image-selector-fb","516","1553692","0.0-46.49-0.49","1721","pics2/FR3.jpg,pics2/FR5.jpg","","","","","","","false","0","","","sizeS.png","","",""
"image-slider-2AFC","517","1556569","0.0-46.49-1.49","2875","","","","-75","","","","","","","","heartS.png","2093","-75",""
"html-keyboard-response","518","1557422","0.0-46.49-2.49","null","","","","","","","null","","","","","","","",""
"image-selector-fb","519","1559482","0.0-46.50-0.50","1555","pics2/FR6.jpg,pics2/SW1.jpg","","","","","","","true","1","","","heartS.png","","",""
"image-slider-2AFC","520","1561484","0.0-46.50-1.50","2000","","","","77","","","","","","","","heartS.png","1332","77",""
"html-keyboard-response","521","1562337","0.0-46.50-2.50","null","","","","","","","null","","","","","","","",""
"image-selector-fb","522","1565366","0.0-46.51-0.51","null","pics2/FR3.jpg,pics2/SW4.jpg","","","","","","","false","null","","","noS.png","","",""
"image-slider-2AFC","523","1568931","0.0-46.51-1.51","3561","","","","-65","","","","","","","","sizeS.png","2758","-65",""
"html-keyboard-response","524","1569740","0.0-46.51-2.51","null","","","","","","","null","","","","","","","",""
"image-selector-fb","525","1573054","0.0-46.52-0.52","2810","pics2/FR3.jpg,pics2/SW1.jpg","","","","","","","true","1","","","sizeS.png","","",""
"image-slider-2AFC","526","1575780","0.0-46.52-1.52","2725","","","","75","","","","","","","","heartS.png","2061","75",""
"html-keyboard-response","527","1576485","0.0-46.52-2.52","null","","","","","","","null","","","","","","","",""
"image-selector-fb","528","1579512","0.0-46.53-0.53","null","pics2/FR6.jpg,pics2/SW6.jpg","","","","","","","false","null","","","noS.png","","",""
"image-slider-2AFC","529","1583606","0.0-46.53-1.53","4091","","","","-82","","","","","","","","sizeS.png","3349","-82",""
"html-keyboard-response","530","1584309","0.0-46.53-2.53","null","","","","","","","null","","","","","","","",""
"image-selector-fb","531","1587210","0.0-46.54-0.54","2399","pics2/SW4.jpg,pics2/FR5.jpg","","","","","","","false","0","","","sizeS.png","","",""
"image-slider-2AFC","532","1590399","0.0-46.54-1.54","3188","","","","-94","","","","","","","","sizeS.png","2449","-94",""
"html-keyboard-response","533","1591201","0.0-46.54-2.54","null","","","","","","","null","","","","","","","",""
"image-selector-fb","534","1593447","0.0-46.55-0.55","1742","pics2/SA4.jpg,pics2/SW2.jpg","","","","","","","true","1","","","sizeS.png","","",""
"image-slider-2AFC","535","1595739","0.0-46.55-1.55","2290","","","","61","","","","","","","","heartS.png","1638","61",""
"html-keyboard-response","536","1596598","0.0-46.55-2.55","null","","","","","","","null","","","","","","","",""
"image-selector-fb","537","1600386","0.0-46.56-0.56","3284","pics2/SA4.jpg,pics2/FR6.jpg","","","","","","","false","0","","","heartS.png","","",""
"image-slider-2AFC","538","1603016","0.0-46.56-1.56","2628","","","","-68","","","","","","","","sizeS.png","1648","-68",""
"html-keyboard-response","539","1603831","0.0-46.56-2.56","null","","","","","","","null","","","","","","","",""
"image-selector-fb","540","1606873","0.0-46.57-0.57","2539","pics2/FR3.jpg,pics2/SW3.jpg","","","","","","","true","1","","","sizeS.png","","",""
"image-slider-2AFC","541","1610726","0.0-46.57-1.57","3852","","","","-97","","","","","","","","sizeS.png","2676","-97",""
"html-keyboard-response","542","1611529","0.0-46.57-2.57","null","","","","","","","null","","","","","","","",""
"image-selector-fb","543","1614542","0.0-46.58-0.58","null","pics2/FR6.jpg,pics2/SW5.jpg","","","","","","","false","null","","","noS.png","","",""
"image-slider-2AFC","544","1618500","0.0-46.58-1.58","3955","","","","-72","","","","","","","","sizeS.png","3287","-72",""
"html-keyboard-response","545","1619268","0.0-46.58-2.58","null","","","","","","","null","","","","","","","",""
"image-selector-fb","546","1622290","0.0-46.59-0.59","null","pics2/SW6.jpg,pics2/SW5.jpg","","","","","","","false","null","","","noS.png","","",""
"image-slider-2AFC","547","1626070","0.0-46.59-1.59","3777","","","","-50","","","","","","","","sizeS.png","3158","-50",""
"html-keyboard-response","548","1626880","0.0-46.59-2.59","null","","","","","","","null","","","","","","","",""
"image-selector-fb","549","1629887","0.0-46.60-0.60","null","pics2/SW2.jpg,pics2/FR4.jpg","","","","","","","false","null","","","noS.png","","",""
"image-slider-2AFC","550","1633468","0.0-46.60-1.60","3579","","","","65","","","","","","","","sizeS.png","2784","65",""
"html-keyboard-response","551","1634181","0.0-46.60-2.60","null","","","","","","","null","","","","","","","",""
"image-selector-fb","552","1636195","0.0-46.61-0.61","1500","pics2/SW2.jpg,pics2/FR4.jpg","","","","","","","false","0","","","heartS.png","","",""
"image-slider-2AFC","553","1638898","0.0-46.61-1.61","2701","","","","57","","","","","","","","sizeS.png","2089","57",""
"html-keyboard-response","554","1639760","0.0-46.61-2.61","null","","","","","","","null","","","","","","","",""
"image-selector-fb","555","1641896","0.0-46.62-0.62","1633","pics2/SW5.jpg,pics2/FR1.jpg","","","","","","","false","0","","","heartS.png","","",""
"image-slider-2AFC","556","1645624","0.0-46.62-1.62","3726","","","","-100","","","","","","","","sizeS.png","2774","-100",""
"html-keyboard-response","557","1646377","0.0-46.62-2.62","null","","","","","","","null","","","","","","","",""
"image-selector-fb","558","1650426","0.0-46.63-0.63","3540","pics2/SW3.jpg,pics2/FR5.jpg","","","","","","","false","0","","","sizeS.png","","",""
"image-slider-2AFC","559","1653694","0.0-46.63-1.63","3265","","","","33","","","","","","","","heartS.png","2649","33",""
"html-keyboard-response","560","1654395","0.0-46.63-2.63","null","","","","","","","null","","","","","","","",""
"image-selector-fb","561","1658530","0.0-46.64-0.64","3632","pics2/FR5.jpg,pics2/SW4.jpg","","","","","","","true","1","","","heartS.png","","",""
"image-slider-2AFC","562","1661848","0.0-46.64-1.64","3316","","","","-83","","","","","","","","sizeS.png","2560","-83",""
"html-keyboard-response","563","1662550","0.0-46.64-2.64","null","","","","","","","null","","","","","","","",""
"image-selector-fb","564","1666268","0.0-46.65-0.65","3213","pics2/FR6.jpg,pics2/SA4.jpg","","","","","","","false","0","","","sizeS.png","","",""
"image-slider-2AFC","565","1669394","0.0-46.65-1.65","3126","","","","-27","","","","","","","","heartS.png","2462","-27",""
"html-keyboard-response","566","1670197","0.0-46.65-2.65","null","","","","","","","null","","","","","","","",""
"pavlovia","567","1670211","0.0-47.0","","","","","","","","","","","","","","","",""
"html-keyboard-response","568","1675219","0.0-48.0","null","<div style='width: 700px;'> <font size=6><b>SHORT BREAK</font></b><br><br><i> Please wait 5 seconds to continue</i></div> ","","","","","","null","","","","","","","",""
"pavlovia","569","1675220","0.0-49.0","","","","","","","","","","","","","","","",""
"html-button-response","570","1682786","0.0-50.0","7565","<div style='width: 700px;'> <font size=6><b>BLOCK 3</font></b><br><br>Press the button whenever you feel ready to start the third and final block</div>","0","","","","","","","","","","","","",""
"image-selector-fb","571","1685803","0.0-51.0-0.0","null","pics2/FR4.jpg,pics2/SW6.jpg","","","","","","","false","null","","","noS.png","","",""
"image-slider-2AFC","572","1689231","0.0-51.0-1.0","3425","","","","39","","","","","","","","heartS.png","2977","39",""
"html-keyboard-response","573","1690091","0.0-51.0-2.0","null","","","","","","","null","","","","","","","",""
"image-selector-fb","574","1692289","0.0-51.1-0.1","1696","pics2/FR1.jpg,pics2/SW5.jpg","","","","","","","false","0","","","sizeS.png","","",""
"image-slider-2AFC","575","1694822","0.0-51.1-1.1","2531","","","","-11","","","","","","","","heartS.png","2091","-11",""
"html-keyboard-response","576","1695638","0.0-51.1-2.1","null","","","","","","","null","","","","","","","",""
"image-selector-fb","577","1698116","0.0-51.2-0.2","1974","pics2/FR4.jpg,pics2/SW3.jpg","","","","","","","true","1","","","heartS.png","","",""
"image-slider-2AFC","578","1700706","0.0-51.2-1.2","2588","","","","67","","","","","","","","heartS.png","1852","67",""
"html-keyboard-response","579","1701577","0.0-51.2-2.2","null","","","","","","","null","","","","","","","",""
"image-selector-fb","580","1703906","0.0-51.3-0.3","1826","pics2/SW4.jpg,pics2/SA4.jpg","","","","","","","false","0","","","sizeS.png","","",""
"image-slider-2AFC","581","1705768","0.0-51.3-1.3","1860","","","","-33","","","","","","","","sizeS.png","1276","-33",""
"html-keyboard-response","582","1706525","0.0-51.3-2.3","null","","","","","","","null","","","","","","","",""
"image-selector-fb","583","1709204","0.0-51.4-0.4","2173","pics2/FR6.jpg,pics2/SW4.jpg","","","","","","","true","1","","","heartS.png","","",""
"image-slider-2AFC","584","1712566","0.0-51.4-1.4","3361","","","","-22","","","","","","","","sizeS.png","2853","-22",""
"html-keyboard-response","585","1713268","0.0-51.4-2.4","null","","","","","","","null","","","","","","","",""
"image-selector-fb","586","1716293","0.0-51.5-0.5","null","pics2/SW2.jpg,pics2/SA4.jpg","","","","","","","false","null","","","noS.png","","",""
"image-slider-2AFC","587","1719028","0.0-51.5-1.5","2733","","","","54","","","","","","","","heartS.png","2069","54",""
"html-keyboard-response","588","1719781","0.0-51.5-2.5","null","","","","","","","null","","","","","","","",""
"image-selector-fb","589","1722806","0.0-51.6-0.6","null","pics2/FR6.jpg,pics2/SW3.jpg","","","","","","","false","null","","","noS.png","","",""
"image-slider-2AFC","590","1725859","0.0-51.6-1.6","3049","","","","48","","","","","","","","heartS.png","2517","48",""
"html-keyboard-response","591","1726676","0.0-51.6-2.6","null","","","","","","","null","","","","","","","",""
"image-selector-fb","592","1730171","0.0-51.7-0.7","2991","pics2/SW4.jpg,pics2/SW5.jpg","","","","","","","true","1","","","sizeS.png","","",""
"image-slider-2AFC","593","1732656","0.0-51.7-1.7","2484","","","","-88","","","","","","","","sizeS.png","1664","-88",""
"html-keyboard-response","594","1733368","0.0-51.7-2.7","null","","","","","","","null","","","","","","","",""
"image-selector-fb","595","1736019","0.0-51.8-0.8","2143","pics2/SW4.jpg,pics2/FR3.jpg","","","","","","","false","0","","","heartS.png","","",""
"image-slider-2AFC","596","1739374","0.0-51.8-1.8","3353","","","","41","","","","","","","","heartS.png","2709","41",""
"html-keyboard-response","597","1740236","0.0-51.8-2.8","null","","","","","","","null","","","","","","","",""
"image-selector-fb","598","1742184","0.0-51.9-0.9","1443","pics2/SW2.jpg,pics2/FR3.jpg","","","","","","","false","0","","","heartS.png","","",""
"image-slider-2AFC","599","1744759","0.0-51.9-1.9","2574","","","","48","","","","","","","","sizeS.png","1961","48",""
"html-keyboard-response","600","1745461","0.0-51.9-2.9","null","","","","","","","null","","","","","","","",""
"image-selector-fb","601","1748483","0.0-51.10-0.10","null","pics2/FR3.jpg,pics2/FR5.jpg","","","","","","","false","null","","","noS.png","","",""
"image-slider-2AFC","602","1751353","0.0-51.10-1.10","2870","","","","-94","","","","","","","","heartS.png","2077","-94",""
"html-keyboard-response","603","1752174","0.0-51.10-2.10","null","","","","","","","null","","","","","","","",""
"image-selector-fb","604","1755204","0.0-51.11-0.11","null","pics2/FR1.jpg,pics2/SW1.jpg","","","","","","","false","null","","","noS.png","","",""
"image-slider-2AFC","605","1760192","0.0-51.11-1.11","4986","","","","-31","","","","","","","","sizeS.png","2460","-31",""
"html-keyboard-response","606","1761007","0.0-51.11-2.11","null","","","","","","","null","","","","","","","",""
"image-selector-fb","607","1764020","0.0-51.12-0.12","null","pics2/FR6.jpg,pics2/FR3.jpg","","","","","","","false","null","","","noS.png","","",""
"image-slider-2AFC","608","1766630","0.0-51.12-1.12","2608","","","","-87","","","","","","","","heartS.png","1963","-87",""
"html-keyboard-response","609","1767344","0.0-51.12-2.12","null","","","","","","","null","","","","","","","",""
"image-selector-fb","610","1769324","0.0-51.13-0.13","1476","pics2/SW2.jpg,pics2/FR1.jpg","","","","","","","false","0","","","heartS.png","","",""
"image-slider-2AFC","611","1772158","0.0-51.13-1.13","2832","","","","55","","","","","","","","heartS.png","2136","55",""
"html-keyboard-response","612","1772914","0.0-51.13-2.13","null","","","","","","","null","","","","","","","",""
"image-selector-fb","613","1775943","0.0-51.14-0.14","null","pics2/FR6.jpg,pics2/FR4.jpg","","","","","","","false","null","","","noS.png","","",""
"image-slider-2AFC","614","1779569","0.0-51.14-1.14","3625","","","","-19","","","","","","","","sizeS.png","3152","-19",""
"html-keyboard-response","615","1780421","0.0-51.14-2.14","null","","","","","","","null","","","","","","","",""
"image-selector-fb","616","1782440","0.0-51.15-0.15","1515","pics2/SW6.jpg,pics2/FR4.jpg","","","","","","","false","0","","","heartS.png","","",""
"image-slider-2AFC","617","1784746","0.0-51.15-1.15","2303","","","","45","","","","","","","","heartS.png","1467","45",""
"html-keyboard-response","618","1785498","0.0-51.15-2.15","null","","","","","","","null","","","","","","","",""
"image-selector-fb","619","1788527","0.0-51.16-0.16","null","pics2/FR1.jpg,pics2/SW6.jpg","","","","","","","false","null","","","noS.png","","",""
"image-slider-2AFC","620","1791781","0.0-51.16-1.16","3250","","","","-52","","","","","","","","sizeS.png","2658","-52",""
"html-keyboard-response","621","1792534","0.0-51.16-2.16","null","","","","","","","null","","","","","","","",""
"image-selector-fb","622","1795023","0.0-51.17-0.17","1984","pics2/SW5.jpg,pics2/FR3.jpg","","","","","","","false","0","","","heartS.png","","",""
"image-slider-2AFC","623","1798334","0.0-51.17-1.17","3309","","","","-26","","","","","","","","heartS.png","2513","-26",""
"html-keyboard-response","624","1799103","0.0-51.17-2.17","null","","","","","","","null","","","","","","","",""
"image-selector-fb","625","1802655","0.0-51.18-0.18","3049","pics2/SA4.jpg,pics2/FR3.jpg","","","","","","","true","1","","","heartS.png","","",""
"image-slider-2AFC","626","1806696","0.0-51.18-1.18","4039","","","","-59","","","","","","","","heartS.png","3407","-59",""
"html-keyboard-response","627","1807453","0.0-51.18-2.18","null","","","","","","","null","","","","","","","",""
"image-selector-fb","628","1810477","0.0-51.19-0.19","null","pics2/FR3.jpg,pics2/SW5.jpg","","","","","","","false","null","","","noS.png","","",""
"image-slider-2AFC","629","1814246","0.0-51.19-1.19","3767","","","","23","","","","","","","","heartS.png","3248","23",""
"html-keyboard-response","630","1814951","0.0-51.19-2.19","null","","","","","","","null","","","","","","","",""
"image-selector-fb","631","1817972","0.0-51.20-0.20","null","pics2/SW4.jpg,pics2/SW1.jpg","","","","","","","false","null","","","noS.png","","",""
"image-slider-2AFC","632","1821052","0.0-51.20-1.20","3078","","","","-70","","","","","","","","heartS.png","2182","-70",""
"html-keyboard-response","633","1821756","0.0-51.20-2.20","null","","","","","","","null","","","","","","","",""
"image-selector-fb","634","1824789","0.0-51.21-0.21","null","pics2/FR5.jpg,pics2/SA4.jpg","","","","","","","false","null","","","noS.png","","",""
"image-slider-2AFC","635","1828399","0.0-51.21-1.21","3608","","","","-63","","","","","","","","heartS.png","2994","-63",""
"html-keyboard-response","636","1829117","0.0-51.21-2.21","null","","","","","","","null","","","","","","","",""
"image-selector-fb","637","1832124","0.0-51.22-0.22","null","pics2/FR3.jpg,pics2/FR1.jpg","","","","","","","false","null","","","noS.png","","",""
"image-slider-2AFC","638","1835168","0.0-51.22-1.22","3042","","","","-79","","","","","","","","sizeS.png","2374","-79",""
"html-keyboard-response","639","1836021","0.0-51.22-2.22","null","","","","","","","null","","","","","","","",""
"image-selector-fb","640","1839045","0.0-51.23-0.23","null","pics2/SW6.jpg,pics2/SW1.jpg","","","","","","","false","null","","","noS.png","","",""
"image-slider-2AFC","641","1842938","0.0-51.23-1.23","3891","","","","-11","","","","","","","","sizeS.png","3179","-11",""
"html-keyboard-response","642","1843757","0.0-51.23-2.23","null","","","","","","","null","","","","","","","",""
"image-selector-fb","643","1846458","0.0-51.24-0.24","2198","pics2/FR3.jpg,pics2/SW2.jpg","","","","","","","true","1","","","sizeS.png","","",""
"image-slider-2AFC","644","1848880","0.0-51.24-1.24","2421","","","","-30","","","","","","","","sizeS.png","1881","-30",""
"html-keyboard-response","645","1849739","0.0-51.24-2.24","null","","","","","","","null","","","","","","","",""
"image-selector-fb","646","1854245","0.0-51.25-0.25","null","pics2/FR1.jpg,pics2/FR3.jpg","","","","","","","false","null","","","sizeS.png","","",""
"image-slider-2AFC","647","1854246","0.0-51.25-1.25","null","","","","null","","","","","","","","sizeS.png","","",""
"html-keyboard-response","648","1855047","0.0-51.25-2.25","null","","","","","","","null","","","","","","","",""
"image-selector-fb","649","1856979","0.0-51.26-0.26","1429","pics2/SW1.jpg,pics2/SW6.jpg","","","","","","","false","0","","","sizeS.png","","",""
"image-slider-2AFC","650","1859562","0.0-51.26-1.26","2581","","","","-23","","","","","","","","heartS.png","1789","-23",""
"html-keyboard-response","651","1860415","0.0-51.26-2.26","null","","","","","","","null","","","","","","","",""
"image-selector-fb","652","1862563","0.0-51.27-0.27","1642","pics2/SW1.jpg,pics2/SW2.jpg","","","","","","","false","0","","","sizeS.png","","",""
"image-slider-2AFC","653","1865132","0.0-51.27-1.27","2566","","","","-38","","","","","","","","heartS.png","2046","-38",""
"html-keyboard-response","654","1865934","0.0-51.27-2.27","null","","","","","","","null","","","","","","","",""
"image-selector-fb","655","1869468","0.0-51.28-0.28","3030","pics2/SW2.jpg,pics2/SW3.jpg","","","","","","","false","0","","","heartS.png","","",""
"image-slider-2AFC","656","1871810","0.0-51.28-1.28","2342","","","","-26","","","","","","","","sizeS.png","1714","-26",""
"html-keyboard-response","657","1872680","0.0-51.28-2.28","null","","","","","","","null","","","","","","","",""
"image-selector-fb","658","1875699","0.0-51.29-0.29","null","pics2/FR6.jpg,pics2/SW2.jpg","","","","","","","false","null","","","noS.png","","",""
"image-slider-2AFC","659","1880352","0.0-51.29-1.29","4651","","","","-36","","","","","","","","sizeS.png","4043","-36",""
"html-keyboard-response","660","1881061","0.0-51.29-2.29","null","","","","","","","null","","","","","","","",""
"image-selector-fb","661","1883628","0.0-51.30-0.30","2063","pics2/FR6.jpg,pics2/FR3.jpg","","","","","","","true","1","","","heartS.png","","",""
"image-slider-2AFC","662","1886515","0.0-51.30-1.30","2886","","","","-1","","","","","","","","sizeS.png","2334","-1",""
"html-keyboard-response","663","1887218","0.0-51.30-2.30","null","","","","","","","null","","","","","","","",""
"image-selector-fb","664","1890239","0.0-51.31-0.31","null","pics2/FR3.jpg,pics2/SW6.jpg","","","","","","","false","null","","","noS.png","","",""
"image-slider-2AFC","665","1893592","0.0-51.31-1.31","3351","","","","23","","","","","","","","heartS.png","2883","23",""
"html-keyboard-response","666","1894346","0.0-51.31-2.31","null","","","","","","","null","","","","","","","",""
"image-selector-fb","667","1897375","0.0-51.32-0.32","null","pics2/SW6.jpg,pics2/SA4.jpg","","","","","","","false","null","","","noS.png","","",""
"image-slider-2AFC","668","1900342","0.0-51.32-1.32","2965","","","","26","","","","","","","","heartS.png","2477","26",""
"html-keyboard-response","669","1901203","0.0-51.32-2.32","null","","","","","","","null","","","","","","","",""
"image-selector-fb","670","1904863","0.0-51.33-0.33","3155","pics2/FR5.jpg,pics2/FR6.jpg","","","","","","","false","0","","","heartS.png","","",""
"image-slider-2AFC","671","1908265","0.0-51.33-1.33","3400","","","","-50","","","","","","","","heartS.png","2600","-50",""
"html-keyboard-response","672","1908966","0.0-51.33-2.33","null","","","","","","","null","","","","","","","",""
"image-selector-fb","673","1911991","0.0-51.34-0.34","null","pics2/SW1.jpg,pics2/FR5.jpg","","","","","","","false","null","","","noS.png","","",""
"image-slider-2AFC","674","1915223","0.0-51.34-1.34","3229","","","","57","","","","","","","","heartS.png","2621","57",""
"html-keyboard-response","675","1915925","0.0-51.34-2.34","null","","","","","","","null","","","","","","","",""
"image-selector-fb","676","1918950","0.0-51.35-0.35","null","pics2/SW2.jpg,pics2/SW3.jpg","","","","","","","false","null","","","noS.png","","",""
"image-slider-2AFC","677","1922330","0.0-51.35-1.35","3377","","","","-59","","","","","","","","heartS.png","2644","-59",""
"html-keyboard-response","678","1923190","0.0-51.35-2.35","null","","","","","","","null","","","","","","","",""
"image-selector-fb","679","1926223","0.0-51.36-0.36","null","pics2/FR3.jpg,pics2/FR4.jpg","","","","","","","false","null","","","noS.png","","",""
"image-slider-2AFC","680","1929774","0.0-51.36-1.36","3549","","","","-76","","","","","","","","heartS.png","2777","-76",""
"html-keyboard-response","681","1930528","0.0-51.36-2.36","null","","","","","","","null","","","","","","","",""
"image-selector-fb","682","1933578","0.0-51.37-0.37","2547","pics2/FR6.jpg,pics2/SW5.jpg","","","","","","","true","1","","","sizeS.png","","",""
"image-slider-2AFC","683","1935561","0.0-51.37-1.37","1982","","","","51","","","","","","","","heartS.png","1514","51",""
"html-keyboard-response","684","1936313","0.0-51.37-2.37","null","","","","","","","null","","","","","","","",""
"image-selector-fb","685","1938847","0.0-51.38-0.38","2020","pics2/SW6.jpg,pics2/SW2.jpg","","","","","","","true","1","","","heartS.png","","",""
"image-slider-2AFC","686","1941162","0.0-51.38-1.38","2314","","","","-36","","","","","","","","heartS.png","1618","-36",""
"html-keyboard-response","687","1941915","0.0-51.38-2.38","null","","","","","","","null","","","","","","","",""
"image-selector-fb","688","1944939","0.0-51.39-0.39","null","pics2/SW2.jpg,pics2/FR3.jpg","","","","","","","false","null","","","noS.png","","",""
"image-slider-2AFC","689","1947980","0.0-51.39-1.39","3038","","","","87","","","","","","","","heartS.png","2188","87",""
"html-keyboard-response","690","1948736","0.0-51.39-2.39","null","","","","","","","null","","","","","","","",""
"image-selector-fb","691","1950887","0.0-51.40-0.40","1646","pics2/SW2.jpg,pics2/FR5.jpg","","","","","","","false","0","","","heartS.png","","",""
"image-slider-2AFC","692","1953165","0.0-51.40-1.40","2275","","","","57","","","","","","","","heartS.png","1696","57",""
"html-keyboard-response","693","1953975","0.0-51.40-2.40","null","","","","","","","null","","","","","","","",""
"image-selector-fb","694","1956268","0.0-51.41-0.41","1788","pics2/FR1.jpg,pics2/SW1.jpg","","","","","","","true","1","","","sizeS.png","","",""
"image-slider-2AFC","695","1958728","0.0-51.41-1.41","2458","","","","82","","","","","","","","heartS.png","1557","82",""
"html-keyboard-response","696","1959440","0.0-51.41-2.41","null","","","","","","","null","","","","","","","",""
"image-selector-fb","697","1961936","0.0-51.42-0.42","1992","pics2/SW3.jpg,pics2/SW2.jpg","","","","","","","true","1","","","sizeS.png","","",""
"image-slider-2AFC","698","1964895","0.0-51.42-1.42","2957","","","","-13","","","","","","","","sizeS.png","2447","-13",""
"html-keyboard-response","699","1965714","0.0-51.42-2.42","null","","","","","","","null","","","","","","","",""
"image-selector-fb","700","1968739","0.0-51.43-0.43","null","pics2/FR4.jpg,pics2/SW4.jpg","","","","","","","false","null","","","noS.png","","",""
"image-slider-2AFC","701","1971954","0.0-51.43-1.43","3214","","","","-43","","","","","","","","sizeS.png","2639","-43",""
"html-keyboard-response","702","1972813","0.0-51.43-2.43","null","","","","","","","null","","","","","","","",""
"image-selector-fb","703","1975840","0.0-51.44-0.44","null","pics2/SW2.jpg,pics2/SW4.jpg","","","","","","","false","null","","","noS.png","","",""
"image-slider-2AFC","704","1979969","0.0-51.44-1.44","4125","","","","-86","","","","","","","","heartS.png","3331","-86",""
"html-keyboard-response","705","1980782","0.0-51.44-2.44","null","","","","","","","null","","","","","","","",""
"image-selector-fb","706","1983805","0.0-51.45-0.45","null","pics2/SW1.jpg,pics2/SW3.jpg","","","","","","","false","null","","","noS.png","","",""
"image-slider-2AFC","707","1987047","0.0-51.45-1.45","3239","","","","-45","","","","","","","","sizeS.png","2427","-45",""
"html-keyboard-response","708","1987751","0.0-51.45-2.45","null","","","","","","","null","","","","","","","",""
"image-selector-fb","709","1989976","0.0-51.46-0.46","1721","pics2/SA4.jpg,pics2/FR5.jpg","","","","","","","true","1","","","sizeS.png","","",""
