"trial_type","trial_index","time_elapsed","internal_node_id","rt","stimulus","button_pressed","success","response","cat","value","key_press","correct","image_click","first_click_rt","first_click_val","symbol","all_click_rt","all_click_val","view_history"
"pavlovia","0","38","0.0-0.0","","","","","","","","","","","","","","","",""
"html-button-response","1","26851","0.0-1.0","26802","<div style='width: 700px; font-size: 150%'><font size='40'>  Welcome to our study!</font><br><br><br> <small> Our experiment is about <i>decision making</i>. You will choose and rate different food items, such as these: <br><br> <div><img src='food_combo2.png', height = '400px'></img></div>","0","","","","","","","","","","","","",""
"html-button-response","2","60294","0.0-2.0","33441","<div style='width: 700px; font-size: 150%'><br><br><br><small> <u><i>This is a multi-part study.</i></u><br><br> In the first part you will rate 24 food items twice.<br><br><div><img src=""rat1.png"" style=""width: 25%""></img></div><br>In the second part (longest) you will make repeated choices and judgements concerning the food items.<br><br><div><img src=""mainx.png"" style=""width: 50%""></img></div><br>In the third and final part, you will rate the items again and answer few short questionnaires.<br><br><div><img src=""rat2.png"" style=""width: 50%""></img></div><br><br>","0","","","","","","","","","","","","",""
"fullscreen","3","63775","0.0-3.0","","","","true","","","","","","","","","","","",""
"html-button-response","4","149816","0.0-4.0","86039","<div style='width: 900px; font-size: 150%;' <font size='20%'> In the first part of the task you will use the mouse to rate food items on <i>2 scales</i> </font></div><br><br><div style='width: 900px'><div style='float: left; width: 50%; margin-right:2.5em'><img src='heartS.png'></img><p class='small' style='text-align: justify'>When you see the heart cue you will rate food items in terms of how much like them/would like to eat them <i>right now</i>. You will rate them on a continuous scale from left (strong dislike) to right (strong liking). Before submitting your rating, try imagining how the item tastes and how much you desire it.<br><br></p></div><div ><img src='sizeS.png'></img><p class='small' style='text-align: justify'>When you see the size cue, you will rate the same food items in terms of their size. The scale goes from left (tiny) to right (very large). You should assess picture size <i><u>relative</i></u> to the white background. <b>Remember:</b> rate the size of the picture, <u>not</u> the size of the item in real life. </p></div><div style='width: 900px'><br><br><b><i>Notice:</b> by starting the rating you agree that your sumbission might be rejected at an early stage and the experiment might end, if your size ratings are not at least modestly related to objective sizes, or if you repeat the same value ratings too many times. If you don't agree, please exit by closing the browser window. </i><br><br><br>","0","","","","","","","","","","","","",""
"html-button-response","5","155661","0.0-5.0","5843","<div><img src='heartS.png'></img></div><br><div style='text-align: justify; width: 700px'>Using the mouse, rate the <b><i>likeness</b></i> of the food items (how much you like them/would like to eat them <i>right now</i>). Far right-end of the scale indicates an item you <i>like a lot</i>. Far left-end indicates an item you <i>dislike a lot</i>. Think about each answer.   <ul><li>Try <b><i>not</b></i> to give identical rating to different items.</li><li>Use the whole scale, and <b><i>not</b></i> just the extremes</ul></div><br>","0","","","","","","","","","","","","",""
"image-slider-response","6","163493","0.0-6.0-0.0-0.0","7829","pics2/SA5.jpg","","","87","SA","","","","","","","","","",""
"image-slider-response","7","171155","0.0-6.0-0.0-0.1","7451","pics2/FR1.jpg","","","53","FR","","","","","","","","","",""
"image-slider-response","8","174054","0.0-6.0-0.0-0.2","2688","pics2/VE1.jpg","","","100","VE","","","","","","","","","",""
"image-slider-response","9","177502","0.0-6.0-0.0-0.3","3235","pics2/VE6.jpg","","","100","VE","","","","","","","","","",""
"image-slider-response","10","182106","0.0-6.0-0.0-0.4","4387","pics2/SW5.jpg","","","97","SW","","","","","","","","","",""
"image-slider-response","11","185672","0.0-6.0-0.0-0.5","3355","pics2/SW1.jpg","","","58","SW","","","","","","","","","",""
"image-slider-response","12","189744","0.0-6.0-0.0-0.6","3858","pics2/FR5.jpg","","","66","FR","","","","","","","","","",""
"image-slider-response","13","192511","0.0-6.0-0.0-0.7","2563","pics2/FR4.jpg","","","61","FR","","","","","","","","","",""
"image-slider-response","14","196159","0.0-6.0-0.0-0.8","3441","pics2/SW2.jpg","","","54","SW","","","","","","","","","",""
"image-slider-response","15","199663","0.0-6.0-0.0-0.9","3291","pics2/SW4.jpg","","","61","SW","","","","","","","","","",""
"image-slider-response","16","202703","0.0-6.0-0.0-0.10","2824","pics2/VE5.jpg","","","72","VE","","","","","","","","","",""
"image-slider-response","17","205291","0.0-6.0-0.0-0.11","2385","pics2/SA3.jpg","","","100","SA","","","","","","","","","",""
"image-slider-response","18","208436","0.0-6.0-0.0-0.12","2926","pics2/VE4.jpg","","","100","VE","","","","","","","","","",""
"image-slider-response","19","213288","0.0-6.0-0.0-0.13","4640","pics2/SA6.jpg","","","63","SA","","","","","","","","","",""
"image-slider-response","20","217387","0.0-6.0-0.0-0.14","3894","pics2/SA4.jpg","","","77","SA","","","","","","","","","",""
"image-slider-response","21","221171","0.0-6.0-0.0-0.15","3580","pics2/SA2.jpg","","","62","SA","","","","","","","","","",""
"image-slider-response","22","224391","0.0-6.0-0.0-0.16","3002","pics2/FR6.jpg","","","38","FR","","","","","","","","","",""
"image-slider-response","23","227661","0.0-6.0-0.0-0.17","3041","pics2/FR3.jpg","","","59","FR","","","","","","","","","",""
"image-slider-response","24","236129","0.0-6.0-0.0-0.18","8262","pics2/VE3.jpg","","","40","VE","","","","","","","","","",""
"image-slider-response","25","242785","0.0-6.0-0.0-0.19","6444","pics2/VE2.jpg","","","39","VE","","","","","","","","","",""
"image-slider-response","26","246876","0.0-6.0-0.0-0.20","3886","pics2/FR2.jpg","","","21","FR","","","","","","","","","",""
"image-slider-response","27","250779","0.0-6.0-0.0-0.21","3687","pics2/SA1.jpg","","","41","SA","","","","","","","","","",""
"image-slider-response","28","253719","0.0-6.0-0.0-0.22","2737","pics2/SW6.jpg","","","64","SW","","","","","","","","","",""
"image-slider-response","29","277019","0.0-6.0-0.0-0.23","23095","pics2/SW3.jpg","","","57","SW","","","","","","","","","",""
"html-button-response","30","283411","0.0-7.0","6178","<div style='width: 900px;'> <font size = 6><b> End of the first rating</b><br><br>","0","","","","","","","","","","","","",""
"html-button-response","31","339279","0.0-9.0","55866","<div ><img src='sizeS.png'></img></div><br><div style='text-align: justify; width: 700px'> Using the mouse, rate the <b><i>size</b></i> of the food items <b><i> relative to the white background.</b></i> Right-end of the scale indicates a <i>very large item</i>, which covers a large portion of the white rectangle. Left-end indicates a <i>very tiny</i> item which covers a tiny portion of the white rectangle.<br><br><i><u>Remember</i></u>: everything that is not the white background also contributes to item size (e.g. packing, plates, ect.)<br><br> Please keep in mind that if the accuracy of ratings do not allign well with actual sizes, the experiment will end.  As a result it will be consider incomplete and therefore no payment would be made. Good luck!<br><br></div><br>","0","","","","","","","","","","","","",""
"html-button-response","32","342520","0.0-10.0","3240","<div ><img src='sizeS.png'></img></div><br><b><font size=6>Examples of items that you might encounter</b><br><div style='width: 750px;'><div style='width: 33.33%; float:left'><br><br><br><i>Large Item</i><br><br><img src='large.jpg', width=200px></img></div><div style='float:right'><br><br><br><i>Small Item</i><br><br><img src='small.jpg', width=200px></img></div><div ><br><br><br><i>Medium Item</i><br><br><img src='med.jpg', width=200px></img></div></div><br><br>","0","","","","","","","","","","","","",""
"image-slider-response","33","351634","0.0-11.0-0.0-0.0","9111","pics2/SW1.jpg","","","85","null","","","","","","","","","",""
"image-slider-response","34","354252","0.0-11.0-0.0-0.1","2411","pics2/SA1.jpg","","","75","null","","","","","","","","","",""
"image-slider-response","35","357164","0.0-11.0-0.0-0.2","2696","pics2/SA2.jpg","","","49","null","","","","","","","","","",""
"image-slider-response","36","360233","0.0-11.0-0.0-0.3","2865","pics2/FR4.jpg","","","47","null","","","","","","","","","",""
"image-slider-response","37","363361","0.0-11.0-0.0-0.4","2925","pics2/SA6.jpg","","","52","null","","","","","","","","","",""
"image-slider-response","38","366444","0.0-11.0-0.0-0.5","2864","pics2/FR2.jpg","","","81","null","","","","","","","","","",""
"image-slider-response","39","369188","0.0-11.0-0.0-0.6","2532","pics2/SA3.jpg","","","69","null","","","","","","","","","",""
"image-slider-response","40","373550","0.0-11.0-0.0-0.7","4160","pics2/SW5.jpg","","","83","null","","","","","","","","","",""
"image-slider-response","41","377357","0.0-11.0-0.0-0.8","3590","pics2/FR5.jpg","","","81","null","","","","","","","","","",""
"image-slider-response","42","380833","0.0-11.0-0.0-0.9","3260","pics2/SW4.jpg","","","57","null","","","","","","","","","",""
"image-slider-response","43","383955","0.0-11.0-0.0-0.10","2910","pics2/SW3.jpg","","","60","null","","","","","","","","","",""
"image-slider-response","44","386017","0.0-11.0-0.0-0.11","1847","pics2/SW6.jpg","","","50","null","","","","","","","","","",""
"image-slider-response","45","388320","0.0-11.0-0.0-0.12","2091","pics2/FR3.jpg","","","53","null","","","","","","","","","",""
"image-slider-response","46","391684","0.0-11.0-0.0-0.13","3152","pics2/SW2.jpg","","","100","null","","","","","","","","","",""
"image-slider-response","47","395911","0.0-11.0-0.0-0.14","4021","pics2/VE1.jpg","","","95","null","","","","","","","","","",""
"image-slider-response","48","398228","0.0-11.0-0.0-0.15","2111","pics2/VE3.jpg","","","63","null","","","","","","","","","",""
"image-slider-response","49","403132","0.0-11.0-0.0-0.16","4696","pics2/SA5.jpg","","","50","null","","","","","","","","","",""
"image-slider-response","50","406727","0.0-11.0-0.0-0.17","3382","pics2/SA4.jpg","","","56","null","","","","","","","","","",""
"image-slider-response","51","410833","0.0-11.0-0.0-0.18","3887","pics2/VE6.jpg","","","72","null","","","","","","","","","",""
"image-slider-response","52","415211","0.0-11.0-0.0-0.19","4174","pics2/VE2.jpg","","","100","null","","","","","","","","","",""
"image-slider-response","53","419033","0.0-11.0-0.0-0.20","3607","pics2/VE5.jpg","","","67","null","","","","","","","","","",""
"image-slider-response","54","422892","0.0-11.0-0.0-0.21","3635","pics2/VE4.jpg","","","83","null","","","","","","","","","",""
"image-slider-response","55","424615","0.0-11.0-0.0-0.22","1518","pics2/FR6.jpg","","","50","null","","","","","","","","","",""
"image-slider-response","56","429859","0.0-11.0-0.0-0.23","5028","pics2/FR1.jpg","","","85","null","","","","","","","","","",""
"html-button-response","57","431033","0.0-12.0","952","<div style='width: 900px;'> <font size = 6><b> End of the second rating</b><br><br>","0","","","","","","","","","","","","",""
"html-button-response","58","440573","0.0-13.0","9539","<div style='width: 900px;'>Now please rate the items for the second time. <br><br>This is not a memory test - you don't need to be consistent with your previous ratings. Just as before, try to make accurate judgements.<br><br>","0","","","","","","","","","","","","",""
"html-button-response","59","446427","0.0-14.0","5853","<div><img src='heartS.png'></img></div><br><div style='text-align: justify; width: 700px'>Using the mouse, rate the <b><i>likeness</b></i> of the food items (how much you like them/would like to eat them <i>right now</i>). Far right-end of the scale indicates an item you <i>like a lot</i>. Far left-end indicates an item you <i>dislike a lot</i>. Think about each answer.   <ul><li>Try <b><i>not</b></i> to give identical rating to different items.</li><li>Use the whole scale, and <b><i>not</b></i> just the extremes</ul></div><br>","0","","","","","","","","","","","","",""
"image-slider-response","60","450572","0.0-15.0-0.0-0.0","4141","pics2/VE1.jpg","","","83","VE","","","","","","","","","",""
"image-slider-response","61","453455","0.0-15.0-0.0-0.1","2679","pics2/SA3.jpg","","","92","SA","","","","","","","","","",""
"image-slider-response","62","456765","0.0-15.0-0.0-0.2","3097","pics2/SW1.jpg","","","57","SW","","","","","","","","","",""
"image-slider-response","63","459263","0.0-15.0-0.0-0.3","2289","pics2/SW4.jpg","","","64","SW","","","","","","","","","",""
"image-slider-response","64","462505","0.0-15.0-0.0-0.4","3034","pics2/FR3.jpg","","","70","FR","","","","","","","","","",""
"image-slider-response","65","466086","0.0-15.0-0.0-0.5","3371","pics2/FR1.jpg","","","62","FR","","","","","","","","","",""
"image-slider-response","66","468802","0.0-15.0-0.0-0.6","2508","pics2/SW3.jpg","","","70","SW","","","","","","","","","",""
"image-slider-response","67","473165","0.0-15.0-0.0-0.7","4148","pics2/VE3.jpg","","","43","VE","","","","","","","","","",""
"image-slider-response","68","475686","0.0-15.0-0.0-0.8","2311","pics2/FR5.jpg","","","62","FR","","","","","","","","","",""
"image-slider-response","69","478523","0.0-15.0-0.0-0.9","2626","pics2/VE2.jpg","","","37","VE","","","","","","","","","",""
"image-slider-response","70","482069","0.0-15.0-0.0-0.10","3337","pics2/VE5.jpg","","","71","VE","","","","","","","","","",""
"image-slider-response","71","486274","0.0-15.0-0.0-0.11","4003","pics2/FR4.jpg","","","61","FR","","","","","","","","","",""
"image-slider-response","72","491177","0.0-15.0-0.0-0.12","4683","pics2/SW2.jpg","","","56","SW","","","","","","","","","",""
"image-slider-response","73","493712","0.0-15.0-0.0-0.13","2327","pics2/VE6.jpg","","","100","VE","","","","","","","","","",""
"image-slider-response","74","496586","0.0-15.0-0.0-0.14","2662","pics2/SA6.jpg","","","43","SA","","","","","","","","","",""
"image-slider-response","75","498827","0.0-15.0-0.0-0.15","2025","pics2/FR6.jpg","","","42","FR","","","","","","","","","",""
"image-slider-response","76","501054","0.0-15.0-0.0-0.16","2011","pics2/VE4.jpg","","","100","VE","","","","","","","","","",""
"image-slider-response","77","505981","0.0-15.0-0.0-0.17","4723","pics2/SA5.jpg","","","88","SA","","","","","","","","","",""
"image-slider-response","78","508660","0.0-15.0-0.0-0.18","2461","pics2/SW5.jpg","","","100","SW","","","","","","","","","",""
"image-slider-response","79","511797","0.0-15.0-0.0-0.19","2927","pics2/SA1.jpg","","","34","SA","","","","","","","","","",""
"image-slider-response","80","514370","0.0-15.0-0.0-0.20","2356","pics2/SA4.jpg","","","60","SA","","","","","","","","","",""
"image-slider-response","81","517010","0.0-15.0-0.0-0.21","2430","pics2/SA2.jpg","","","57","SA","","","","","","","","","",""
"image-slider-response","82","520998","0.0-15.0-0.0-0.22","3783","pics2/SW6.jpg","","","71","SW","","","","","","","","","",""
"image-slider-response","83","525481","0.0-15.0-0.0-0.23","4271","pics2/FR2.jpg","","","40","FR","","","","","","","","","",""
"call-function","84","525699","0.0-16.0","","","","","","","","","","","","","","","",""
"call-function","85","525702","0.0-17.0","","","","","","","","","","","","","","","",""
"html-button-response","86","527798","0.0-18.0","2096","<div style='width: 900px;'> <font size = 6><b> End of the first rating</b><br><br>","0","","","","","","","","","","","","",""
"html-button-response","87","530912","0.0-19.0","3113","<div ><img src='sizeS.png'></img></div><br><div style='text-align: justify; width: 700px'> Using the mouse, rate the <b><i>size</b></i> of the food items <b><i> relative to the white background.</b></i> Right-end of the scale indicates a <i>very large item</i>, which covers a large portion of the white rectangle. Left-end indicates a <i>very tiny</i> item which covers a tiny portion of the white rectangle.<br><br><i><u>Remember</i></u>: everything that is not the white background also contributes to item size (e.g. packing, plates, ect.)<br><br> Please keep in mind that if the accuracy of ratings do not allign well with actual sizes, the experiment will end.  As a result it will be consider incomplete and therefore no payment would be made. Good luck!<br><br></div><br>","0","","","","","","","","","","","","",""
"image-slider-response","88","533055","0.0-20.0-0.0-0.0","2141","pics2/VE5.jpg","","","81","null","","","","","","","","","",""
"image-slider-response","89","535365","0.0-20.0-0.0-0.1","2094","pics2/VE6.jpg","","","80","null","","","","","","","","","",""
"image-slider-response","90","537765","0.0-20.0-0.0-0.2","2186","pics2/VE1.jpg","","","91","null","","","","","","","","","",""
"image-slider-response","91","543497","0.0-20.0-0.0-0.3","5528","pics2/FR1.jpg","","","100","null","","","","","","","","","",""
"image-slider-response","92","547771","0.0-20.0-0.0-0.4","4062","pics2/FR3.jpg","","","88","null","","","","","","","","","",""
"image-slider-response","93","550284","0.0-20.0-0.0-0.5","2310","pics2/VE4.jpg","","","66","null","","","","","","","","","",""
"image-slider-response","94","551826","0.0-20.0-0.0-0.6","1329","pics2/SW6.jpg","","","50","null","","","","","","","","","",""
"image-slider-response","95","554978","0.0-20.0-0.0-0.7","2948","pics2/SW4.jpg","","","58","null","","","","","","","","","",""
"image-slider-response","96","556835","0.0-20.0-0.0-0.8","1644","pics2/SA2.jpg","","","50","null","","","","","","","","","",""
"image-slider-response","97","559739","0.0-20.0-0.0-0.9","2692","pics2/SA3.jpg","","","78","null","","","","","","","","","",""
"image-slider-response","98","562320","0.0-20.0-0.0-0.10","2377","pics2/SW3.jpg","","","71","null","","","","","","","","","",""
"image-slider-response","99","565097","0.0-20.0-0.0-0.11","2560","pics2/SA6.jpg","","","52","null","","","","","","","","","",""
"image-slider-response","100","568725","0.0-20.0-0.0-0.12","3416","pics2/FR4.jpg","","","81","null","","","","","","","","","",""
"image-slider-response","101","571290","0.0-20.0-0.0-0.13","2351","pics2/VE3.jpg","","","77","null","","","","","","","","","",""
"image-slider-response","102","573944","0.0-20.0-0.0-0.14","2445","pics2/SW5.jpg","","","84","null","","","","","","","","","",""
"image-slider-response","103","576562","0.0-20.0-0.0-0.15","2409","pics2/SA4.jpg","","","55","null","","","","","","","","","",""
"image-slider-response","104","578925","0.0-20.0-0.0-0.16","2145","pics2/SW2.jpg","","","89","null","","","","","","","","","",""
"image-slider-response","105","584411","0.0-20.0-0.0-0.17","5283","pics2/SA1.jpg","","","95","null","","","","","","","","","",""
"image-slider-response","106","587791","0.0-20.0-0.0-0.18","3164","pics2/FR5.jpg","","","83","null","","","","","","","","","",""
"image-slider-response","107","592035","0.0-20.0-0.0-0.19","4037","pics2/SW1.jpg","","","91","null","","","","","","","","","",""
"image-slider-response","108","595301","0.0-20.0-0.0-0.20","3054","pics2/SA5.jpg","","","54","null","","","","","","","","","",""
"image-slider-response","109","599404","0.0-20.0-0.0-0.21","3889","pics2/VE2.jpg","","","67","null","","","","","","","","","",""
"image-slider-response","110","601848","0.0-20.0-0.0-0.22","2227","pics2/FR2.jpg","","","83","null","","","","","","","","","",""
"image-slider-response","111","604602","0.0-20.0-0.0-0.23","2537","pics2/FR6.jpg","","","58","null","","","","","","","","","",""
"call-function","112","604816","0.0-21.0","","","","","","","","","","","","","","","",""
"html-button-response","113","605791","0.0-22.0","974","<div style='width: 900px;'> <font size = 6><b> End of the second rating</b><br><br>","0","","","","","","","","","","","","",""
"pavlovia","114","605800","0.0-23.0","","","","","","","","","","","","","","","",""
"html-keyboard-response","115","610805","0.0-24.0","null","<div style='width: 700px;'> <font size=6><b>SHORT BREAK</font></b><br><br><i> Please wait 5 seconds to continue</i></div> ","","","","","","null","","","","","","","",""
"pavlovia","116","610808","0.0-25.0","","","","","","","","","","","","","","","",""
"html-button-response","117","622677","0.0-26.0","11867","<div style='width: 700px;'>In the main part of the study, you will be choosing between 2 items. When it's time to choose,  this symbol will appear: <br><br><img src='chooseS.png'></img><br><br>Below, a cue will signify the type of choice: </div><br><div style='width: 700px;'><div style='float: left; width: 50%'><img src='heartS.png'></img><p class='small'>Heart cue means you should choose the item you <b><i>prefer</b></i> more.</p></div><div class='float: right; width:50%'><img src='sizeS.png'></img><p class='small'>Size cue means you should choose the <b><i>larger</b></i> item. </p></div></div><br><div style='width: 700px;'>When you click, a green square will appear around the item you chose.<br></div><div><br>","0","","","","","","","","","","","","",""
"image-selector-fb-tut","118","626753","0.0-27.0","3073","0232.jpg,0123.jpg","","","","","","","false","0","","","","","",""
"image-selector-fb-tut","119","630559","0.0-28.0","2802","0232.jpg,0123.jpg","","","","","","","true","1","","","","","",""
"html-button-response","120","632153","0.0-29.0","1593","<div style='width: 900px;'>Your choices should be both <b><i>fast and accurate</b></i>. <br><br>You will have <i>4 seconds</i> to make each choice, which should be enough consider the options and click on one of the items.<br><br>","0","","","","","","","","","","","","",""
"html-button-response","121","636816","0.0-30.0","4662","<div style='width: 900px;'>Additionally, on some choice trials you will see the <b><i>no-choice cue</b></i>: <br><br><img src='noS.png'></img> <br><br>This cue means you can't make any choice. You can examine the items, but  can't click on any of them. Just wait patiently for the cue to dissapear.<br><br>","0","","","","","","","","","","","","",""
"image-selector-fb-tut","122","638822","0.0-31.0","null","0232.jpg,0123.jpg","","","","","","","false","null","","","","","",""
"html-button-response","123","641819","0.0-32.0","2995","<div style='width: 900px;'>After each choice the items will remain on the screen and you will see this symbol: <br><br><img src='judgeS.png'></img> <br><br>This means you should rate<b> the magnitude of the difference</b> between the items using a scale: </div><br><div style='width: 900px; '><div style='float: left; width: 50%; margin-right: 2.5em; align-self:left'><img src='heartS.png'></img><p class='small' style = 'text-align: justify;'>Heart cue means you should rate <b>how much you prefer</b> one of the items over the other. Moving the scale indicator to the left means you prefer the left one; moving it to the right - right one. The more you prefer one of them, the more towards that side you should move the scale indicator. </p></div><div class='float: right; width: 50%; margin-left: 2.5em;'><img src='sizeS.png'></img><p class='small' style='text-align: justify'>Size cue means you should rate <b>how much larger</b> is one of the items over the other. Moving the scale indicator to the left means you think the left is larger; moving it to the right - right one. The greater the difference in size, the more towards that side you should move the scale indicator.</div><br>","0","","","","","","","","","","","","",""
"image-slider-2AFC-tut","124","648684","0.0-33.0","6862","","","","0","","","","","","5893","0","","","",""
"image-slider-2AFC-tut","125","653129","0.0-34.0","4443","","","","18","","","","","","3367","18","","","",""
"html-button-response","126","668697","0.0-35.0","15567","<br><br><font size = 36><b> Examples </b></font><br><br><i> 1) I would like to eat some croissants a <b>lot more</b> than doritos right now:</i><br><img src='ex1.PNG', width='62%'></img><br><br><br><i> 2) I would like to eat some doritos a <b>bit more</b> than croissants right now, but just slightly:</i><br><img src='ex2.PNG' width='62%'></img>","0","","","","","","","","","","","","",""
"html-button-response","127","671367","0.0-36.0","2669","<div style='width: 900px;'><i>Now you know everything you need to do the task!</i> <br><br>Let's start by doing a <b>short training</b>, so you'll get used to how it works. </div><br>","0","","","","","","","","","","","","",""
"image-selector-fb","128","674362","0.0-37.0-0.0","2487","pics2/SW4.jpg,pics2/VE3.jpg","","","","","","","true","1","","","sizeS.png","","",""
"image-slider-2AFC","129","678962","0.0-37.0-1.0","4597","","","","-61","","","","","","","","heartS.png","3808","-61",""
"html-keyboard-response","130","679773","0.0-37.0-2.0","null","","","","","","","null","","","","","","","",""
"image-selector-fb","131","682342","0.0-37.1-0.1","2057","pics2/FR1.jpg,pics2/FR4.jpg","","","","","","","false","0","","","heartS.png","","",""
"image-slider-2AFC","132","686963","0.0-37.1-1.1","4619","","","","-37","","","","","","","","heartS.png","3528","-37",""
"html-keyboard-response","133","687829","0.0-37.1-2.1","null","","","","","","","null","","","","","","","",""
"image-selector-fb","134","689488","0.0-37.2-0.2","1155","pics2/SW4.jpg,pics2/SW1.jpg","","","","","","","false","0","","","sizeS.png","","",""
"image-slider-2AFC","135","693621","0.0-37.2-1.2","4131","","","","-12","","","","","","","","sizeS.png","3642","-12",""
"html-keyboard-response","136","694437","0.0-37.2-2.2","null","","","","","","","null","","","","","","","",""
"image-selector-fb","137","697462","0.0-37.3-0.3","null","pics2/SW1.jpg,pics2/FR6.jpg","","","","","","","false","null","","","noS.png","","",""
"image-slider-2AFC","138","700876","0.0-37.3-1.3","3410","","","","-29","","","","","","","","heartS.png","2846","-29",""
"html-keyboard-response","139","701631","0.0-37.3-2.3","null","","","","","","","null","","","","","","","",""
"image-selector-fb","140","704652","0.0-37.4-0.4","null","pics2/SA2.jpg,pics2/VE3.jpg","","","","","","","false","null","","","noS.png","","",""
"image-slider-2AFC","141","709664","0.0-37.4-1.4","null","","","","null","","","","","","","","sizeS.png","2349,4177","-19,-18",""
"html-keyboard-response","142","710517","0.0-37.4-2.4","null","","","","","","","null","","","","","","","",""
"image-selector-fb","143","713531","0.0-37.5-0.5","null","pics2/FR2.jpg,pics2/SW2.jpg","","","","","","","false","null","","","noS.png","","",""
"image-slider-2AFC","144","717586","0.0-37.5-1.5","4053","","","","43","","","","","","","","heartS.png","3345","43",""
"html-keyboard-response","145","718458","0.0-37.5-2.5","null","","","","","","","null","","","","","","","",""
"image-selector-fb","146","721475","0.0-37.6-0.6","null","pics2/FR6.jpg,pics2/FR4.jpg","","","","","","","false","null","","","noS.png","","",""
"image-slider-2AFC","147","724432","0.0-37.6-1.6","2955","","","","45","","","","","","","","sizeS.png","2406","45",""
"html-keyboard-response","148","725233","0.0-37.6-2.6","null","","","","","","","null","","","","","","","",""
"image-selector-fb","149","727996","0.0-37.7-0.7","2252","pics2/SA6.jpg,pics2/VE3.jpg","","","","","","","false","0","","","heartS.png","","",""
"image-slider-2AFC","150","730783","0.0-37.7-1.7","2783","","","","-7","","","","","","","","heartS.png","2294","-7",""
"html-keyboard-response","151","731511","0.0-37.7-2.7","null","","","","","","","null","","","","","","","",""
"image-selector-fb","152","733203","0.0-37.8-0.8","1188","pics2/FR1.jpg,pics2/SW1.jpg","","","","","","","true","1","","","heartS.png","","",""
"image-slider-2AFC","153","736170","0.0-37.8-1.8","2965","","","","21","","","","","","","","heartS.png","2363","21",""
"html-keyboard-response","154","736880","0.0-37.8-2.8","null","","","","","","","null","","","","","","","",""
"image-selector-fb","155","738583","0.0-37.9-0.9","1197","pics2/FR1.jpg,pics2/SA2.jpg","","","","","","","false","0","","","heartS.png","","",""
"image-slider-2AFC","156","741354","0.0-37.9-1.9","2769","","","","-47","","","","","","","","heartS.png","2062","-47",""
"html-keyboard-response","157","742058","0.0-37.9-2.9","null","","","","","","","null","","","","","","","",""
"image-selector-fb","158","743999","0.0-37.10-0.10","1437","pics2/SW4.jpg,pics2/FR2.jpg","","","","","","","false","0","","","sizeS.png","","",""
"image-slider-2AFC","159","747469","0.0-37.10-1.10","3468","","","","-51","","","","","","","","heartS.png","2776","-51",""
"html-keyboard-response","160","748299","0.0-37.10-2.10","null","","","","","","","null","","","","","","","",""
"image-selector-fb","161","751322","0.0-37.11-0.11","null","pics2/FR2.jpg,pics2/FR6.jpg","","","","","","","false","null","","","noS.png","","",""
"image-slider-2AFC","162","754792","0.0-37.11-1.11","3469","","","","-53","","","","","","","","sizeS.png","2628","-53",""
"html-keyboard-response","163","755554","0.0-37.11-2.11","null","","","","","","","null","","","","","","","",""
"html-button-response","164","759337","0.0-38.0","3782","<i><font size=10>Good job!</font></i> <br><br>Before we begin, you have a chance to review the rules, in case something was not clear.<br><br>","0","","","","","","","","","","","","",""
"instructions","165","762918","0.0-39.0","3580","","","","","","","","","","","","","","","[{""page_index"":0,""viewing_time"":1187},{""page_index"":1,""viewing_time"":1354},{""page_index"":2,""viewing_time"":1039}]"
"html-button-response","166","768581","0.0-40.0","5661","<div style='width: 900px;'> <font size='40'>Great! Now you're ready to begin</font><br><br>The main part of the experiment will consist of <u>3 blocks</u>. Each block consists of 66 decisions and judgements. You will have time for a short break between blocks.<br><br><br><i><u>Do your best to respond within the time limit.</u></i><br><br><i> Press the button to start the experiment<br><br></i>","0","","","","","","","","","","","","",""
"image-selector-fb","167","771089","0.0-41.0-0.0","2003","pics2/SW6.jpg,pics2/VE6.jpg","","","","","","","true","1","","","sizeS.png","","",""
"image-slider-2AFC","168","773490","0.0-41.0-1.0","2398","","","","43","","","","","","","","sizeS.png","1473","43",""
"html-keyboard-response","169","774241","0.0-41.0-2.0","null","","","","","","","null","","","","","","","",""
"image-selector-fb","170","776709","0.0-41.1-0.1","1964","pics2/VE5.jpg,pics2/FR5.jpg","","","","","","","false","0","","","sizeS.png","","",""
"image-slider-2AFC","171","779358","0.0-41.1-1.1","2647","","","","-56","","","","","","","","heartS.png","2076","-56",""
"html-keyboard-response","172","780209","0.0-41.1-2.1","null","","","","","","","null","","","","","","","",""
"image-selector-fb","173","783215","0.0-41.2-0.2","null","pics2/FR5.jpg,pics2/VE4.jpg","","","","","","","false","null","","","noS.png","","",""
"image-slider-2AFC","174","787084","0.0-41.2-1.2","3867","","","","47","","","","","","","","heartS.png","3175","47",""
"html-keyboard-response","175","787914","0.0-41.2-2.2","null","","","","","","","null","","","","","","","",""
"image-selector-fb","176","790931","0.0-41.3-0.3","null","pics2/FR3.jpg,pics2/SW6.jpg","","","","","","","false","null","","","noS.png","","",""
"image-slider-2AFC","177","794870","0.0-41.3-1.3","3937","","","","-57","","","","","","","","sizeS.png","3237","-57",""
"html-keyboard-response","178","795603","0.0-41.3-2.3","null","","","","","","","null","","","","","","","",""
"image-selector-fb","179","798627","0.0-41.4-0.4","null","pics2/VE4.jpg,pics2/SA3.jpg","","","","","","","false","null","","","noS.png","","",""
"image-slider-2AFC","180","801386","0.0-41.4-1.4","2757","","","","58","","","","","","","","sizeS.png","2027","58",""
"html-keyboard-response","181","802163","0.0-41.4-2.4","null","","","","","","","null","","","","","","","",""
"image-selector-fb","182","805447","0.0-41.5-0.5","2780","pics2/SA3.jpg,pics2/SA4.jpg","","","","","","","false","0","","","sizeS.png","","",""
"image-slider-2AFC","183","808587","0.0-41.5-1.5","3136","","","","-100","","","","","","","","heartS.png","2353","-100",""
"html-keyboard-response","184","809415","0.0-41.5-2.5","null","","","","","","","null","","","","","","","",""
"image-selector-fb","185","812421","0.0-41.6-0.6","null","pics2/VE6.jpg,pics2/SW6.jpg","","","","","","","false","null","","","noS.png","","",""
"image-slider-2AFC","186","817434","0.0-41.6-1.6","null","","","","null","","","","","","","","heartS.png","3328","-100",""
"html-keyboard-response","187","818299","0.0-41.6-2.6","null","","","","","","","null","","","","","","","",""
"image-selector-fb","188","821314","0.0-41.7-0.7","null","pics2/VE6.jpg,pics2/FR3.jpg","","","","","","","false","null","","","noS.png","","",""
"image-slider-2AFC","189","824690","0.0-41.7-1.7","3374","","","","-58","","","","","","","","heartS.png","2652","-58",""
"html-keyboard-response","190","825461","0.0-41.7-2.7","null","","","","","","","null","","","","","","","",""
"image-selector-fb","191","827629","0.0-41.8-0.8","1664","pics2/SA4.jpg,pics2/VE6.jpg","","","","","","","true","1","","","sizeS.png","","",""
"image-slider-2AFC","192","830679","0.0-41.8-1.8","3047","","","","49","","","","","","","","heartS.png","2362","49",""
"html-keyboard-response","193","831436","0.0-41.8-2.8","null","","","","","","","null","","","","","","","",""
"image-selector-fb","194","833912","0.0-41.9-0.9","1958","pics2/VE6.jpg,pics2/VE5.jpg","","","","","","","false","0","","","heartS.png","","",""
"image-slider-2AFC","195","836216","0.0-41.9-1.9","2301","","","","-43","","","","","","","","heartS.png","1753","-43",""
"html-keyboard-response","196","837046","0.0-41.9-2.9","null","","","","","","","null","","","","","","","",""
"image-selector-fb","197","839644","0.0-41.10-0.10","2094","pics2/SW5.jpg,pics2/VE4.jpg","","","","","","","false","0","","","heartS.png","","",""
"image-slider-2AFC","198","842159","0.0-41.10-1.10","2513","","","","-18","","","","","","","","heartS.png","1648","-18",""
"html-keyboard-response","199","843029","0.0-41.10-2.10","null","","","","","","","null","","","","","","","",""
"image-selector-fb","200","846044","0.0-41.11-0.11","null","pics2/SW3.jpg,pics2/FR5.jpg","","","","","","","false","null","","","noS.png","","",""
"image-slider-2AFC","201","849159","0.0-41.11-1.11","3112","","","","-47","","","","","","","","heartS.png","2420","-47",""
"html-keyboard-response","202","849940","0.0-41.11-2.11","null","","","","","","","null","","","","","","","",""
"image-selector-fb","203","851782","0.0-41.12-0.12","1337","pics2/SW3.jpg,pics2/SA5.jpg","","","","","","","false","0","","","heartS.png","","",""
"image-slider-2AFC","204","854747","0.0-41.12-1.12","2963","","","","-19","","","","","","","","sizeS.png","1948","-19",""
"html-keyboard-response","205","855557","0.0-41.12-2.12","null","","","","","","","null","","","","","","","",""
"image-selector-fb","206","857556","0.0-41.13-0.13","1488","pics2/SA4.jpg,pics2/VE5.jpg","","","","","","","false","0","","","heartS.png","","",""
"image-slider-2AFC","207","860745","0.0-41.13-1.13","3188","","","","-30","","","","","","","","heartS.png","2113","-30",""
"html-keyboard-response","208","861547","0.0-41.13-2.13","null","","","","","","","null","","","","","","","",""
"image-selector-fb","209","863097","0.0-41.14-0.14","1046","pics2/SW3.jpg,pics2/VE4.jpg","","","","","","","true","1","","","sizeS.png","","",""
"image-slider-2AFC","210","865681","0.0-41.14-1.14","2582","","","","31","","","","","","","","heartS.png","1868","31",""
"html-keyboard-response","211","866442","0.0-41.14-2.14","null","","","","","","","null","","","","","","","",""
"image-selector-fb","212","868569","0.0-41.15-0.15","1622","pics2/VE6.jpg,pics2/SA3.jpg","","","","","","","false","0","","","heartS.png","","",""
"image-slider-2AFC","213","871167","0.0-41.15-1.15","2596","","","","-51","","","","","","","","sizeS.png","1979","-51",""
"html-keyboard-response","214","871886","0.0-41.15-2.15","null","","","","","","","null","","","","","","","",""
"image-selector-fb","215","873374","0.0-41.16-0.16","979","pics2/VE5.jpg,pics2/SW5.jpg","","","","","","","true","1","","","sizeS.png","","",""
"image-slider-2AFC","216","875885","0.0-41.16-1.16","2509","","","","32","","","","","","","","sizeS.png","1780","32",""
"html-keyboard-response","217","876644","0.0-41.16-2.16","null","","","","","","","null","","","","","","","",""
"image-selector-fb","218","879652","0.0-41.17-0.17","null","pics2/VE1.jpg,pics2/SW6.jpg","","","","","","","false","null","","","noS.png","","",""
"image-slider-2AFC","219","882610","0.0-41.17-1.17","2956","","","","-55","","","","","","","","sizeS.png","2369","-55",""
"html-keyboard-response","220","883389","0.0-41.17-2.17","null","","","","","","","null","","","","","","","",""
"image-selector-fb","221","886404","0.0-41.18-0.18","null","pics2/VE1.jpg,pics2/FR3.jpg","","","","","","","false","null","","","noS.png","","",""
"image-slider-2AFC","222","889679","0.0-41.18-1.18","3272","","","","49","","","","","","","","sizeS.png","2693","49",""
"html-keyboard-response","223","890453","0.0-41.18-2.18","null","","","","","","","null","","","","","","","",""
"image-selector-fb","224","892881","0.0-41.19-0.19","1923","pics2/VE6.jpg,pics2/SW3.jpg","","","","","","","true","1","","","heartS.png","","",""
"image-slider-2AFC","225","895072","0.0-41.19-1.19","2187","","","","32","","","","","","","","sizeS.png","1638","32",""
"html-keyboard-response","226","895897","0.0-41.19-2.19","null","","","","","","","null","","","","","","","",""
"image-selector-fb","227","898039","0.0-41.20-0.20","1639","pics2/VE6.jpg,pics2/FR5.jpg","","","","","","","false","0","","","sizeS.png","","",""
"image-slider-2AFC","228","901350","0.0-41.20-1.20","3308","","","","-26","","","","","","","","sizeS.png","2444","-26",""
"html-keyboard-response","229","902164","0.0-41.20-2.20","null","","","","","","","null","","","","","","","",""
"image-selector-fb","230","904763","0.0-41.21-0.21","2095","pics2/SW3.jpg,pics2/VE1.jpg","","","","","","","false","0","","","sizeS.png","","",""
"image-slider-2AFC","231","907314","0.0-41.21-1.21","2549","","","","-34","","","","","","","","heartS.png","2022","-34",""
"html-keyboard-response","232","908170","0.0-41.21-2.21","null","","","","","","","null","","","","","","","",""
"image-selector-fb","233","911205","0.0-41.22-0.22","null","pics2/SW3.jpg,pics2/SA4.jpg","","","","","","","false","null","","","noS.png","","",""
"image-slider-2AFC","234","916207","0.0-41.22-1.22","5000","","","","25","","","","","","","","heartS.png","4284","25",""
"html-keyboard-response","235","916921","0.0-41.22-2.22","null","","","","","","","null","","","","","","","",""
"image-selector-fb","236","920538","0.0-41.23-0.23","3113","pics2/FR3.jpg,pics2/SW3.jpg","","","","","","","true","1","","","heartS.png","","",""
"image-slider-2AFC","237","922677","0.0-41.23-1.23","2136","","","","31","","","","","","","","heartS.png","1593","31",""
"html-keyboard-response","238","923490","0.0-41.23-2.23","null","","","","","","","null","","","","","","","",""
"image-selector-fb","239","926006","0.0-41.24-0.24","2013","pics2/FR5.jpg,pics2/VE5.jpg","","","","","","","true","1","","","heartS.png","","",""
"image-slider-2AFC","240","928402","0.0-41.24-1.24","2394","","","","19","","","","","","","","heartS.png","1852","19",""
"html-keyboard-response","241","929230","0.0-41.24-2.24","null","","","","","","","null","","","","","","","",""
"image-selector-fb","242","930593","0.0-41.25-0.25","859","pics2/FR5.jpg,pics2/VE4.jpg","","","","","","","true","1","","","heartS.png","","",""
"image-slider-2AFC","243","932885","0.0-41.25-1.25","2291","","","","-44","","","","","","","","sizeS.png","1598","-44",""
"html-keyboard-response","244","933642","0.0-41.25-2.25","null","","","","","","","null","","","","","","","",""
"image-selector-fb","245","936559","0.0-41.26-0.26","2412","pics2/VE4.jpg,pics2/SW6.jpg","","","","","","","true","1","","","sizeS.png","","",""
"image-slider-2AFC","246","939392","0.0-41.26-1.26","2831","","","","12","","","","","","","","sizeS.png","2047","12",""
"html-keyboard-response","247","940259","0.0-41.26-2.26","null","","","","","","","null","","","","","","","",""
"image-selector-fb","248","943273","0.0-41.27-0.27","null","pics2/SW6.jpg,pics2/SA4.jpg","","","","","","","false","null","","","noS.png","","",""
"image-slider-2AFC","249","945627","0.0-41.27-1.27","2352","","","","-26","","","","","","","","sizeS.png","1749","-26",""
"html-keyboard-response","250","946348","0.0-41.27-2.27","null","","","","","","","null","","","","","","","",""
"image-selector-fb","251","948213","0.0-41.28-0.28","1362","pics2/SW6.jpg,pics2/SA5.jpg","","","","","","","false","0","","","heartS.png","","",""
"image-slider-2AFC","252","951101","0.0-41.28-1.28","2886","","","","-19","","","","","","","","sizeS.png","2337","-19",""
"html-keyboard-response","253","951861","0.0-41.28-2.28","null","","","","","","","null","","","","","","","",""
"image-selector-fb","254","954500","0.0-41.29-0.29","2135","pics2/FR3.jpg,pics2/SW6.jpg","","","","","","","true","1","","","sizeS.png","","",""
"image-slider-2AFC","255","956717","0.0-41.29-1.29","2216","","","","27","","","","","","","","heartS.png","1584","27",""
"html-keyboard-response","256","957577","0.0-41.29-2.29","null","","","","","","","null","","","","","","","",""
"image-selector-fb","257","959546","0.0-41.30-0.30","1466","pics2/VE4.jpg,pics2/FR3.jpg","","","","","","","true","1","","","sizeS.png","","",""
"image-slider-2AFC","258","961696","0.0-41.30-1.30","2148","","","","-27","","","","","","","","heartS.png","1364","-27",""
"html-keyboard-response","259","962517","0.0-41.30-2.30","null","","","","","","","null","","","","","","","",""
"image-selector-fb","260","964488","0.0-41.31-0.31","1468","pics2/VE1.jpg,pics2/SA4.jpg","","","","","","","true","1","","","heartS.png","","",""
"image-slider-2AFC","261","966600","0.0-41.31-1.31","2110","","","","-21","","","","","","","","sizeS.png","1605","-21",""
"html-keyboard-response","262","967309","0.0-41.31-2.31","null","","","","","","","null","","","","","","","",""
"image-selector-fb","263","970331","0.0-41.32-0.32","null","pics2/FR5.jpg,pics2/SA4.jpg","","","","","","","false","null","","","noS.png","","",""
"image-slider-2AFC","264","973321","0.0-41.32-1.32","2988","","","","20","","","","","","","","heartS.png","1802","20",""
"html-keyboard-response","265","974130","0.0-41.32-2.32","null","","","","","","","null","","","","","","","",""
"image-selector-fb","266","975705","0.0-41.33-0.33","1072","pics2/SA4.jpg,pics2/SA3.jpg","","","","","","","false","0","","","heartS.png","","",""
"image-slider-2AFC","267","978391","0.0-41.33-1.33","2683","","","","16","","","","","","","","sizeS.png","2156","16",""
"html-keyboard-response","268","979162","0.0-41.33-2.33","null","","","","","","","null","","","","","","","",""
"image-selector-fb","269","982180","0.0-41.34-0.34","null","pics2/SW3.jpg,pics2/VE4.jpg","","","","","","","false","null","","","noS.png","","",""
"image-slider-2AFC","270","986036","0.0-41.34-1.34","3854","","","","17","","","","","","","","heartS.png","1391,2799","2,17",""
"html-keyboard-response","271","986751","0.0-41.34-2.34","null","","","","","","","null","","","","","","","",""
"image-selector-fb","272","988768","0.0-41.35-0.35","1513","pics2/SW5.jpg,pics2/SW3.jpg","","","","","","","false","0","","","heartS.png","","",""
"image-slider-2AFC","273","991122","0.0-41.35-1.35","2352","","","","-18","","","","","","","","heartS.png","1455","-18",""
"html-keyboard-response","274","991988","0.0-41.35-2.35","null","","","","","","","null","","","","","","","",""
"image-selector-fb","275","995003","0.0-41.36-0.36","null","pics2/FR5.jpg,pics2/SW6.jpg","","","","","","","false","null","","","noS.png","","",""
"image-slider-2AFC","276","999032","0.0-41.36-1.36","4027","","","","-25","","","","","","","","sizeS.png","3303","-25",""
"html-keyboard-response","277","999904","0.0-41.36-2.36","null","","","","","","","null","","","","","","","",""
"image-selector-fb","278","1002197","0.0-41.37-0.37","1785","pics2/SA5.jpg,pics2/FR3.jpg","","","","","","","true","1","","","sizeS.png","","",""
"image-slider-2AFC","279","1004863","0.0-41.37-1.37","2665","","","","-12","","","","","","","","heartS.png","2212","-12",""
"html-keyboard-response","280","1005676","0.0-41.37-2.37","null","","","","","","","null","","","","","","","",""
"image-selector-fb","281","1008091","0.0-41.38-0.38","1904","pics2/VE4.jpg,pics2/FR5.jpg","","","","","","","true","1","","","sizeS.png","","",""
"image-slider-2AFC","282","1012741","0.0-41.38-1.38","4647","","","","14","","","","","","","","sizeS.png","4098","14",""
"html-keyboard-response","283","1013569","0.0-41.38-2.38","null","","","","","","","null","","","","","","","",""
"image-selector-fb","284","1016593","0.0-41.39-0.39","null","pics2/VE6.jpg,pics2/VE5.jpg","","","","","","","false","null","","","noS.png","","",""
"image-slider-2AFC","285","1020202","0.0-41.39-1.39","3606","","","","-27","","","","","","","","heartS.png","2861","-27",""
"html-keyboard-response","286","1021025","0.0-41.39-2.39","null","","","","","","","null","","","","","","","",""
"image-selector-fb","287","1024046","0.0-41.40-0.40","null","pics2/VE4.jpg,pics2/VE5.jpg","","","","","","","false","null","","","noS.png","","",""
"image-slider-2AFC","288","1026625","0.0-41.40-1.40","2577","","","","-24","","","","","","","","heartS.png","2065","-24",""
"html-keyboard-response","289","1027494","0.0-41.40-2.40","null","","","","","","","null","","","","","","","",""
"image-selector-fb","290","1030282","0.0-41.41-0.41","2284","pics2/SA5.jpg,pics2/SW6.jpg","","","","","","","true","1","","","sizeS.png","","",""
"image-slider-2AFC","291","1032115","0.0-41.41-1.41","1831","","","","11","","","","","","","","sizeS.png","1281","11",""
"html-keyboard-response","292","1032829","0.0-41.41-2.41","null","","","","","","","null","","","","","","","",""
"image-selector-fb","293","1034762","0.0-41.42-0.42","1430","pics2/SA5.jpg,pics2/FR5.jpg","","","","","","","true","1","","","sizeS.png","","",""
"image-slider-2AFC","294","1037198","0.0-41.42-1.42","2435","","","","41","","","","","","","","sizeS.png","1622","41",""
"html-keyboard-response","295","1037903","0.0-41.42-2.42","null","","","","","","","null","","","","","","","",""
"image-selector-fb","296","1042408","0.0-41.43-0.43","null","pics2/VE1.jpg,pics2/VE5.jpg","","","","","","","false","null","","","heartS.png","","",""
"image-slider-2AFC","297","1042409","0.0-41.43-1.43","null","","","","null","","","","","","","","sizeS.png","","",""
"html-keyboard-response","298","1043225","0.0-41.43-2.43","null","","","","","","","null","","","","","","","",""
"image-selector-fb","299","1044901","0.0-41.44-0.44","1169","pics2/SW6.jpg,pics2/VE1.jpg","","","","","","","true","1","","","sizeS.png","","",""
"image-slider-2AFC","300","1047603","0.0-41.44-1.44","2700","","","","-20","","","","","","","","heartS.png","2045","-20",""
"html-keyboard-response","301","1048311","0.0-41.44-2.44","null","","","","","","","null","","","","","","","",""
"image-selector-fb","302","1050136","0.0-41.45-0.45","1322","pics2/SW6.jpg,pics2/SA3.jpg","","","","","","","false","0","","","heartS.png","","",""
"image-slider-2AFC","303","1053430","0.0-41.45-1.45","3292","","","","26","","","","","","","","heartS.png","2750","26",""
"html-keyboard-response","304","1054255","0.0-41.45-2.45","null","","","","","","","null","","","","","","","",""
"image-selector-fb","305","1056394","0.0-41.46-0.46","1635","pics2/SA3.jpg,pics2/FR5.jpg","","","","","","","false","0","","","sizeS.png","","",""
"image-slider-2AFC","306","1058770","0.0-41.46-1.46","2372","","","","-43","","","","","","","","sizeS.png","1574","-43",""
"html-keyboard-response","307","1059594","0.0-41.46-2.46","null","","","","","","","null","","","","","","","",""
"image-selector-fb","308","1061275","0.0-41.47-0.47","1177","pics2/VE4.jpg,pics2/SW5.jpg","","","","","","","false","0","","","sizeS.png","","",""
"image-slider-2AFC","309","1063282","0.0-41.47-1.47","2004","","","","11","","","","","","","","heartS.png","1220","11",""
"html-keyboard-response","310","1064044","0.0-41.47-2.47","null","","","","","","","null","","","","","","","",""
"image-selector-fb","311","1066293","0.0-41.48-0.48","1745","pics2/VE5.jpg,pics2/SA4.jpg","","","","","","","false","0","","","sizeS.png","","",""
"image-slider-2AFC","312","1070106","0.0-41.48-1.48","3811","","","","-24","","","","","","","","sizeS.png","3216","-24",""
"html-keyboard-response","313","1070969","0.0-41.48-2.48","null","","","","","","","null","","","","","","","",""
"image-selector-fb","314","1075496","0.0-41.49-0.49","null","pics2/VE6.jpg,pics2/SA5.jpg","","","","","","","false","null","","","heartS.png","","",""
"image-slider-2AFC","315","1075497","0.0-41.49-1.49","null","","","","null","","","","","","","","heartS.png","","",""
"html-keyboard-response","316","1076265","0.0-41.49-2.49","null","","","","","","","null","","","","","","","",""
"image-selector-fb","317","1080777","0.0-41.50-0.50","null","pics2/VE6.jpg,pics2/VE1.jpg","","","","","","","false","null","","","sizeS.png","","",""
"image-slider-2AFC","318","1080778","0.0-41.50-1.50","null","","","","null","","","","","","","","sizeS.png","","",""
"html-keyboard-response","319","1081547","0.0-41.50-2.50","null","","","","","","","null","","","","","","","",""
"image-selector-fb","320","1083815","0.0-41.51-0.51","1756","pics2/SW5.jpg,pics2/SA4.jpg","","","","","","","false","0","","","heartS.png","","",""
"image-slider-2AFC","321","1086410","0.0-41.51-1.51","2593","","","","-30","","","","","","","","sizeS.png","2012","-30",""
"html-keyboard-response","322","1087273","0.0-41.51-2.51","null","","","","","","","null","","","","","","","",""
"image-selector-fb","323","1088864","0.0-41.52-0.52","1087","pics2/SW5.jpg,pics2/SA5.jpg","","","","","","","false","0","","","heartS.png","","",""
"image-slider-2AFC","324","1091738","0.0-41.52-1.52","2873","","","","-31","","","","","","","","sizeS.png","2180","-31",""
"html-keyboard-response","325","1092457","0.0-41.52-2.52","null","","","","","","","null","","","","","","","",""
"image-selector-fb","326","1095470","0.0-41.53-0.53","null","pics2/SW5.jpg,pics2/SW6.jpg","","","","","","","false","null","","","noS.png","","",""
"image-slider-2AFC","327","1098558","0.0-41.53-1.53","3086","","","","-27","","","","","","","","heartS.png","2627","-27",""
"html-keyboard-response","328","1099360","0.0-41.53-2.53","null","","","","","","","null","","","","","","","",""
"image-selector-fb","329","1102372","0.0-41.54-0.54","null","pics2/VE6.jpg,pics2/SA4.jpg","","","","","","","false","null","","","noS.png","","",""
"image-slider-2AFC","330","1104362","0.0-41.54-1.54","1988","","","","-35","","","","","","","","sizeS.png","1453","-35",""
"html-keyboard-response","331","1105237","0.0-41.54-2.54","null","","","","","","","null","","","","","","","",""
"image-selector-fb","332","1108250","0.0-41.55-0.55","null","pics2/VE5.jpg,pics2/SA5.jpg","","","","","","","false","null","","","noS.png","","",""
"image-slider-2AFC","333","1111357","0.0-41.55-1.55","3104","","","","-26","","","","","","","","sizeS.png","1883","-26",""
"html-keyboard-response","334","1112077","0.0-41.55-2.55","null","","","","","","","null","","","","","","","",""
"image-selector-fb","335","1114290","0.0-41.56-0.56","1705","pics2/FR3.jpg,pics2/VE5.jpg","","","","","","","false","0","","","heartS.png","","",""
"image-slider-2AFC","336","1117146","0.0-41.56-1.56","2853","","","","-41","","","","","","","","sizeS.png","2205","-41",""
"html-keyboard-response","337","1118025","0.0-41.56-2.56","null","","","","","","","null","","","","","","","",""
"image-selector-fb","338","1120180","0.0-41.57-0.57","1651","pics2/FR3.jpg,pics2/SW5.jpg","","","","","","","true","1","","","sizeS.png","","",""
"image-slider-2AFC","339","1122294","0.0-41.57-1.57","2110","","","","27","","","","","","","","sizeS.png","1620","27",""
"html-keyboard-response","340","1123059","0.0-41.57-2.57","null","","","","","","","null","","","","","","","",""
"image-selector-fb","341","1124954","0.0-41.58-0.58","1380","pics2/SA4.jpg,pics2/FR5.jpg","","","","","","","true","1","","","sizeS.png","","",""
"image-slider-2AFC","342","1127351","0.0-41.58-1.58","2395","","","","28","","","","","","","","sizeS.png","1935","28",""
"html-keyboard-response","343","1128058","0.0-41.58-2.58","null","","","","","","","null","","","","","","","",""
"image-selector-fb","344","1130678","0.0-41.59-0.59","2117","pics2/SW6.jpg,pics2/VE5.jpg","","","","","","","false","0","","","heartS.png","","",""
"image-slider-2AFC","345","1135310","0.0-41.59-1.59","4631","","","","34","","","","","","","","sizeS.png","3930","34",""
"html-keyboard-response","346","1136112","0.0-41.59-2.59","null","","","","","","","null","","","","","","","",""
"image-selector-fb","347","1139132","0.0-41.60-0.60","null","pics2/SW3.jpg,pics2/FR3.jpg","","","","","","","false","null","","","noS.png","","",""
"image-slider-2AFC","348","1142058","0.0-41.60-1.60","2924","","","","-22","","","","","","","","sizeS.png","2411","-22",""
"html-keyboard-response","349","1142886","0.0-41.60-2.60","null","","","","","","","null","","","","","","","",""
"image-selector-fb","350","1145486","0.0-41.61-0.61","2096","pics2/VE5.jpg,pics2/VE6.jpg","","","","","","","true","1","","","sizeS.png","","",""
"image-slider-2AFC","351","1148073","0.0-41.61-1.61","2584","","","","10","","","","","","","","sizeS.png","1890","10",""
"html-keyboard-response","352","1148888","0.0-41.61-2.61","null","","","","","","","null","","","","","","","",""
"image-selector-fb","353","1151588","0.0-41.62-0.62","2197","pics2/FR3.jpg,pics2/FR5.jpg","","","","","","","false","0","","","sizeS.png","","",""
"image-slider-2AFC","354","1153767","0.0-41.62-1.62","2177","","","","-21","","","","","","","","heartS.png","1770","-21",""
"html-keyboard-response","355","1154579","0.0-41.62-2.62","null","","","","","","","null","","","","","","","",""
"image-selector-fb","356","1156414","0.0-41.63-0.63","1331","pics2/VE4.jpg,pics2/VE6.jpg","","","","","","","true","1","","","sizeS.png","","",""
"image-slider-2AFC","357","1159128","0.0-41.63-1.63","2713","","","","-19","","","","","","","","heartS.png","1854","-19",""
"html-keyboard-response","358","1159838","0.0-41.63-2.63","null","","","","","","","null","","","","","","","",""
"image-selector-fb","359","1162849","0.0-41.64-0.64","null","pics2/SW3.jpg,pics2/VE6.jpg","","","","","","","false","null","","","noS.png","","",""
"image-slider-2AFC","360","1167857","0.0-41.64-1.64","null","","","","null","","","","","","","","sizeS.png","","",""
"html-keyboard-response","361","1168732","0.0-41.64-2.64","null","","","","","","","null","","","","","","","",""
"image-selector-fb","362","1171751","0.0-41.65-0.65","null","pics2/SW6.jpg,pics2/VE5.jpg","","","","","","","false","null","","","noS.png","","",""
"image-slider-2AFC","363","1176755","0.0-41.65-1.65","null","","","","null","","","","","","","","heartS.png","","",""
"html-keyboard-response","364","1177508","0.0-41.65-2.65","null","","","","","","","null","","","","","","","",""
"pavlovia","365","1177525","0.0-42.0","","","","","","","","","","","","","","","",""
"html-keyboard-response","366","1182537","0.0-43.0","null","<div style='width: 700px;'> <font size=6><b>SHORT BREAK</font></b><br><br><i> Please wait 5 seconds to continue</i></div> ","","","","","","null","","","","","","","",""
"pavlovia","367","1182539","0.0-44.0","","","","","","","","","","","","","","","",""
"html-button-response","368","1281452","0.0-45.0","98912","<div style='width: 700px;'> <font size=6><b>BLOCK 2</font></b><br><br>Press the button whenever you feel ready to start the second block (there are 3 in total)</div>","0","","","","","","","","","","","","",""
"image-selector-fb","369","1284462","0.0-46.0-0.0","null","pics2/VE6.jpg,pics2/SA5.jpg","","","","","","","false","null","","","noS.png","","",""
"image-slider-2AFC","370","1287756","0.0-46.0-1.0","3293","","","","-27","","","","","","","","heartS.png","2022","-27",""
"html-keyboard-response","371","1288585","0.0-46.0-2.0","null","","","","","","","null","","","","","","","",""
"image-selector-fb","372","1290137","0.0-46.1-0.1","1047","pics2/VE1.jpg,pics2/SW6.jpg","","","","","","","true","1","","","heartS.png","","",""
"image-slider-2AFC","373","1292429","0.0-46.1-1.1","2291","","","","4","","","","","","","","heartS.png","1788","4",""
"html-keyboard-response","374","1293201","0.0-46.1-2.1","null","","","","","","","null","","","","","","","",""
"image-selector-fb","375","1295532","0.0-46.2-0.2","1827","pics2/FR3.jpg,pics2/VE6.jpg","","","","","","","false","0","","","sizeS.png","","",""
"image-slider-2AFC","376","1297384","0.0-46.2-1.2","1849","","","","-9","","","","","","","","sizeS.png","1488","-9",""
"html-keyboard-response","377","1298161","0.0-46.2-2.2","null","","","","","","","null","","","","","","","",""
"image-selector-fb","378","1300051","0.0-46.3-0.3","1384","pics2/VE5.jpg,pics2/VE1.jpg","","","","","","","false","0","","","sizeS.png","","",""
"image-slider-2AFC","379","1302166","0.0-46.3-1.3","2113","","","","-18","","","","","","","","heartS.png","1699","-18",""
"html-keyboard-response","380","1302869","0.0-46.3-2.3","null","","","","","","","null","","","","","","","",""
"image-selector-fb","381","1304217","0.0-46.4-0.4","845","pics2/SA3.jpg,pics2/VE6.jpg","","","","","","","false","0","","","sizeS.png","","",""
"image-slider-2AFC","382","1306287","0.0-46.4-1.4","2068","","","","-44","","","","","","","","heartS.png","1225","-44",""
"html-keyboard-response","383","1307098","0.0-46.4-2.4","null","","","","","","","null","","","","","","","",""
"image-selector-fb","384","1309111","0.0-46.5-0.5","1510","pics2/SA3.jpg,pics2/SW3.jpg","","","","","","","true","1","","","sizeS.png","","",""
"image-slider-2AFC","385","1311076","0.0-46.5-1.5","1963","","","","16","","","","","","","","sizeS.png","1541","16",""
"html-keyboard-response","386","1311779","0.0-46.5-2.5","null","","","","","","","null","","","","","","","",""
"image-selector-fb","387","1313507","0.0-46.6-0.6","1219","pics2/SW3.jpg,pics2/VE6.jpg","","","","","","","false","0","","","sizeS.png","","",""
"image-slider-2AFC","388","1315593","0.0-46.6-1.6","2085","","","","-23","","","","","","","","sizeS.png","1664","-23",""
"html-keyboard-response","389","1316300","0.0-46.6-2.6","null","","","","","","","null","","","","","","","",""
"image-selector-fb","390","1318072","0.0-46.7-0.7","1267","pics2/SA3.jpg,pics2/VE1.jpg","","","","","","","true","1","","","sizeS.png","","",""
"image-slider-2AFC","391","1319885","0.0-46.7-1.7","1812","","","","18","","","","","","","","sizeS.png","1338","18",""
"html-keyboard-response","392","1320637","0.0-46.7-2.7","null","","","","","","","null","","","","","","","",""
"image-selector-fb","393","1322709","0.0-46.8-0.8","1568","pics2/VE1.jpg,pics2/SA3.jpg","","","","","","","true","1","","","heartS.png","","",""
"image-slider-2AFC","394","1324372","0.0-46.8-1.8","1661","","","","13","","","","","","","","heartS.png","1247","13",""
"html-keyboard-response","395","1325136","0.0-46.8-2.8","null","","","","","","","null","","","","","","","",""
"image-selector-fb","396","1327814","0.0-46.9-0.9","2173","pics2/FR5.jpg,pics2/SA5.jpg","","","","","","","true","1","","","heartS.png","","",""
"image-slider-2AFC","397","1329898","0.0-46.9-1.9","2082","","","","6","","","","","","","","heartS.png","1707","6",""
"html-keyboard-response","398","1330615","0.0-46.9-2.9","null","","","","","","","null","","","","","","","",""
"image-selector-fb","399","1332608","0.0-46.10-0.10","1488","pics2/FR3.jpg,pics2/VE1.jpg","","","","","","","false","0","","","sizeS.png","","",""
"image-slider-2AFC","400","1335962","0.0-46.10-1.10","3351","","","","-1","","","","","","","","heartS.png","2998","-1",""
"html-keyboard-response","401","1336764","0.0-46.10-2.10","null","","","","","","","null","","","","","","","",""
"image-selector-fb","402","1339094","0.0-46.11-0.11","1826","pics2/SA3.jpg,pics2/FR3.jpg","","","","","","","true","1","","","sizeS.png","","",""
"image-slider-2AFC","403","1340705","0.0-46.11-1.11","1608","","","","-13","","","","","","","","heartS.png","1210","-13",""
"html-keyboard-response","404","1341572","0.0-46.11-2.11","null","","","","","","","null","","","","","","","",""
"image-selector-fb","405","1344587","0.0-46.12-0.12","null","pics2/SA4.jpg,pics2/SA5.jpg","","","","","","","false","null","","","noS.png","","",""
"image-slider-2AFC","406","1349590","0.0-46.12-1.12","null","","","","null","","","","","","","","heartS.png","","",""
"html-keyboard-response","407","1350351","0.0-46.12-2.12","null","","","","","","","null","","","","","","","",""
"image-selector-fb","408","1351978","0.0-46.13-0.13","1120","pics2/SW6.jpg,pics2/SA4.jpg","","","","","","","false","0","","","heartS.png","","",""
"image-slider-2AFC","409","1354505","0.0-46.13-1.13","2526","","","","-17","","","","","","","","sizeS.png","2172","-17",""
"html-keyboard-response","410","1355242","0.0-46.13-2.13","null","","","","","","","null","","","","","","","",""
"image-selector-fb","411","1357481","0.0-46.14-0.14","1734","pics2/SA3.jpg,pics2/SW6.jpg","","","","","","","false","0","","","sizeS.png","","",""
"image-slider-2AFC","412","1360681","0.0-46.14-1.14","3198","","","","-6","","","","","","","","sizeS.png","2798","-6",""
"html-keyboard-response","413","1361443","0.0-46.14-2.14","null","","","","","","","null","","","","","","","",""
"image-selector-fb","414","1364468","0.0-46.15-0.15","null","pics2/SW5.jpg,pics2/SA4.jpg","","","","","","","false","null","","","noS.png","","",""
"image-slider-2AFC","415","1366929","0.0-46.15-1.15","2458","","","","-11","","","","","","","","sizeS.png","2053","-11",""
"html-keyboard-response","416","1367646","0.0-46.15-2.15","null","","","","","","","null","","","","","","","",""
"image-selector-fb","417","1369964","0.0-46.16-0.16","1814","pics2/SA4.jpg,pics2/VE4.jpg","","","","","","","true","1","","","sizeS.png","","",""
"image-slider-2AFC","418","1372020","0.0-46.16-1.16","2053","","","","10","","","","","","","","sizeS.png","1670","10",""
"html-keyboard-response","419","1372841","0.0-46.16-2.16","null","","","","","","","null","","","","","","","",""
"image-selector-fb","420","1374747","0.0-46.17-0.17","1402","pics2/VE4.jpg,pics2/SA3.jpg","","","","","","","true","1","","","heartS.png","","",""
"image-slider-2AFC","421","1378600","0.0-46.17-1.17","3850","","","","12","","","","","","","","sizeS.png","1369","12",""
"html-keyboard-response","422","1379315","0.0-46.17-2.17","null","","","","","","","null","","","","","","","",""
"image-selector-fb","423","1382151","0.0-46.18-0.18","2331","pics2/SA3.jpg,pics2/VE4.jpg","","","","","","","false","0","","","sizeS.png","","",""
"image-slider-2AFC","424","1384792","0.0-46.18-1.18","2639","","","","-8","","","","","","","","sizeS.png","2241","-8",""
"html-keyboard-response","425","1385609","0.0-46.18-2.18","null","","","","","","","null","","","","","","","",""
"image-selector-fb","426","1388249","0.0-46.19-0.19","2128","pics2/SA5.jpg,pics2/SA4.jpg","","","","","","","false","0","","","sizeS.png","","",""
"image-slider-2AFC","427","1390174","0.0-46.19-1.19","1924","","","","-9","","","","","","","","heartS.png","1518","-9",""
"html-keyboard-response","428","1390879","0.0-46.19-2.19","null","","","","","","","null","","","","","","","",""
"image-selector-fb","429","1393141","0.0-46.20-0.20","1758","pics2/SA3.jpg,pics2/VE5.jpg","","","","","","","true","1","","","sizeS.png","","",""
"image-slider-2AFC","430","1395105","0.0-46.20-1.20","1962","","","","4","","","","","","","","heartS.png","1518","4",""
"html-keyboard-response","431","1395873","0.0-46.20-2.20","null","","","","","","","null","","","","","","","",""
"image-selector-fb","432","1398881","0.0-46.21-0.21","null","pics2/FR3.jpg,pics2/VE5.jpg","","","","","","","false","null","","","noS.png","","",""
"image-slider-2AFC","433","1403167","0.0-46.21-1.21","4283","","","","-15","","","","","","","","sizeS.png","3900","-15",""
"html-keyboard-response","434","1403985","0.0-46.21-2.21","null","","","","","","","null","","","","","","","",""
"image-selector-fb","435","1406099","0.0-46.22-0.22","1609","pics2/SW3.jpg,pics2/SA3.jpg","","","","","","","false","0","","","heartS.png","","",""
"image-slider-2AFC","436","1411102","0.0-46.22-1.22","null","","","","null","","","","","","","","heartS.png","4859","-8",""
"html-keyboard-response","437","1411915","0.0-46.22-2.22","null","","","","","","","null","","","","","","","",""
"image-selector-fb","438","1415499","0.0-46.23-0.23","3076","pics2/SA5.jpg,pics2/VE4.jpg","","","","","","","true","1","","","sizeS.png","","",""
"image-slider-2AFC","439","1418529","0.0-46.23-1.23","3028","","","","8","","","","","","","","sizeS.png","2606","8",""
"html-keyboard-response","440","1419254","0.0-46.23-2.23","null","","","","","","","null","","","","","","","",""
"image-selector-fb","441","1423775","0.0-46.24-0.24","null","pics2/VE6.jpg,pics2/SW5.jpg","","","","","","","false","null","","","sizeS.png","","",""
"image-slider-2AFC","442","1423775","0.0-46.24-1.24","null","","","","null","","","","","","","","heartS.png","","",""
"html-keyboard-response","443","1424629","0.0-46.24-2.24","null","","","","","","","null","","","","","","","",""
"image-selector-fb","444","1426610","0.0-46.25-0.25","1476","pics2/VE1.jpg,pics2/VE4.jpg","","","","","","","true","1","","","heartS.png","","",""
"image-slider-2AFC","445","1429230","0.0-46.25-1.25","2617","","","","21","","","","","","","","heartS.png","2166","21",""
"html-keyboard-response","446","1429947","0.0-46.25-2.25","null","","","","","","","null","","","","","","","",""
"image-selector-fb","447","1432971","0.0-46.26-0.26","null","pics2/VE1.jpg,pics2/SA3.jpg","","","","","","","false","null","","","noS.png","","",""
"image-slider-2AFC","448","1434864","0.0-46.26-1.26","1890","","","","10","","","","","","","","heartS.png","1401","10",""
"html-keyboard-response","449","1435594","0.0-46.26-2.26","null","","","","","","","null","","","","","","","",""
"image-selector-fb","450","1438599","0.0-46.27-0.27","null","pics2/FR3.jpg,pics2/VE4.jpg","","","","","","","false","null","","","noS.png","","",""
"image-slider-2AFC","451","1440459","0.0-46.27-1.27","1857","","","","7","","","","","","","","heartS.png","1451","7",""
"html-keyboard-response","452","1441226","0.0-46.27-2.27","null","","","","","","","null","","","","","","","",""
"image-selector-fb","453","1443255","0.0-46.28-0.28","1525","pics2/FR5.jpg,pics2/SW3.jpg","","","","","","","true","1","","","heartS.png","","",""
"image-slider-2AFC","454","1445266","0.0-46.28-1.28","2008","","","","15","","","","","","","","sizeS.png","1572","15",""
"html-keyboard-response","455","1446132","0.0-46.28-2.28","null","","","","","","","null","","","","","","","",""
"image-selector-fb","456","1448310","0.0-46.29-0.29","1674","pics2/VE6.jpg,pics2/FR3.jpg","","","","","","","true","1","","","heartS.png","","",""
"image-slider-2AFC","457","1450446","0.0-46.29-1.29","2134","","","","8","","","","","","","","heartS.png","1210","8",""
"html-keyboard-response","458","1451332","0.0-46.29-2.29","null","","","","","","","null","","","","","","","",""
"image-selector-fb","459","1454351","0.0-46.30-0.30","null","pics2/SW3.jpg,pics2/SW5.jpg","","","","","","","false","null","","","noS.png","","",""
"image-slider-2AFC","460","1457993","0.0-46.30-1.30","3641","","","","-16","","","","","","","","heartS.png","2001,3167","9,-16",""
"html-keyboard-response","461","1458700","0.0-46.30-2.30","null","","","","","","","null","","","","","","","",""
"image-selector-fb","462","1461558","0.0-46.31-0.31","2355","pics2/VE1.jpg,pics2/SA5.jpg","","","","","","","false","0","","","heartS.png","","",""
"image-slider-2AFC","463","1464315","0.0-46.31-1.31","2754","","","","-14","","","","","","","","sizeS.png","1414","-14",""
"html-keyboard-response","464","1465021","0.0-46.31-2.31","null","","","","","","","null","","","","","","","",""
"image-selector-fb","465","1469539","0.0-46.32-0.32","null","pics2/SA5.jpg,pics2/VE6.jpg","","","","","","","false","null","","","sizeS.png","","",""
"image-slider-2AFC","466","1469540","0.0-46.32-1.32","null","","","","null","","","","","","","","heartS.png","","",""
"html-keyboard-response","467","1470255","0.0-46.32-2.32","null","","","","","","","null","","","","","","","",""
"image-selector-fb","468","1473283","0.0-46.33-0.33","null","pics2/VE1.jpg,pics2/SW3.jpg","","","","","","","false","null","","","noS.png","","",""
"image-slider-2AFC","469","1475796","0.0-46.33-1.33","2511","","","","19","","","","","","","","sizeS.png","2052","19",""
"html-keyboard-response","470","1476520","0.0-46.33-2.33","null","","","","","","","null","","","","","","","",""
"image-selector-fb","471","1478104","0.0-46.34-0.34","1080","pics2/VE5.jpg,pics2/SA5.jpg","","","","","","","false","0","","","heartS.png","","",""
"image-slider-2AFC","472","1479656","0.0-46.34-1.34","1549","","","","-15","","","","","","","","sizeS.png","1211","-15",""
"html-keyboard-response","473","1480480","0.0-46.34-2.34","null","","","","","","","null","","","","","","","",""
"image-selector-fb","474","1482039","0.0-46.35-0.35","1055","pics2/FR5.jpg,pics2/SA3.jpg","","","","","","","false","0","","","heartS.png","","",""
"image-slider-2AFC","475","1484124","0.0-46.35-1.35","2082","","","","-25","","","","","","","","sizeS.png","1683","-25",""
"html-keyboard-response","476","1484834","0.0-46.35-2.35","null","","","","","","","null","","","","","","","",""
"image-selector-fb","477","1486836","0.0-46.36-0.36","1500","pics2/FR5.jpg,pics2/VE1.jpg","","","","","","","false","0","","","sizeS.png","","",""
"image-slider-2AFC","478","1488772","0.0-46.36-1.36","1934","","","","-6","","","","","","","","sizeS.png","1490","-6",""
"html-keyboard-response","479","1489587","0.0-46.36-2.36","null","","","","","","","null","","","","","","","",""
"image-selector-fb","480","1492592","0.0-46.37-0.37","null","pics2/FR3.jpg,pics2/SA5.jpg","","","","","","","false","null","","","noS.png","","",""
"image-slider-2AFC","481","1495901","0.0-46.37-1.37","3307","","","","-14","","","","","","","","sizeS.png","2820","-14",""
"html-keyboard-response","482","1496606","0.0-46.37-2.37","null","","","","","","","null","","","","","","","",""
"image-selector-fb","483","1498419","0.0-46.38-0.38","1309","pics2/FR5.jpg,pics2/VE6.jpg","","","","","","","true","1","","","heartS.png","","",""
"image-slider-2AFC","484","1500145","0.0-46.38-1.38","1723","","","","65","","","","","","","","heartS.png","1181","65",""
"html-keyboard-response","485","1500954","0.0-46.38-2.38","null","","","","","","","null","","","","","","","",""
"image-selector-fb","486","1503962","0.0-46.39-0.39","null","pics2/FR5.jpg,pics2/SA5.jpg","","","","","","","false","null","","","noS.png","","",""
"image-slider-2AFC","487","1505929","0.0-46.39-1.39","1965","","","","-24","","","","","","","","sizeS.png","1551","-24",""
"html-keyboard-response","488","1506782","0.0-46.39-2.39","null","","","","","","","null","","","","","","","",""
"image-selector-fb","489","1508789","0.0-46.40-0.40","1500","pics2/VE5.jpg,pics2/VE4.jpg","","","","","","","true","1","","","sizeS.png","","",""
"image-slider-2AFC","490","1511310","0.0-46.40-1.40","2520","","","","-21","","","","","","","","heartS.png","2038","-21",""
"html-keyboard-response","491","1512040","0.0-46.40-2.40","null","","","","","","","null","","","","","","","",""
"image-selector-fb","492","1513926","0.0-46.41-0.41","1382","pics2/SA4.jpg,pics2/FR3.jpg","","","","","","","false","0","","","sizeS.png","","",""
"image-slider-2AFC","493","1515937","0.0-46.41-1.41","2009","","","","-11","","","","","","","","heartS.png","1618","-11",""
"html-keyboard-response","494","1516705","0.0-46.41-2.41","null","","","","","","","null","","","","","","","",""
"image-selector-fb","495","1519739","0.0-46.42-0.42","null","pics2/SW5.jpg,pics2/FR3.jpg","","","","","","","false","null","","","noS.png","","",""
"image-slider-2AFC","496","1522805","0.0-46.42-1.42","3064","","","","-18","","","","","","","","heartS.png","2642","-18",""
"html-keyboard-response","497","1523644","0.0-46.42-2.42","null","","","","","","","null","","","","","","","",""
"image-selector-fb","498","1526683","0.0-46.43-0.43","2534","pics2/SW3.jpg,pics2/SA4.jpg","","","","","","","false","0","","","sizeS.png","","",""
"image-slider-2AFC","499","1529288","0.0-46.43-1.43","2603","","","","-23","","","","","","","","sizeS.png","1844","-23",""
"html-keyboard-response","500","1530146","0.0-46.43-2.43","null","","","","","","","null","","","","","","","",""
"image-selector-fb","501","1531680","0.0-46.44-0.44","1021","pics2/VE5.jpg,pics2/SA3.jpg","","","","","","","false","0","","","heartS.png","","",""
"image-slider-2AFC","502","1534045","0.0-46.44-1.44","2363","","","","-17","","","","","","","","heartS.png","1970","-17",""
"html-keyboard-response","503","1534817","0.0-46.44-2.44","null","","","","","","","null","","","","","","","",""
"image-selector-fb","504","1538152","0.0-46.45-0.45","2833","pics2/SA3.jpg,pics2/SA5.jpg","","","","","","","false","0","","","heartS.png","","",""
"image-slider-2AFC","505","1540128","0.0-46.45-1.45","1973","","","","-21","","","","","","","","heartS.png","1296","-21",""
"html-keyboard-response","506","1540985","0.0-46.45-2.45","null","","","","","","","null","","","","","","","",""
"image-selector-fb","507","1544010","0.0-46.46-0.46","null","pics2/SW5.jpg,pics2/VE4.jpg","","","","","","","false","null","","","noS.png","","",""
"image-slider-2AFC","508","1547058","0.0-46.46-1.46","3045","","","","-23","","","","","","","","sizeS.png","2390","-23",""
"html-keyboard-response","509","1547866","0.0-46.46-2.46","null","","","","","","","null","","","","","","","",""
"image-selector-fb","510","1550875","0.0-46.47-0.47","null","pics2/VE6.jpg,pics2/FR5.jpg","","","","","","","false","null","","","noS.png","","",""
"image-slider-2AFC","511","1554205","0.0-46.47-1.47","3328","","","","-17","","","","","","","","sizeS.png","2681","-17",""
"html-keyboard-response","512","1555083","0.0-46.47-2.47","null","","","","","","","null","","","","","","","",""
"image-selector-fb","513","1556993","0.0-46.48-0.48","1406","pics2/SW3.jpg,pics2/VE5.jpg","","","","","","","false","0","","","heartS.png","","",""
"image-slider-2AFC","514","1559915","0.0-46.48-1.48","2919","","","","-26","","","","","","","","sizeS.png","1414,2505","-1,-26",""
"html-keyboard-response","515","1560732","0.0-46.48-2.48","null","","","","","","","null","","","","","","","",""
"image-selector-fb","516","1563744","0.0-46.49-0.49","null","pics2/VE1.jpg,pics2/VE6.jpg","","","","","","","false","null","","","noS.png","","",""
"image-slider-2AFC","517","1568337","0.0-46.49-1.49","4591","","","","52","","","","","","","","sizeS.png","3974","52",""
"html-keyboard-response","518","1569059","0.0-46.49-2.49","null","","","","","","","null","","","","","","","",""
"image-selector-fb","519","1571171","0.0-46.50-0.50","1608","pics2/VE4.jpg,pics2/SA4.jpg","","","","","","","false","0","","","heartS.png","","",""
"image-slider-2AFC","520","1575938","0.0-46.50-1.50","4763","","","","-18","","","","","","","","heartS.png","4289","-18",""
"html-keyboard-response","521","1576647","0.0-46.50-2.50","null","","","","","","","null","","","","","","","",""
"image-selector-fb","522","1580412","0.0-46.51-0.51","3261","pics2/SA5.jpg,pics2/SW5.jpg","","","","","","","true","1","","","sizeS.png","","",""
"image-slider-2AFC","523","1583441","0.0-46.51-1.51","3026","","","","8","","","","","","","","heartS.png","2401","8",""
"html-keyboard-response","524","1584200","0.0-46.51-2.51","null","","","","","","","null","","","","","","","",""
"image-selector-fb","525","1585550","0.0-46.52-0.52","839","pics2/SW5.jpg,pics2/VE5.jpg","","","","","","","false","0","","","heartS.png","","",""
"image-slider-2AFC","526","1588473","0.0-46.52-1.52","2921","","","","-18","","","","","","","","sizeS.png","2463","-18",""
"html-keyboard-response","527","1589288","0.0-46.52-2.52","null","","","","","","","null","","","","","","","",""
"image-selector-fb","528","1591810","0.0-46.53-0.53","2019","pics2/VE1.jpg,pics2/FR3.jpg","","","","","","","true","1","","","heartS.png","","",""
"image-slider-2AFC","529","1593874","0.0-46.53-1.53","2062","","","","14","","","","","","","","sizeS.png","1701","14",""
"html-keyboard-response","530","1594590","0.0-46.53-2.53","null","","","","","","","null","","","","","","","",""
"image-selector-fb","531","1596234","0.0-46.54-0.54","1140","pics2/SW6.jpg,pics2/SW5.jpg","","","","","","","true","1","","","sizeS.png","","",""
"image-slider-2AFC","532","1598028","0.0-46.54-1.54","1792","","","","24","","","","","","","","sizeS.png","1355","24",""
"html-keyboard-response","533","1598907","0.0-46.54-2.54","null","","","","","","","null","","","","","","","",""
"image-selector-fb","534","1601930","0.0-46.55-0.55","null","pics2/FR5.jpg,pics2/FR3.jpg","","","","","","","false","null","","","noS.png","","",""
"image-slider-2AFC","535","1603870","0.0-46.55-1.55","1938","","","","12","","","","","","","","sizeS.png","1519","12",""
"html-keyboard-response","536","1604589","0.0-46.55-2.55","null","","","","","","","null","","","","","","","",""
"image-selector-fb","537","1606562","0.0-46.56-0.56","1466","pics2/SW3.jpg,pics2/FR3.jpg","","","","","","","false","0","","","sizeS.png","","",""
"image-slider-2AFC","538","1610412","0.0-46.56-1.56","3848","","","","-22","","","","","","","","sizeS.png","3464","-22",""
"html-keyboard-response","539","1611135","0.0-46.56-2.56","null","","","","","","","null","","","","","","","",""
"image-selector-fb","540","1612517","0.0-46.57-0.57","876","pics2/SW3.jpg,pics2/SW6.jpg","","","","","","","false","0","","","sizeS.png","","",""
"image-slider-2AFC","541","1616555","0.0-46.57-1.57","4036","","","","-6","","","","","","","","heartS.png","947,2691","0,-6",""
"html-keyboard-response","542","1617316","0.0-46.57-2.57","null","","","","","","","null","","","","","","","",""
"image-selector-fb","543","1618774","0.0-46.58-0.58","944","pics2/VE4.jpg,pics2/VE5.jpg","","","","","","","false","0","","","heartS.png","","",""
"image-slider-2AFC","544","1621737","0.0-46.58-1.58","2961","","","","-22","","","","","","","","heartS.png","2532","-22",""
"html-keyboard-response","545","1622504","0.0-46.58-2.58","null","","","","","","","null","","","","","","","",""
"image-selector-fb","546","1623839","0.0-46.59-0.59","831","pics2/SA5.jpg,pics2/SA3.jpg","","","","","","","false","0","","","sizeS.png","","",""
"image-slider-2AFC","547","1628401","0.0-46.59-1.59","4559","","","","-12","","","","","","","","sizeS.png","3355","-12",""
"html-keyboard-response","548","1629237","0.0-46.59-2.59","null","","","","","","","null","","","","","","","",""
"image-selector-fb","549","1631076","0.0-46.60-0.60","1334","pics2/SA5.jpg,pics2/VE5.jpg","","","","","","","true","1","","","sizeS.png","","",""
"image-slider-2AFC","550","1633846","0.0-46.60-1.60","2768","","","","-11","","","","","","","","heartS.png","2385","-11",""
"html-keyboard-response","551","1634567","0.0-46.60-2.60","null","","","","","","","null","","","","","","","",""
"image-selector-fb","552","1637602","0.0-46.61-0.61","null","pics2/SA3.jpg,pics2/VE5.jpg","","","","","","","false","null","","","noS.png","","",""
"image-slider-2AFC","553","1640178","0.0-46.61-1.61","2574","","","","7","","","","","","","","sizeS.png","2198","7",""
"html-keyboard-response","554","1640996","0.0-46.61-2.61","null","","","","","","","null","","","","","","","",""
"image-selector-fb","555","1643752","0.0-46.62-0.62","2249","pics2/FR3.jpg,pics2/SA3.jpg","","","","","","","false","0","","","heartS.png","","",""
"image-slider-2AFC","556","1645647","0.0-46.62-1.62","1893","","","","-14","","","","","","","","heartS.png","1397","-14",""
"html-keyboard-response","557","1646380","0.0-46.62-2.62","null","","","","","","","null","","","","","","","",""
"image-selector-fb","558","1649387","0.0-46.63-0.63","null","pics2/VE1.jpg,pics2/FR5.jpg","","","","","","","false","null","","","noS.png","","",""
"image-slider-2AFC","559","1651919","0.0-46.63-1.63","2531","","","","-11","","","","","","","","heartS.png","2162","-11",""
"html-keyboard-response","560","1652693","0.0-46.63-2.63","null","","","","","","","null","","","","","","","",""
"image-selector-fb","561","1655727","0.0-46.64-0.64","null","pics2/VE4.jpg,pics2/SW6.jpg","","","","","","","false","null","","","noS.png","","",""
"image-slider-2AFC","562","1658702","0.0-46.64-1.64","2973","","","","11","","","","","","","","heartS.png","2551","11",""
"html-keyboard-response","563","1659482","0.0-46.64-2.64","null","","","","","","","null","","","","","","","",""
"image-selector-fb","564","1661316","0.0-46.65-0.65","1331","pics2/FR5.jpg,pics2/SW6.jpg","","","","","","","true","1","","","heartS.png","","",""
"image-slider-2AFC","565","1662956","0.0-46.65-1.65","1638","","","","-21","","","","","","","","sizeS.png","1255","-21",""
"html-keyboard-response","566","1663731","0.0-46.65-2.65","null","","","","","","","null","","","","","","","",""
"pavlovia","567","1663749","0.0-47.0","","","","","","","","","","","","","","","",""
"html-keyboard-response","568","1668772","0.0-48.0","null","<div style='width: 700px;'> <font size=6><b>SHORT BREAK</font></b><br><br><i> Please wait 5 seconds to continue</i></div> ","","","","","","null","","","","","","","",""
"pavlovia","569","1668775","0.0-49.0","","","","","","","","","","","","","","","",""
"html-button-response","570","4619591","0.0-50.0","2950815","<div style='width: 700px;'> <font size=6><b>BLOCK 3</font></b><br><br>Press the button whenever you feel ready to start the third and final block</div>","0","","","","","","","","","","","","",""
"image-selector-fb","571","4622621","0.0-51.0-0.0","null","pics2/SW3.jpg,pics2/VE5.jpg","","","","","","","false","null","","","noS.png","","",""
"image-slider-2AFC","572","4625056","0.0-51.0-1.0","2432","","","","-24","","","","","","","","sizeS.png","1898","-24",""
"html-keyboard-response","573","4625814","0.0-51.0-2.0","null","","","","","","","null","","","","","","","",""
"image-selector-fb","574","4627951","0.0-51.1-0.1","1628","pics2/VE5.jpg,pics2/SW6.jpg","","","","","","","false","0","","","sizeS.png","","",""
"image-slider-2AFC","575","4631265","0.0-51.1-1.1","3313","","","","15","","","","","","","","heartS.png","2856","15",""
"html-keyboard-response","576","4632072","0.0-51.1-2.1","null","","","","","","","null","","","","","","","",""
"image-selector-fb","577","4634096","0.0-51.2-0.2","1517","pics2/SA4.jpg,pics2/SA5.jpg","","","","","","","false","0","","","heartS.png","","",""
"image-slider-2AFC","578","4635930","0.0-51.2-1.2","1832","","","","-6","","","","","","","","heartS.png","1358","-6",""
"html-keyboard-response","579","4636748","0.0-51.2-2.2","null","","","","","","","null","","","","","","","",""
"image-selector-fb","580","4638914","0.0-51.3-0.3","1662","pics2/SW5.jpg,pics2/SA3.jpg","","","","","","","false","0","","","heartS.png","","",""
"image-slider-2AFC","581","4640640","0.0-51.3-1.3","1723","","","","-14","","","","","","","","heartS.png","1354","-14",""
"html-keyboard-response","582","4641346","0.0-51.3-2.3","null","","","","","","","null","","","","","","","",""
"image-selector-fb","583","4644361","0.0-51.4-0.4","null","pics2/SW5.jpg,pics2/VE6.jpg","","","","","","","false","null","","","noS.png","","",""
"image-slider-2AFC","584","4646838","0.0-51.4-1.4","2475","","","","10","","","","","","","","heartS.png","2053","10",""
"html-keyboard-response","585","4647645","0.0-51.4-2.4","null","","","","","","","null","","","","","","","",""
"image-selector-fb","586","4649733","0.0-51.5-0.5","1569","pics2/SW6.jpg,pics2/FR3.jpg","","","","","","","false","0","","","heartS.png","","",""
"image-slider-2AFC","587","4652318","0.0-51.5-1.5","2582","","","","15","","","","","","","","sizeS.png","1936","15",""
"html-keyboard-response","588","4653085","0.0-51.5-2.5","null","","","","","","","null","","","","","","","",""
"image-selector-fb","589","4656100","0.0-51.6-0.6","null","pics2/SW5.jpg,pics2/VE5.jpg","","","","","","","false","null","","","noS.png","","",""
"image-slider-2AFC","590","4659302","0.0-51.6-1.6","3200","","","","-24","","","","","","","","heartS.png","2733","-24",""
"html-keyboard-response","591","4660063","0.0-51.6-2.6","null","","","","","","","null","","","","","","","",""
"image-selector-fb","592","4662131","0.0-51.7-0.7","1555","pics2/SA5.jpg,pics2/SW3.jpg","","","","","","","true","1","","","sizeS.png","","",""
"image-slider-2AFC","593","4666240","0.0-51.7-1.7","4108","","","","11","","","","","","","","sizeS.png","3213","11",""
"html-keyboard-response","594","4666950","0.0-51.7-2.7","null","","","","","","","null","","","","","","","",""
"image-selector-fb","595","4669369","0.0-51.8-0.8","1913","pics2/SW5.jpg,pics2/VE1.jpg","","","","","","","false","0","","","sizeS.png","","",""
"image-slider-2AFC","596","4671019","0.0-51.8-1.8","1648","","","","-15","","","","","","","","heartS.png","1308","-15",""
"html-keyboard-response","597","4671845","0.0-51.8-2.8","null","","","","","","","null","","","","","","","",""
"image-selector-fb","598","4674855","0.0-51.9-0.9","null","pics2/FR3.jpg,pics2/SA3.jpg","","","","","","","false","null","","","noS.png","","",""
"image-slider-2AFC","599","4677269","0.0-51.9-1.9","2411","","","","15","","","","","","","","heartS.png","2051","15",""
"html-keyboard-response","600","4678027","0.0-51.9-2.9","null","","","","","","","null","","","","","","","",""
"image-selector-fb","601","4680864","0.0-51.10-0.10","2329","pics2/SW5.jpg,pics2/FR5.jpg","","","","","","","false","0","","","heartS.png","","",""
"image-slider-2AFC","602","4682481","0.0-51.10-1.10","1616","","","","-11","","","","","","","","heartS.png","1201","-11",""
"html-keyboard-response","603","4683204","0.0-51.10-2.10","null","","","","","","","null","","","","","","","",""
"image-selector-fb","604","4686593","0.0-51.11-0.11","2885","pics2/VE1.jpg,pics2/SW3.jpg","","","","","","","true","1","","","heartS.png","","",""
"image-slider-2AFC","605","4689054","0.0-51.11-1.11","2459","","","","10","","","","","","","","heartS.png","2044","10",""
"html-keyboard-response","606","4689881","0.0-51.11-2.11","null","","","","","","","null","","","","","","","",""
"image-selector-fb","607","4692893","0.0-51.12-0.12","null","pics2/SW5.jpg,pics2/FR5.jpg","","","","","","","false","null","","","noS.png","","",""
"image-slider-2AFC","608","4697900","0.0-51.12-1.12","null","","","","null","","","","","","","","sizeS.png","4447","12",""
"html-keyboard-response","609","4698773","0.0-51.12-2.12","null","","","","","","","null","","","","","","","",""
"image-selector-fb","610","4701797","0.0-51.13-0.13","null","pics2/SW3.jpg,pics2/SA5.jpg","","","","","","","false","null","","","noS.png","","",""
"image-slider-2AFC","611","4704096","0.0-51.13-1.13","2296","","","","-13","","","","","","","","sizeS.png","1792","-13",""
"html-keyboard-response","612","4704820","0.0-51.13-2.13","null","","","","","","","null","","","","","","","",""
"image-selector-fb","613","4706864","0.0-51.14-0.14","1531","pics2/SA3.jpg,pics2/SW5.jpg","","","","","","","false","0","","","sizeS.png","","",""
"image-slider-2AFC","614","4709375","0.0-51.14-1.14","2508","","","","-24","","","","","","","","heartS.png","2064","-24",""
"html-keyboard-response","615","4710086","0.0-51.14-2.14","null","","","","","","","null","","","","","","","",""
"image-selector-fb","616","4713093","0.0-51.15-0.15","null","pics2/SW5.jpg,pics2/SA3.jpg","","","","","","","false","null","","","noS.png","","",""
"image-slider-2AFC","617","4716343","0.0-51.15-1.15","3246","","","","-38","","","","","","","","sizeS.png","2508","-38",""
"html-keyboard-response","618","4717157","0.0-51.15-2.15","null","","","","","","","null","","","","","","","",""
"image-selector-fb","619","4720340","0.0-51.16-0.16","2678","pics2/SW5.jpg,pics2/SW6.jpg","","","","","","","true","1","","","heartS.png","","",""
"image-slider-2AFC","620","4721997","0.0-51.16-1.16","1655","","","","10","","","","","","","","heartS.png","1301","10",""
"html-keyboard-response","621","4722809","0.0-51.16-2.16","null","","","","","","","null","","","","","","","",""
"image-selector-fb","622","4725498","0.0-51.17-0.17","2183","pics2/VE6.jpg,pics2/VE4.jpg","","","","","","","true","1","","","heartS.png","","",""
"image-slider-2AFC","623","4727525","0.0-51.17-1.17","2024","","","","-26","","","","","","","","sizeS.png","1279","-26",""
"html-keyboard-response","624","4728351","0.0-51.17-2.17","null","","","","","","","null","","","","","","","",""
"image-selector-fb","625","4731359","0.0-51.18-0.18","null","pics2/FR5.jpg,pics2/SA3.jpg","","","","","","","false","null","","","noS.png","","",""
"image-slider-2AFC","626","4733943","0.0-51.18-1.18","2582","","","","21","","","","","","","","heartS.png","2154","21",""
"html-keyboard-response","627","4734783","0.0-51.18-2.18","null","","","","","","","null","","","","","","","",""
"image-selector-fb","628","4737792","0.0-51.19-0.19","null","pics2/SW3.jpg,pics2/SA3.jpg","","","","","","","false","null","","","noS.png","","",""
"image-slider-2AFC","629","4739570","0.0-51.19-1.19","1777","","","","-12","","","","","","","","heartS.png","1407","-12",""
"html-keyboard-response","630","4740443","0.0-51.19-2.19","null","","","","","","","null","","","","","","","",""
"image-selector-fb","631","4742657","0.0-51.20-0.20","1709","pics2/FR5.jpg,pics2/SW5.jpg","","","","","","","false","0","","","sizeS.png","","",""
"image-slider-2AFC","632","4744685","0.0-51.20-1.20","2024","","","","14","","","","","","","","heartS.png","1119","14",""
"html-keyboard-response","633","4745406","0.0-51.20-2.20","null","","","","","","","null","","","","","","","",""
"image-selector-fb","634","4748427","0.0-51.21-0.21","null","pics2/VE1.jpg,pics2/VE4.jpg","","","","","","","false","null","","","noS.png","","",""
"image-slider-2AFC","635","4750651","0.0-51.21-1.21","2222","","","","14","","","","","","","","heartS.png","1816","14",""
"html-keyboard-response","636","4751506","0.0-51.21-2.21","null","","","","","","","null","","","","","","","",""
"image-selector-fb","637","4754334","0.0-51.22-0.22","2320","pics2/SW3.jpg,pics2/SW5.jpg","","","","","","","false","0","","","sizeS.png","","",""
"image-slider-2AFC","638","4756036","0.0-51.22-1.22","1699","","","","-12","","","","","","","","sizeS.png","1367","-12",""
"html-keyboard-response","639","4756738","0.0-51.22-2.22","null","","","","","","","null","","","","","","","",""
"image-selector-fb","640","4759756","0.0-51.23-0.23","null","pics2/VE6.jpg,pics2/VE4.jpg","","","","","","","false","null","","","noS.png","","",""
"image-slider-2AFC","641","4761938","0.0-51.23-1.23","2181","","","","-17","","","","","","","","sizeS.png","1812","-17",""
"html-keyboard-response","642","4762760","0.0-51.23-2.23","null","","","","","","","null","","","","","","","",""
"image-selector-fb","643","4764532","0.0-51.24-0.24","1267","pics2/SA5.jpg,pics2/VE1.jpg","","","","","","","true","1","","","sizeS.png","","",""
"image-slider-2AFC","644","4766470","0.0-51.24-1.24","1935","","","","24","","","","","","","","sizeS.png","1136","24",""
"html-keyboard-response","645","4767355","0.0-51.24-2.24","null","","","","","","","null","","","","","","","",""
"image-selector-fb","646","4768810","0.0-51.25-0.25","950","pics2/SW5.jpg,pics2/VE6.jpg","","","","","","","false","0","","","heartS.png","","",""
"image-slider-2AFC","647","4771054","0.0-51.25-1.25","2242","","","","-17","","","","","","","","sizeS.png","1843","-17",""
"html-keyboard-response","648","4771930","0.0-51.25-2.25","null","","","","","","","null","","","","","","","",""
"image-selector-fb","649","4773988","0.0-51.26-0.26","1554","pics2/VE6.jpg,pics2/SW6.jpg","","","","","","","true","1","","","heartS.png","","",""
"image-slider-2AFC","650","4777293","0.0-51.26-1.26","3302","","","","19","","","","","","","","sizeS.png","2414","19",""
"html-keyboard-response","651","4778125","0.0-51.26-2.26","null","","","","","","","null","","","","","","","",""
"image-selector-fb","652","4779815","0.0-51.27-0.27","1184","pics2/SA4.jpg,pics2/SW5.jpg","","","","","","","true","1","","","sizeS.png","","",""
"image-slider-2AFC","653","4782036","0.0-51.27-1.27","2218","","","","-12","","","","","","","","heartS.png","1894","-12",""
"html-keyboard-response","654","4782903","0.0-51.27-2.27","null","","","","","","","null","","","","","","","",""
"image-selector-fb","655","4784566","0.0-51.28-0.28","1156","pics2/SA4.jpg,pics2/VE1.jpg","","","","","","","true","1","","","sizeS.png","","",""
"image-slider-2AFC","656","4786659","0.0-51.28-1.28","2092","","","","12","","","","","","","","sizeS.png","1708","12",""
"html-keyboard-response","657","4787429","0.0-51.28-2.28","null","","","","","","","null","","","","","","","",""
"image-selector-fb","658","4790448","0.0-51.29-0.29","null","pics2/SA3.jpg,pics2/SA5.jpg","","","","","","","false","null","","","noS.png","","",""
"image-slider-2AFC","659","4793497","0.0-51.29-1.29","3046","","","","-31","","","","","","","","sizeS.png","2504","-31",""
"html-keyboard-response","660","4794366","0.0-51.29-2.29","null","","","","","","","null","","","","","","","",""
"image-selector-fb","661","4796337","0.0-51.30-0.30","1455","pics2/SW6.jpg,pics2/VE4.jpg","","","","","","","false","0","","","heartS.png","","",""
"image-slider-2AFC","662","4799116","0.0-51.30-1.30","2777","","","","-16","","","","","","","","heartS.png","2392","-16",""
"html-keyboard-response","663","4799888","0.0-51.30-2.30","null","","","","","","","null","","","","","","","",""
"image-selector-fb","664","4802408","0.0-51.31-0.31","2014","pics2/VE5.jpg,pics2/FR3.jpg","","","","","","","true","1","","","sizeS.png","","",""
"image-slider-2AFC","665","4804358","0.0-51.31-1.31","1947","","","","14","","","","","","","","sizeS.png","1451","14",""
"html-keyboard-response","666","4805166","0.0-51.31-2.31","null","","","","","","","null","","","","","","","",""
"image-selector-fb","667","4808177","0.0-51.32-0.32","null","pics2/FR5.jpg,pics2/VE5.jpg","","","","","","","false","null","","","noS.png","","",""
"image-slider-2AFC","668","4811498","0.0-51.32-1.32","3319","","","","-13","","","","","","","","sizeS.png","2874","-13",""
"html-keyboard-response","669","4812362","0.0-51.32-2.32","null","","","","","","","null","","","","","","","",""
"image-selector-fb","670","4815393","0.0-51.33-0.33","null","pics2/SW5.jpg,pics2/SA5.jpg","","","","","","","false","null","","","noS.png","","",""
"image-slider-2AFC","671","4818092","0.0-51.33-1.33","2697","","","","-27","","","","","","","","heartS.png","1733","-27",""
"html-keyboard-response","672","4818955","0.0-51.33-2.33","null","","","","","","","null","","","","","","","",""
"image-selector-fb","673","4821354","0.0-51.34-0.34","1883","pics2/SA4.jpg,pics2/SW6.jpg","","","","","","","true","1","","","sizeS.png","","",""
"image-slider-2AFC","674","4823710","0.0-51.34-1.34","2353","","","","9","","","","","","","","sizeS.png","1894","9",""
"html-keyboard-response","675","4824488","0.0-51.34-2.34","null","","","","","","","null","","","","","","","",""
"image-selector-fb","676","4827413","0.0-51.35-0.35","2412","pics2/VE5.jpg,pics2/SW3.jpg","","","","","","","true","1","","","sizeS.png","","",""
"image-slider-2AFC","677","4830012","0.0-51.35-1.35","2597","","","","17","","","","","","","","heartS.png","2109","17",""
"html-keyboard-response","678","4830735","0.0-51.35-2.35","null","","","","","","","null","","","","","","","",""
"image-selector-fb","679","4833747","0.0-51.36-0.36","null","pics2/SW3.jpg,pics2/SW6.jpg","","","","","","","false","null","","","noS.png","","",""
"image-slider-2AFC","680","4836803","0.0-51.36-1.36","3054","","","","-15","","","","","","","","sizeS.png","2670","-15",""
"html-keyboard-response","681","4837556","0.0-51.36-2.36","null","","","","","","","null","","","","","","","",""
"image-selector-fb","682","4839791","0.0-51.37-0.37","1721","pics2/VE4.jpg,pics2/SA5.jpg","","","","","","","false","0","","","heartS.png","","",""
"image-slider-2AFC","683","4842522","0.0-51.37-1.37","2728","","","","-22","","","","","","","","heartS.png","1877","-22",""
"html-keyboard-response","684","4843353","0.0-51.37-2.37","null","","","","","","","null","","","","","","","",""
"image-selector-fb","685","4845072","0.0-51.38-0.38","1212","pics2/VE4.jpg,pics2/SW3.jpg","","","","","","","true","1","","","heartS.png","","",""
"image-slider-2AFC","686","4846886","0.0-51.38-1.38","1812","","","","20","","","","","","","","sizeS.png","1322","20",""
"html-keyboard-response","687","4847697","0.0-51.38-2.38","null","","","","","","","null","","","","","","","",""
"image-selector-fb","688","4850708","0.0-51.39-0.39","null","pics2/SA3.jpg,pics2/SA4.jpg","","","","","","","false","null","","","noS.png","","",""
"image-slider-2AFC","689","4854211","0.0-51.39-1.39","3502","","","","15","","","","","","","","heartS.png","1953,3103","0,15",""
"html-keyboard-response","690","4854934","0.0-51.39-2.39","null","","","","","","","null","","","","","","","",""
"image-selector-fb","691","4857940","0.0-51.40-0.40","null","pics2/FR3.jpg,pics2/SA4.jpg","","","","","","","false","null","","","noS.png","","",""
"image-slider-2AFC","692","4860235","0.0-51.40-1.40","2293","","","","-28","","","","","","","","heartS.png","917,1850","2,-28",""
"html-keyboard-response","693","4861115","0.0-51.40-2.40","null","","","","","","","null","","","","","","","",""
"image-selector-fb","694","4864124","0.0-51.41-0.41","null","pics2/VE1.jpg,pics2/SA4.jpg","","","","","","","false","null","","","noS.png","","",""
"image-slider-2AFC","695","4867698","0.0-51.41-1.41","3572","","","","14","","","","","","","","heartS.png","2173","14",""
"html-keyboard-response","696","4868530","0.0-51.41-2.41","null","","","","","","","null","","","","","","","",""
"image-selector-fb","697","4871555","0.0-51.42-0.42","null","pics2/VE4.jpg,pics2/SA4.jpg","","","","","","","false","null","","","noS.png","","",""
"image-slider-2AFC","698","4876493","0.0-51.42-1.42","4935","","","","-13","","","","","","","","sizeS.png","3805","-13",""
"html-keyboard-response","699","4877272","0.0-51.42-2.42","null","","","","","","","null","","","","","","","",""
"image-selector-fb","700","4879098","0.0-51.43-0.43","1317","pics2/SW6.jpg,pics2/SW3.jpg","","","","","","","false","0","","","heartS.png","","",""
"image-slider-2AFC","701","4881104","0.0-51.43-1.43","2003","","","","20","","","","","","","","heartS.png","1447","20",""
"html-keyboard-response","702","4881864","0.0-51.43-2.43","null","","","","","","","null","","","","","","","",""
"image-selector-fb","703","4885574","0.0-51.44-0.44","3202","pics2/FR5.jpg,pics2/FR3.jpg","","","","","","","false","0","","","heartS.png","","",""
"image-slider-2AFC","704","4889141","0.0-51.44-1.44","3564","","","","26","","","","","","","","heartS.png","2736","26",""
"html-keyboard-response","705","4890021","0.0-51.44-2.44","null","","","","","","","null","","","","","","","",""
"image-selector-fb","706","4893030","0.0-51.45-0.45","null","pics2/VE5.jpg,pics2/SA4.jpg","","","","","","","false","null","","","noS.png","","",""
"image-slider-2AFC","707","4898036","0.0-51.45-1.45","null","","","","null","","","","","","","","heartS.png","4581","-18",""
"html-keyboard-response","708","4898893","0.0-51.45-2.45","null","","","","","","","null","","","","","","","",""
"image-selector-fb","709","4900852","0.0-51.46-0.46","1448","pics2/SA4.jpg,pics2/SW3.jpg","","","","","","","true","1","","","heartS.png","","",""
