"trial_type","trial_index","time_elapsed","internal_node_id","rt","stimulus","button_pressed","success","response","cat","value","key_press","correct","image_click","first_click_rt","first_click_val","symbol","all_click_rt","all_click_val","view_history"
"pavlovia","0","5","0.0-0.0","","","","","","","","","","","","","","","",""
"html-button-response","1","3549","0.0-1.0","3543","<div style='width: 700px; font-size: 150%'><font size='40'>  Welcome to our study!</font><br><br><br> <small> Our experiment is about <i>decision making</i>. You will choose and rate different food items, such as these: <br><br> <div><img src='food_combo2.png', height = '400px'></img></div>","0","","","","","","","","","","","","",""
"html-button-response","2","8875","0.0-2.0","5323","<div style='width: 700px; font-size: 150%'><br><br><br><small> <u><i>This is a multi-part study.</i></u><br><br> In the first part you will rate 24 food items twice.<br><br><div><img src=""rat1.png"" style=""width: 25%""></img></div><br>In the second part (longest) you will make repeated choices and judgements concerning the food items.<br><br><div><img src=""mainx.png"" style=""width: 50%""></img></div><br>In the third and final part, you will rate the items again and answer few short questionnaires.<br><br><div><img src=""rat2.png"" style=""width: 50%""></img></div><br><br>","0","","","","","","","","","","","","",""
"fullscreen","3","11187","0.0-3.0","","","","true","","","","","","","","","","","",""
"html-button-response","4","12399","0.0-4.0","1210","<div style='width: 900px; font-size: 150%;' <font size='20%'> In the first part of the task you will use the mouse to rate food items on <i>2 scales</i> </font></div><br><br><div style='width: 900px'><div style='float: left; width: 50%; margin-right:2.5em'><img src='heartS.png'></img><p class='small' style='text-align: justify'>When you see the heart cue you will rate food items in terms of how much like them/would like to eat them <i>right now</i>. You will rate them on a continuous scale from left (strong dislike) to right (strong liking). Before submitting your rating, try imagining how the item tastes and how much you desire it.<br><br></p></div><div ><img src='sizeS.png'></img><p class='small' style='text-align: justify'>When you see the size cue, you will rate the same food items in terms of their size. The scale goes from left (tiny) to right (very large). You should assess picture size <i><u>relative</i></u> to the white background. <b>Remember:</b> rate the size of the picture, <u>not</u> the size of the item in real life. </p></div><div style='width: 900px'><br><br><b><i>Notice:</b> by starting the rating you agree that your sumbission might be rejected at an early stage and the experiment might end, if your size ratings are not at least modestly related to objective sizes, or if you repeat the same value ratings too many times. If you don't agree, please exit by closing the browser window. </i><br><br><br>","0","","","","","","","","","","","","",""
"html-button-response","5","13513","0.0-5.0","1112","<div><img src='heartS.png'></img></div><br><div style='text-align: justify; width: 700px'>Using the mouse, rate the <b><i>likeness</b></i> of the food items (how much you like them/would like to eat them <i>right now</i>). Far right-end of the scale indicates an item you <i>like a lot</i>. Far left-end indicates an item you <i>dislike a lot</i>. Think about each answer.   <ul><li>Try <b><i>not</b></i> to give identical rating to different items.</li><li>Use the whole scale, and <b><i>not</b></i> just the extremes</ul></div><br>","0","","","","","","","","","","","","",""
"image-slider-response","6","15611","0.0-6.0-0.0-0.0","2094","pics2/VE5.jpg","","","65","VE","","","","","","","","","",""
"image-slider-response","7","17637","0.0-6.0-0.0-0.1","1824","pics2/VE3.jpg","","","66","VE","","","","","","","","","",""
"image-slider-response","8","20000","0.0-6.0-0.0-0.2","2159","pics2/VE4.jpg","","","55","VE","","","","","","","","","",""
"image-slider-response","9","21994","0.0-6.0-0.0-0.3","1790","pics2/SW3.jpg","","","52","SW","","","","","","","","","",""
"image-slider-response","10","23883","0.0-6.0-0.0-0.4","1687","pics2/SA6.jpg","","","70","SA","","","","","","","","","",""
"image-slider-response","11","25726","0.0-6.0-0.0-0.5","1638","pics2/FR2.jpg","","","95","FR","","","","","","","","","",""
"image-slider-response","12","27874","0.0-6.0-0.0-0.6","1944","pics2/VE6.jpg","","","98","VE","","","","","","","","","",""
"image-slider-response","13","29804","0.0-6.0-0.0-0.7","1727","pics2/SW4.jpg","","","63","SW","","","","","","","","","",""
"image-slider-response","14","31780","0.0-6.0-0.0-0.8","1774","pics2/VE1.jpg","","","54","VE","","","","","","","","","",""
"image-slider-response","15","33793","0.0-6.0-0.0-0.9","1810","pics2/FR3.jpg","","","87","FR","","","","","","","","","",""
"image-slider-response","16","36267","0.0-6.0-0.0-0.10","2271","pics2/SW1.jpg","","","71","SW","","","","","","","","","",""
"image-slider-response","17","38478","0.0-6.0-0.0-0.11","2008","pics2/SA5.jpg","","","40","SA","","","","","","","","","",""
"image-slider-response","18","40200","0.0-6.0-0.0-0.12","1520","pics2/SW6.jpg","","","82","SW","","","","","","","","","",""
"image-slider-response","19","42065","0.0-6.0-0.0-0.13","1660","pics2/SA3.jpg","","","41","SA","","","","","","","","","",""
"image-slider-response","20","44093","0.0-6.0-0.0-0.14","1824","pics2/FR5.jpg","","","65","FR","","","","","","","","","",""
"image-slider-response","21","46440","0.0-6.0-0.0-0.15","2144","pics2/SA2.jpg","","","81","SA","","","","","","","","","",""
"image-slider-response","22","48250","0.0-6.0-0.0-0.16","1608","pics2/FR6.jpg","","","96","FR","","","","","","","","","",""
"image-slider-response","23","49916","0.0-6.0-0.0-0.17","1461","pics2/VE2.jpg","","","63","VE","","","","","","","","","",""
"image-slider-response","24","51919","0.0-6.0-0.0-0.18","1801","pics2/FR1.jpg","","","81","FR","","","","","","","","","",""
"image-slider-response","25","53889","0.0-6.0-0.0-0.19","1767","pics2/SA1.jpg","","","41","SA","","","","","","","","","",""
"image-slider-response","26","56132","0.0-6.0-0.0-0.20","2040","pics2/SW2.jpg","","","32","SW","","","","","","","","","",""
"image-slider-response","27","58046","0.0-6.0-0.0-0.21","1711","pics2/SA4.jpg","","","81","SA","","","","","","","","","",""
"image-slider-response","28","59793","0.0-6.0-0.0-0.22","1541","pics2/SW5.jpg","","","55","SW","","","","","","","","","",""
"image-slider-response","29","61988","0.0-6.0-0.0-0.23","1990","pics2/FR4.jpg","","","46","FR","","","","","","","","","",""
"html-button-response","30","63269","0.0-7.0","1079","<div style='width: 900px;'> <font size = 6><b> End of the first rating</b><br><br>","0","","","","","","","","","","","","",""
"html-button-response","31","64223","0.0-9.0","954","<div ><img src='sizeS.png'></img></div><br><div style='text-align: justify; width: 700px'> Using the mouse, rate the <b><i>size</b></i> of the food items <b><i> relative to the white background.</b></i> Right-end of the scale indicates a <i>very large item</i>, which covers a large portion of the white rectangle. Left-end indicates a <i>very tiny</i> item which covers a tiny portion of the white rectangle.<br><br><i><u>Remember</i></u>: everything that is not the white background also contributes to item size (e.g. packing, plates, ect.)<br><br> Please keep in mind that if the accuracy of ratings do not allign well with actual sizes, the experiment will end.  As a result it will be consider incomplete and therefore no payment would be made. Good luck!<br><br></div><br>","0","","","","","","","","","","","","",""
"html-button-response","32","67267","0.0-10.0","3041","<div ><img src='sizeS.png'></img></div><br><b><font size=6>Examples of items that you might encounter</b><br><div style='width: 750px;'><div style='width: 33.33%; float:left'><br><br><br><i>Large Item</i><br><br><img src='large.jpg', width=200px></img></div><div style='float:right'><br><br><br><i>Small Item</i><br><br><img src='small.jpg', width=200px></img></div><div ><br><br><br><i>Medium Item</i><br><br><img src='med.jpg', width=200px></img></div></div><br><br>","0","","","","","","","","","","","","",""
"image-slider-response","33","72224","0.0-11.0-0.0-0.0","4956","pics2/SA3.jpg","","","42","null","","","","","","","","","",""
"image-slider-response","34","74234","0.0-11.0-0.0-0.1","1807","pics2/FR2.jpg","","","67","null","","","","","","","","","",""
"image-slider-response","35","77214","0.0-11.0-0.0-0.2","2777","pics2/SW6.jpg","","","39","null","","","","","","","","","",""
"image-slider-response","36","79881","0.0-11.0-0.0-0.3","2463","pics2/SA2.jpg","","","92","null","","","","","","","","","",""
"image-slider-response","37","82124","0.0-11.0-0.0-0.4","2040","pics2/SA6.jpg","","","81","null","","","","","","","","","",""
"image-slider-response","38","84022","0.0-11.0-0.0-0.5","1695","pics2/VE1.jpg","","","38","null","","","","","","","","","",""
"image-slider-response","39","86041","0.0-11.0-0.0-0.6","1816","pics2/VE6.jpg","","","24","null","","","","","","","","","",""
"image-slider-response","40","88147","0.0-11.0-0.0-0.7","1903","pics2/FR1.jpg","","","95","null","","","","","","","","","",""
"image-slider-response","41","90580","0.0-11.0-0.0-0.8","2229","pics2/SW5.jpg","","","41","null","","","","","","","","","",""
"image-slider-response","42","93121","0.0-11.0-0.0-0.9","2338","pics2/VE5.jpg","","","60","null","","","","","","","","","",""
"image-slider-response","43","95116","0.0-11.0-0.0-0.10","1790","pics2/FR6.jpg","","","37","null","","","","","","","","","",""
"image-slider-response","44","96844","0.0-11.0-0.0-0.11","1525","pics2/FR3.jpg","","","25","null","","","","","","","","","",""
"image-slider-response","45","98943","0.0-11.0-0.0-0.12","1896","pics2/SA5.jpg","","","17","null","","","","","","","","","",""
"image-slider-response","46","101235","0.0-11.0-0.0-0.13","2088","pics2/SW1.jpg","","","89","null","","","","","","","","","",""
"image-slider-response","47","103773","0.0-11.0-0.0-0.14","2335","pics2/SW4.jpg","","","54","null","","","","","","","","","",""
"image-slider-response","48","105737","0.0-11.0-0.0-0.15","1760","pics2/VE2.jpg","","","15","null","","","","","","","","","",""
"image-slider-response","49","107843","0.0-11.0-0.0-0.16","1903","pics2/FR5.jpg","","","14","null","","","","","","","","","",""
"image-slider-response","50","109629","0.0-11.0-0.0-0.17","1581","pics2/VE4.jpg","","","81","null","","","","","","","","","",""
"image-slider-response","51","111519","0.0-11.0-0.0-0.18","1687","pics2/VE3.jpg","","","16","null","","","","","","","","","",""
"image-slider-response","52","113458","0.0-11.0-0.0-0.19","1733","pics2/FR4.jpg","","","8","null","","","","","","","","","",""
"image-slider-response","53","115508","0.0-11.0-0.0-0.20","1847","pics2/SW3.jpg","","","81","null","","","","","","","","","",""
"image-slider-response","54","117462","0.0-11.0-0.0-0.21","1751","pics2/SW2.jpg","","","54","null","","","","","","","","","",""
"image-slider-response","55","119521","0.0-11.0-0.0-0.22","1855","pics2/SA1.jpg","","","89","null","","","","","","","","","",""
"image-slider-response","56","121362","0.0-11.0-0.0-0.23","1639","pics2/SA4.jpg","","","86","null","","","","","","","","","",""
"html-button-response","57","122556","0.0-12.0","989","<div style='width: 900px;'> <font size = 6><b> End of the second rating</b><br><br>","0","","","","","","","","","","","","",""
"html-button-response","58","126520","0.0-13.0","3962","<div style='width: 900px;'>Now please rate the items for the second time. <br><br>This is not a memory test - you don't need to be consistent with your previous ratings. Just as before, try to make accurate judgements.<br><br>","0","","","","","","","","","","","","",""
"html-button-response","59","128090","0.0-14.0","1569","<div><img src='heartS.png'></img></div><br><div style='text-align: justify; width: 700px'>Using the mouse, rate the <b><i>likeness</b></i> of the food items (how much you like them/would like to eat them <i>right now</i>). Far right-end of the scale indicates an item you <i>like a lot</i>. Far left-end indicates an item you <i>dislike a lot</i>. Think about each answer.   <ul><li>Try <b><i>not</b></i> to give identical rating to different items.</li><li>Use the whole scale, and <b><i>not</b></i> just the extremes</ul></div><br>","0","","","","","","","","","","","","",""
"image-slider-response","60","129716","0.0-15.0-0.0-0.0","1623","pics2/SW4.jpg","","","57","SW","","","","","","","","","",""
"image-slider-response","61","131614","0.0-15.0-0.0-0.1","1696","pics2/SA6.jpg","","","65","SA","","","","","","","","","",""
"image-slider-response","62","133464","0.0-15.0-0.0-0.2","1647","pics2/SA3.jpg","","","33","SA","","","","","","","","","",""
"image-slider-response","63","136178","0.0-15.0-0.0-0.3","2512","pics2/FR4.jpg","","","47","FR","","","","","","","","","",""
"image-slider-response","64","138148","0.0-15.0-0.0-0.4","1768","pics2/VE5.jpg","","","62","VE","","","","","","","","","",""
"image-slider-response","65","140031","0.0-15.0-0.0-0.5","1681","pics2/VE1.jpg","","","53","VE","","","","","","","","","",""
"image-slider-response","66","141632","0.0-15.0-0.0-0.6","1399","pics2/SA4.jpg","","","75","SA","","","","","","","","","",""
"image-slider-response","67","143748","0.0-15.0-0.0-0.7","1910","pics2/VE6.jpg","","","97","VE","","","","","","","","","",""
"image-slider-response","68","145550","0.0-15.0-0.0-0.8","1597","pics2/FR3.jpg","","","69","FR","","","","","","","","","",""
"image-slider-response","69","147200","0.0-15.0-0.0-0.9","1445","pics2/FR6.jpg","","","73","FR","","","","","","","","","",""
"image-slider-response","70","149266","0.0-15.0-0.0-0.10","1863","pics2/SA1.jpg","","","40","SA","","","","","","","","","",""
"image-slider-response","71","151203","0.0-15.0-0.0-0.11","1732","pics2/SW5.jpg","","","55","SW","","","","","","","","","",""
"image-slider-response","72","152926","0.0-15.0-0.0-0.12","1519","pics2/SA5.jpg","","","29","SA","","","","","","","","","",""
"image-slider-response","73","154848","0.0-15.0-0.0-0.13","1718","pics2/VE3.jpg","","","71","VE","","","","","","","","","",""
"image-slider-response","74","156603","0.0-15.0-0.0-0.14","1552","pics2/SW3.jpg","","","61","SW","","","","","","","","","",""
"image-slider-response","75","158404","0.0-15.0-0.0-0.15","1598","pics2/SW1.jpg","","","83","SW","","","","","","","","","",""
"image-slider-response","76","160022","0.0-15.0-0.0-0.16","1415","pics2/FR2.jpg","","","81","FR","","","","","","","","","",""
"image-slider-response","77","163578","0.0-15.0-0.0-0.17","3352","pics2/FR1.jpg","","","75","FR","","","","","","","","","",""
"image-slider-response","78","165429","0.0-15.0-0.0-0.18","1647","pics2/SW6.jpg","","","71","SW","","","","","","","","","",""
"image-slider-response","79","167220","0.0-15.0-0.0-0.19","1589","pics2/FR5.jpg","","","76","FR","","","","","","","","","",""
"image-slider-response","80","168936","0.0-15.0-0.0-0.20","1513","pics2/VE4.jpg","","","61","VE","","","","","","","","","",""
"image-slider-response","81","170778","0.0-15.0-0.0-0.21","1639","pics2/SW2.jpg","","","23","SW","","","","","","","","","",""
"image-slider-response","82","172724","0.0-15.0-0.0-0.22","1743","pics2/SA2.jpg","","","92","SA","","","","","","","","","",""
"image-slider-response","83","174533","0.0-15.0-0.0-0.23","1605","pics2/VE2.jpg","","","60","VE","","","","","","","","","",""
"call-function","84","174744","0.0-16.0","","","","","","","","","","","","","","","",""
"call-function","85","174746","0.0-17.0","","","","","","","","","","","","","","","",""
"html-button-response","86","175663","0.0-18.0","916","<div style='width: 900px;'> <font size = 6><b> End of the first rating</b><br><br>","0","","","","","","","","","","","","",""
"html-button-response","87","178459","0.0-19.0","2794","<div ><img src='sizeS.png'></img></div><br><div style='text-align: justify; width: 700px'> Using the mouse, rate the <b><i>size</b></i> of the food items <b><i> relative to the white background.</b></i> Right-end of the scale indicates a <i>very large item</i>, which covers a large portion of the white rectangle. Left-end indicates a <i>very tiny</i> item which covers a tiny portion of the white rectangle.<br><br><i><u>Remember</i></u>: everything that is not the white background also contributes to item size (e.g. packing, plates, ect.)<br><br> Please keep in mind that if the accuracy of ratings do not allign well with actual sizes, the experiment will end.  As a result it will be consider incomplete and therefore no payment would be made. Good luck!<br><br></div><br>","0","","","","","","","","","","","","",""
"image-slider-response","88","180268","0.0-20.0-0.0-0.0","1807","pics2/FR4.jpg","","","80","null","","","","","","","","","",""
"image-slider-response","89","181798","0.0-20.0-0.0-0.1","1325","pics2/SA5.jpg","","","66","null","","","","","","","","","",""
"image-slider-response","90","183873","0.0-20.0-0.0-0.2","1871","pics2/SW6.jpg","","","79","null","","","","","","","","","",""
"image-slider-response","91","185868","0.0-20.0-0.0-0.3","1793","pics2/FR6.jpg","","","67","null","","","","","","","","","",""
"image-slider-response","92","187925","0.0-20.0-0.0-0.4","1853","pics2/FR3.jpg","","","79","null","","","","","","","","","",""
"image-slider-response","93","189839","0.0-20.0-0.0-0.5","1712","pics2/SW3.jpg","","","94","null","","","","","","","","","",""
"image-slider-response","94","192522","0.0-20.0-0.0-0.6","2481","pics2/VE3.jpg","","","99","null","","","","","","","","","",""
"image-slider-response","95","194404","0.0-20.0-0.0-0.7","1678","pics2/FR2.jpg","","","100","null","","","","","","","","","",""
"image-slider-response","96","196167","0.0-20.0-0.0-0.8","1557","pics2/SW4.jpg","","","68","null","","","","","","","","","",""
"image-slider-response","97","197961","0.0-20.0-0.0-0.9","1591","pics2/FR1.jpg","","","80","null","","","","","","","","","",""
"image-slider-response","98","199867","0.0-20.0-0.0-0.10","1703","pics2/SW2.jpg","","","99","null","","","","","","","","","",""
"image-slider-response","99","201645","0.0-20.0-0.0-0.11","1574","pics2/FR5.jpg","","","85","null","","","","","","","","","",""
"image-slider-response","100","204464","0.0-20.0-0.0-0.12","2615","pics2/VE5.jpg","","","61","null","","","","","","","","","",""
"image-slider-response","101","206410","0.0-20.0-0.0-0.13","1743","pics2/SW1.jpg","","","100","null","","","","","","","","","",""
"image-slider-response","102","208060","0.0-20.0-0.0-0.14","1446","pics2/VE4.jpg","","","86","null","","","","","","","","","",""
"image-slider-response","103","210695","0.0-20.0-0.0-0.15","2430","pics2/SA2.jpg","","","34","null","","","","","","","","","",""
"image-slider-response","104","212697","0.0-20.0-0.0-0.16","1799","pics2/SA4.jpg","","","32","null","","","","","","","","","",""
"image-slider-response","105","214459","0.0-20.0-0.0-0.17","1560","pics2/VE6.jpg","","","84","null","","","","","","","","","",""
"image-slider-response","106","216781","0.0-20.0-0.0-0.18","2120","pics2/SW5.jpg","","","95","null","","","","","","","","","",""
"image-slider-response","107","218463","0.0-20.0-0.0-0.19","1480","pics2/SA1.jpg","","","99","null","","","","","","","","","",""
"image-slider-response","108","220113","0.0-20.0-0.0-0.20","1447","pics2/VE1.jpg","","","92","null","","","","","","","","","",""
"image-slider-response","109","222141","0.0-20.0-0.0-0.21","1825","pics2/SA6.jpg","","","70","null","","","","","","","","","",""
"image-slider-response","110","223902","0.0-20.0-0.0-0.22","1558","pics2/SA3.jpg","","","84","null","","","","","","","","","",""
"image-slider-response","111","225678","0.0-20.0-0.0-0.23","1573","pics2/VE2.jpg","","","85","null","","","","","","","","","",""
"call-function","112","225885","0.0-21.0","","","","","","","","","","","","","","","",""
"html-button-response","113","226826","0.0-22.0","940","<div style='width: 900px;'> <font size = 6><b> End of the second rating</b><br><br>","0","","","","","","","","","","","","",""
"pavlovia","114","226833","0.0-23.0","","","","","","","","","","","","","","","",""
"html-keyboard-response","115","231835","0.0-24.0","null","<div style='width: 700px;'> <font size=6><b>SHORT BREAK</font></b><br><br><i> Please wait 5 seconds to continue</i></div> ","","","","","","null","","","","","","","",""
"pavlovia","116","231837","0.0-25.0","","","","","","","","","","","","","","","",""
"html-button-response","117","247992","0.0-26.0","16155","<div style='width: 700px;'>In the main part of the study, you will be choosing between 2 items. When it's time to choose,  this symbol will appear: <br><br><img src='chooseS.png'></img><br><br>Below, a cue will signify the type of choice: </div><br><div style='width: 700px;'><div style='float: left; width: 50%'><img src='heartS.png'></img><p class='small'>Heart cue means you should choose the item you <b><i>prefer</b></i> more.</p></div><div class='float: right; width:50%'><img src='sizeS.png'></img><p class='small'>Size cue means you should choose the <b><i>larger</b></i> item. </p></div></div><br><div style='width: 700px;'>When you click, a green square will appear around the item you chose.<br></div><div><br>","0","","","","","","","","","","","","",""
"image-selector-fb-tut","118","254118","0.0-27.0","5120","0232.jpg,0123.jpg","","","","","","","true","1","","","","","",""
"image-selector-fb-tut","119","256622","0.0-28.0","1499","0232.jpg,0123.jpg","","","","","","","false","0","","","","","",""
"html-button-response","120","259744","0.0-29.0","3121","<div style='width: 900px;'>Your choices should be both <b><i>fast and accurate</b></i>. <br><br>You will have <i>4 seconds</i> to make each choice, which should be enough consider the options and click on one of the items.<br><br>","0","","","","","","","","","","","","",""
"html-button-response","121","262660","0.0-30.0","2914","<div style='width: 900px;'>Additionally, on some choice trials you will see the <b><i>no-choice cue</b></i>: <br><br><img src='noS.png'></img> <br><br>This cue means you can't make any choice. You can examine the items, but  can't click on any of them. Just wait patiently for the cue to dissapear.<br><br>","0","","","","","","","","","","","","",""
"image-selector-fb-tut","122","264664","0.0-31.0","null","0232.jpg,0123.jpg","","","","","","","false","null","","","","","",""
"html-button-response","123","281159","0.0-32.0","16494","<div style='width: 900px;'>After each choice the items will remain on the screen and you will see this symbol: <br><br><img src='judgeS.png'></img> <br><br>This means you should rate<b> the magnitude of the difference</b> between the items using a scale: </div><br><div style='width: 900px; '><div style='float: left; width: 50%; margin-right: 2.5em; align-self:left'><img src='heartS.png'></img><p class='small' style = 'text-align: justify;'>Heart cue means you should rate <b>how much you prefer</b> one of the items over the other. Moving the scale indicator to the left means you prefer the left one; moving it to the right - right one. The more you prefer one of them, the more towards that side you should move the scale indicator. </p></div><div class='float: right; width: 50%; margin-left: 2.5em;'><img src='sizeS.png'></img><p class='small' style='text-align: justify'>Size cue means you should rate <b>how much larger</b> is one of the items over the other. Moving the scale indicator to the left means you think the left is larger; moving it to the right - right one. The greater the difference in size, the more towards that side you should move the scale indicator.</div><br>","0","","","","","","","","","","","","",""
"image-slider-2AFC-tut","124","285675","0.0-33.0","4513","","","","21","","","","","","3202","21","","","",""
"image-slider-2AFC-tut","125","288831","0.0-34.0","3154","","","","67","","","","","","2593","67","","","",""
"html-button-response","126","299882","0.0-35.0","11051","<br><br><font size = 36><b> Examples </b></font><br><br><i> 1) I would like to eat some croissants a <b>lot more</b> than doritos right now:</i><br><img src='ex1.PNG', width='62%'></img><br><br><br><i> 2) I would like to eat some doritos a <b>bit more</b> than croissants right now, but just slightly:</i><br><img src='ex2.PNG' width='62%'></img>","0","","","","","","","","","","","","",""
"html-button-response","127","301124","0.0-36.0","1240","<div style='width: 900px;'><i>Now you know everything you need to do the task!</i> <br><br>Let's start by doing a <b>short training</b>, so you'll get used to how it works. </div><br>","0","","","","","","","","","","","","",""
"image-selector-fb","128","303469","0.0-37.0-0.0","1840","pics2/SA1.jpg,pics2/SW4.jpg","","","","","","","false","0","","","sizeS.png","","",""
"image-slider-2AFC","129","308474","0.0-37.0-1.0","null","","","","null","","","","","","","","sizeS.png","4701","-57",""
"html-keyboard-response","130","309179","0.0-37.0-2.0","null","","","","","","","null","","","","","","","",""
"image-selector-fb","131","311573","0.0-37.1-0.1","1889","pics2/SA1.jpg,pics2/VE4.jpg","","","","","","","false","0","","","sizeS.png","","",""
"image-slider-2AFC","132","313394","0.0-37.1-1.1","1819","","","","-46","","","","","","","","sizeS.png","1300","-46",""
"html-keyboard-response","133","314146","0.0-37.1-2.1","null","","","","","","","null","","","","","","","",""
"image-selector-fb","134","315929","0.0-37.2-0.2","1280","pics2/SA3.jpg,pics2/SW3.jpg","","","","","","","true","1","","","heartS.png","","",""
"image-slider-2AFC","135","318529","0.0-37.2-1.2","2597","","","","49","","","","","","","","sizeS.png","1754","49",""
"html-keyboard-response","136","319281","0.0-37.2-2.2","null","","","","","","","null","","","","","","","",""
"image-selector-fb","137","321241","0.0-37.3-0.3","1456","pics2/VE5.jpg,pics2/SW5.jpg","","","","","","","true","1","","","heartS.png","","",""
"image-slider-2AFC","138","324087","0.0-37.3-1.3","2842","","","","-47","","","","","","","","sizeS.png","2177","-47",""
"html-keyboard-response","139","324891","0.0-37.3-2.3","null","","","","","","","null","","","","","","","",""
"image-selector-fb","140","327264","0.0-37.4-0.4","1869","pics2/SW2.jpg,pics2/SA3.jpg","","","","","","","false","0","","","sizeS.png","","",""
"image-slider-2AFC","141","329590","0.0-37.4-1.4","2323","","","","33","","","","","","","","heartS.png","1651","33",""
"html-keyboard-response","142","330293","0.0-37.4-2.4","null","","","","","","","null","","","","","","","",""
"image-selector-fb","143","331966","0.0-37.5-0.5","1168","pics2/SA3.jpg,pics2/VE2.jpg","","","","","","","true","1","","","heartS.png","","",""
"image-slider-2AFC","144","334451","0.0-37.5-1.5","2483","","","","18","","","","","","","","sizeS.png","1872","18",""
"html-keyboard-response","145","335303","0.0-37.5-2.5","null","","","","","","","null","","","","","","","",""
"image-selector-fb","146","338307","0.0-37.6-0.6","null","pics2/SW4.jpg,pics2/VE1.jpg","","","","","","","false","null","","","noS.png","","",""
"image-slider-2AFC","147","340973","0.0-37.6-1.6","2663","","","","41","","","","","","","","sizeS.png","2062","41",""
"html-keyboard-response","148","341727","0.0-37.6-2.6","null","","","","","","","null","","","","","","","",""
"image-selector-fb","149","343694","0.0-37.7-0.7","1461","pics2/SA1.jpg,pics2/VE2.jpg","","","","","","","false","0","","","sizeS.png","","",""
"image-slider-2AFC","150","345761","0.0-37.7-1.7","2065","","","","-88","","","","","","","","sizeS.png","1344","-88",""
"html-keyboard-response","151","346465","0.0-37.7-2.7","null","","","","","","","null","","","","","","","",""
"image-selector-fb","152","348076","0.0-37.8-0.8","1105","pics2/VE5.jpg,pics2/FR4.jpg","","","","","","","true","1","","","heartS.png","","",""
"image-slider-2AFC","153","350422","0.0-37.8-1.8","2345","","","","-53","","","","","","","","sizeS.png","1849","-53",""
"html-keyboard-response","154","351275","0.0-37.8-2.8","null","","","","","","","null","","","","","","","",""
"image-selector-fb","155","354283","0.0-37.9-0.9","null","pics2/SW4.jpg,pics2/FR4.jpg","","","","","","","false","null","","","noS.png","","",""
"image-slider-2AFC","156","356959","0.0-37.9-1.9","2674","","","","-42","","","","","","","","sizeS.png","2104","-42",""
"html-keyboard-response","157","357765","0.0-37.9-2.9","null","","","","","","","null","","","","","","","",""
"image-selector-fb","158","359607","0.0-37.10-0.10","1338","pics2/SW2.jpg,pics2/SA1.jpg","","","","","","","true","1","","","sizeS.png","","",""
"image-slider-2AFC","159","361700","0.0-37.10-1.10","2092","","","","92","","","","","","","","sizeS.png","1387","92",""
"html-keyboard-response","160","362453","0.0-37.10-2.10","null","","","","","","","null","","","","","","","",""
"image-selector-fb","161","364477","0.0-37.11-0.11","1520","pics2/SA1.jpg,pics2/SW3.jpg","","","","","","","false","0","","","sizeS.png","","",""
"image-slider-2AFC","162","366634","0.0-37.11-1.11","2155","","","","-54","","","","","","","","sizeS.png","1580","-54",""
"html-keyboard-response","163","367488","0.0-37.11-2.11","null","","","","","","","null","","","","","","","",""
"html-button-response","164","368445","0.0-38.0","955","<i><font size=10>Good job!</font></i> <br><br>Before we begin, you have a chance to review the rules, in case something was not clear.<br><br>","0","","","","","","","","","","","","",""
"instructions","165","377245","0.0-39.0","8800","","","","","","","","","","","","","","","[{""page_index"":0,""viewing_time"":6213},{""page_index"":1,""viewing_time"":1234},{""page_index"":2,""viewing_time"":1353}]"
"html-button-response","166","380216","0.0-40.0","2970","<div style='width: 900px;'> <font size='40'>Great! Now you're ready to begin</font><br><br>The main part of the experiment will consist of <u>3 blocks</u>. Each block consists of 66 decisions and judgements. You will have time for a short break between blocks.<br><br><br><i><u>Do your best to respond within the time limit.</u></i><br><br><i> Press the button to start the experiment<br><br></i>","0","","","","","","","","","","","","",""
"image-selector-fb","167","383223","0.0-41.0-0.0","null","pics2/FR1.jpg,pics2/FR2.jpg","","","","","","","false","null","","","noS.png","","",""
"image-slider-2AFC","168","385367","0.0-41.0-1.0","2142","","","","60","","","","","","","","heartS.png","1470","60",""
"html-keyboard-response","169","386169","0.0-41.0-2.0","null","","","","","","","null","","","","","","","",""
"image-selector-fb","170","387951","0.0-41.1-0.1","1279","pics2/FR1.jpg,pics2/SW1.jpg","","","","","","","true","1","","","sizeS.png","","",""
"image-slider-2AFC","171","390363","0.0-41.1-1.1","2410","","","","81","","","","","","","","sizeS.png","1537","81",""
"html-keyboard-response","172","391068","0.0-41.1-2.1","null","","","","","","","null","","","","","","","",""
"image-selector-fb","173","394074","0.0-41.2-0.2","null","pics2/SA6.jpg,pics2/FR1.jpg","","","","","","","false","null","","","noS.png","","",""
"image-slider-2AFC","174","396220","0.0-41.2-1.2","2143","","","","-42","","","","","","","","heartS.png","1583","-42",""
"html-keyboard-response","175","396922","0.0-41.2-2.2","null","","","","","","","null","","","","","","","",""
"image-selector-fb","176","398724","0.0-41.3-0.3","1298","pics2/SA2.jpg,pics2/VE6.jpg","","","","","","","false","0","","","sizeS.png","","",""
"image-slider-2AFC","177","400745","0.0-41.3-1.3","2019","","","","100","","","","","","","","heartS.png","1282","100",""
"html-keyboard-response","178","401548","0.0-41.3-2.3","null","","","","","","","null","","","","","","","",""
"image-selector-fb","179","403299","0.0-41.4-0.4","1245","pics2/FR5.jpg,pics2/FR2.jpg","","","","","","","true","1","","","sizeS.png","","",""
"image-slider-2AFC","180","405567","0.0-41.4-1.4","2266","","","","35","","","","","","","","sizeS.png","1335","35",""
"html-keyboard-response","181","406272","0.0-41.4-2.4","null","","","","","","","null","","","","","","","",""
"image-selector-fb","182","407823","0.0-41.5-0.5","1048","pics2/SA2.jpg,pics2/FR5.jpg","","","","","","","false","0","","","sizeS.png","","",""
"image-slider-2AFC","183","409868","0.0-41.5-1.5","2043","","","","32","","","","","","","","heartS.png","1363","32",""
"html-keyboard-response","184","410622","0.0-41.5-2.5","null","","","","","","","null","","","","","","","",""
"image-selector-fb","185","412357","0.0-41.6-0.6","1231","pics2/SW6.jpg,pics2/SA2.jpg","","","","","","","false","0","","","heartS.png","","",""
"image-slider-2AFC","186","414530","0.0-41.6-1.6","2172","","","","89","","","","","","","","sizeS.png","1445","89",""
"html-keyboard-response","187","415283","0.0-41.6-2.6","null","","","","","","","null","","","","","","","",""
"image-selector-fb","188","418290","0.0-41.7-0.7","null","pics2/FR5.jpg,pics2/FR2.jpg","","","","","","","false","null","","","noS.png","","",""
"image-slider-2AFC","189","421371","0.0-41.7-1.7","3078","","","","41","","","","","","","","sizeS.png","2501","41",""
"html-keyboard-response","190","422124","0.0-41.7-2.7","null","","","","","","","null","","","","","","","",""
"image-selector-fb","191","424085","0.0-41.8-0.8","1455","pics2/FR6.jpg,pics2/SA6.jpg","","","","","","","false","0","","","heartS.png","","",""
"image-slider-2AFC","192","426128","0.0-41.8-1.8","2041","","","","59","","","","","","","","sizeS.png","1385","59",""
"html-keyboard-response","193","426982","0.0-41.8-2.8","null","","","","","","","null","","","","","","","",""
"image-selector-fb","194","428433","0.0-41.9-0.9","947","pics2/FR6.jpg,pics2/SW1.jpg","","","","","","","true","1","","","sizeS.png","","",""
"image-slider-2AFC","195","430069","0.0-41.9-1.9","1634","","","","-38","","","","","","","","heartS.png","1090","-38",""
"html-keyboard-response","196","430873","0.0-41.9-2.9","null","","","","","","","null","","","","","","","",""
"image-selector-fb","197","433877","0.0-41.10-0.10","null","pics2/SW1.jpg,pics2/FR6.jpg","","","","","","","false","null","","","noS.png","","",""
"image-slider-2AFC","198","435933","0.0-41.10-1.10","2053","","","","42","","","","","","","","heartS.png","1484","42",""
"html-keyboard-response","199","436634","0.0-41.10-2.10","null","","","","","","","null","","","","","","","",""
"image-selector-fb","200","439640","0.0-41.11-0.11","null","pics2/SW1.jpg,pics2/FR5.jpg","","","","","","","false","null","","","noS.png","","",""
"image-slider-2AFC","201","442196","0.0-41.11-1.11","2554","","","","-93","","","","","","","","sizeS.png","1962","-93",""
"html-keyboard-response","202","443050","0.0-41.11-2.11","null","","","","","","","null","","","","","","","",""
"image-selector-fb","203","444890","0.0-41.12-0.12","1332","pics2/SA4.jpg,pics2/VE6.jpg","","","","","","","false","0","","","sizeS.png","","",""
"image-slider-2AFC","204","446906","0.0-41.12-1.12","2014","","","","100","","","","","","","","heartS.png","1315","100",""
"html-keyboard-response","205","447659","0.0-41.12-2.12","null","","","","","","","null","","","","","","","",""
"image-selector-fb","206","449698","0.0-41.13-0.13","1534","pics2/FR1.jpg,pics2/SA6.jpg","","","","","","","false","0","","","heartS.png","","",""
"image-slider-2AFC","207","451519","0.0-41.13-1.13","1820","","","","-38","","","","","","","","heartS.png","1299","-38",""
"html-keyboard-response","208","452372","0.0-41.13-2.13","null","","","","","","","null","","","","","","","",""
"image-selector-fb","209","454032","0.0-41.14-0.14","1156","pics2/SA2.jpg,pics2/FR2.jpg","","","","","","","false","0","","","sizeS.png","","",""
"image-slider-2AFC","210","456557","0.0-41.14-1.14","2523","","","","36","","","","","","","","heartS.png","1834","36",""
"html-keyboard-response","211","457362","0.0-41.14-2.14","null","","","","","","","null","","","","","","","",""
"image-selector-fb","212","459454","0.0-41.15-0.15","1589","pics2/FR1.jpg,pics2/SA2.jpg","","","","","","","true","1","","","heartS.png","","",""
"image-slider-2AFC","213","461627","0.0-41.15-1.15","2170","","","","99","","","","","","","","sizeS.png","1376","99",""
"html-keyboard-response","214","462483","0.0-41.15-2.15","null","","","","","","","null","","","","","","","",""
"image-selector-fb","215","464114","0.0-41.16-0.16","1127","pics2/SW6.jpg,pics2/VE6.jpg","","","","","","","true","1","","","heartS.png","","",""
"image-slider-2AFC","216","465777","0.0-41.16-1.16","1660","","","","17","","","","","","","","heartS.png","1147","17",""
"html-keyboard-response","217","466531","0.0-41.16-2.16","null","","","","","","","null","","","","","","","",""
"image-selector-fb","218","468160","0.0-41.17-0.17","1125","pics2/SW6.jpg,pics2/SA6.jpg","","","","","","","false","0","","","heartS.png","","",""
"image-slider-2AFC","219","469837","0.0-41.17-1.17","1673","","","","-54","","","","","","","","heartS.png","1105","-54",""
"html-keyboard-response","220","470538","0.0-41.17-2.17","null","","","","","","","null","","","","","","","",""
"image-selector-fb","221","472325","0.0-41.18-0.18","1283","pics2/SA6.jpg,pics2/FR6.jpg","","","","","","","false","0","","","sizeS.png","","",""
"image-slider-2AFC","222","474145","0.0-41.18-1.18","1817","","","","-73","","","","","","","","sizeS.png","1235","-73",""
"html-keyboard-response","223","474849","0.0-41.18-2.18","null","","","","","","","null","","","","","","","",""
"image-selector-fb","224","476539","0.0-41.19-0.19","1187","pics2/VE3.jpg,pics2/FR1.jpg","","","","","","","true","1","","","sizeS.png","","",""
"image-slider-2AFC","225","478984","0.0-41.19-1.19","2444","","","","83","","","","","","","","sizeS.png","1675","83",""
"html-keyboard-response","226","479787","0.0-41.19-2.19","null","","","","","","","null","","","","","","","",""
"image-selector-fb","227","482791","0.0-41.20-0.20","null","pics2/SA6.jpg,pics2/VE6.jpg","","","","","","","false","null","","","noS.png","","",""
"image-slider-2AFC","228","484959","0.0-41.20-1.20","2166","","","","100","","","","","","","","heartS.png","1468","100",""
"html-keyboard-response","229","485713","0.0-41.20-2.20","null","","","","","","","null","","","","","","","",""
"image-selector-fb","230","488720","0.0-41.21-0.21","null","pics2/SW6.jpg,pics2/FR2.jpg","","","","","","","false","null","","","noS.png","","",""
"image-slider-2AFC","231","491879","0.0-41.21-1.21","3158","","","","82","","","","","","","","sizeS.png","1451","82",""
"html-keyboard-response","232","492735","0.0-41.21-2.21","null","","","","","","","null","","","","","","","",""
"image-selector-fb","233","496252","0.0-41.22-0.22","3012","pics2/FR3.jpg,pics2/SW6.jpg","","","","","","","true","1","","","sizeS.png","","",""
"image-slider-2AFC","234","498239","0.0-41.22-1.22","1985","","","","-23","","","","","","","","heartS.png","1520","-23",""
"html-keyboard-response","235","499092","0.0-41.22-2.22","null","","","","","","","null","","","","","","","",""
"image-selector-fb","236","501119","0.0-41.23-0.23","1524","pics2/SW6.jpg,pics2/SW1.jpg","","","","","","","false","0","","","heartS.png","","",""
"image-slider-2AFC","237","503077","0.0-41.23-1.23","1955","","","","89","","","","","","","","sizeS.png","1251","89",""
"html-keyboard-response","238","503882","0.0-41.23-2.23","null","","","","","","","null","","","","","","","",""
"image-selector-fb","239","506565","0.0-41.24-0.24","2180","pics2/FR6.jpg,pics2/SA2.jpg","","","","","","","false","0","","","heartS.png","","",""
"image-slider-2AFC","240","508115","0.0-41.24-1.24","1548","","","","-13","","","","","","","","heartS.png","1123","-13",""
"html-keyboard-response","241","508819","0.0-41.24-2.24","null","","","","","","","null","","","","","","","",""
"image-selector-fb","242","511826","0.0-41.25-0.25","null","pics2/SW6.jpg,pics2/FR5.jpg","","","","","","","false","null","","","noS.png","","",""
"image-slider-2AFC","243","513497","0.0-41.25-1.25","1669","","","","-22","","","","","","","","heartS.png","1203","-22",""
"html-keyboard-response","244","514201","0.0-41.25-2.25","null","","","","","","","null","","","","","","","",""
"image-selector-fb","245","515818","0.0-41.26-0.26","1113","pics2/SA4.jpg,pics2/FR2.jpg","","","","","","","false","0","","","sizeS.png","","",""
"image-slider-2AFC","246","517582","0.0-41.26-1.26","1764","","","","31","","","","","","","","heartS.png","1206","31",""
"html-keyboard-response","247","518435","0.0-41.26-2.26","null","","","","","","","null","","","","","","","",""
"image-selector-fb","248","519806","0.0-41.27-0.27","867","pics2/SW6.jpg,pics2/FR5.jpg","","","","","","","false","0","","","heartS.png","","",""
"image-slider-2AFC","249","522381","0.0-41.27-1.27","2571","","","","-32","","","","","","","","heartS.png","1259,2071","-52,-32",""
"html-keyboard-response","250","523235","0.0-41.27-2.27","null","","","","","","","null","","","","","","","",""
"image-selector-fb","251","524781","0.0-41.28-0.28","1042","pics2/SA2.jpg,pics2/FR6.jpg","","","","","","","false","0","","","sizeS.png","","",""
"image-slider-2AFC","252","527875","0.0-41.28-1.28","3091","","","","-89","","","","","","","","sizeS.png","1401,2298","-73,-89",""
"html-keyboard-response","253","528677","0.0-41.28-2.28","null","","","","","","","null","","","","","","","",""
"image-selector-fb","254","530275","0.0-41.29-0.29","1094","pics2/SA6.jpg,pics2/FR5.jpg","","","","","","","false","0","","","sizeS.png","","",""
"image-slider-2AFC","255","532224","0.0-41.29-1.29","1947","","","","36","","","","","","","","heartS.png","1364","36",""
"html-keyboard-response","256","533029","0.0-41.29-2.29","null","","","","","","","null","","","","","","","",""
"image-selector-fb","257","536034","0.0-41.30-0.30","null","pics2/SA2.jpg,pics2/VE6.jpg","","","","","","","false","null","","","noS.png","","",""
"image-slider-2AFC","258","539048","0.0-41.30-1.30","3012","","","","-94","","","","","","","","sizeS.png","2195","-94",""
"html-keyboard-response","259","539851","0.0-41.30-2.30","null","","","","","","","null","","","","","","","",""
"image-selector-fb","260","542512","0.0-41.31-0.31","2156","pics2/SW6.jpg,pics2/FR3.jpg","","","","","","","true","1","","","heartS.png","","",""
"image-slider-2AFC","261","544880","0.0-41.31-1.31","2365","","","","-59","","","","","","","","sizeS.png","1749","-59",""
"html-keyboard-response","262","545633","0.0-41.31-2.31","null","","","","","","","null","","","","","","","",""
"image-selector-fb","263","547576","0.0-41.32-0.32","1439","pics2/SA2.jpg,pics2/FR1.jpg","","","","","","","false","0","","","sizeS.png","","",""
"image-slider-2AFC","264","549325","0.0-41.32-1.32","1747","","","","43","","","","","","","","heartS.png","1169","43",""
"html-keyboard-response","265","550027","0.0-41.32-2.32","null","","","","","","","null","","","","","","","",""
"image-selector-fb","266","551661","0.0-41.33-0.33","1130","pics2/FR6.jpg,pics2/SA4.jpg","","","","","","","true","1","","","sizeS.png","","",""
"image-slider-2AFC","267","553955","0.0-41.33-1.33","2291","","","","-34","","","","","","","","heartS.png","1695","-34",""
"html-keyboard-response","268","554808","0.0-41.33-2.33","null","","","","","","","null","","","","","","","",""
"image-selector-fb","269","556259","0.0-41.34-0.34","947","pics2/VE6.jpg,pics2/VE3.jpg","","","","","","","false","0","","","heartS.png","","",""
"image-slider-2AFC","270","558689","0.0-41.34-1.34","2428","","","","42","","","","","","","","sizeS.png","1834","42",""
"html-keyboard-response","271","559541","0.0-41.34-2.34","null","","","","","","","null","","","","","","","",""
"image-selector-fb","272","561041","0.0-41.35-0.35","996","pics2/FR5.jpg,pics2/SA4.jpg","","","","","","","true","1","","","sizeS.png","","",""
"image-slider-2AFC","273","562638","0.0-41.35-1.35","1594","","","","-34","","","","","","","","heartS.png","1098","-34",""
"html-keyboard-response","274","563441","0.0-41.35-2.35","null","","","","","","","null","","","","","","","",""
"image-selector-fb","275","565094","0.0-41.36-0.36","1149","pics2/VE6.jpg,pics2/FR1.jpg","","","","","","","false","0","","","heartS.png","","",""
"image-slider-2AFC","276","568227","0.0-41.36-1.36","3132","","","","91","","","","","","","","sizeS.png","1650,2493","67,91",""
"html-keyboard-response","277","569030","0.0-41.36-2.36","null","","","","","","","null","","","","","","","",""
"image-selector-fb","278","570420","0.0-41.37-0.37","886","pics2/FR3.jpg,pics2/SW1.jpg","","","","","","","true","1","","","sizeS.png","","",""
"image-slider-2AFC","279","572488","0.0-41.37-1.37","2065","","","","-59","","","","","","","","heartS.png","1450","-59",""
"html-keyboard-response","280","573292","0.0-41.37-2.37","null","","","","","","","null","","","","","","","",""
"image-selector-fb","281","574976","0.0-41.38-0.38","1181","pics2/SW1.jpg,pics2/FR1.jpg","","","","","","","true","1","","","heartS.png","","",""
"image-slider-2AFC","282","577440","0.0-41.38-1.38","2461","","","","-78","","","","","","","","sizeS.png","1844","-78",""
"html-keyboard-response","283","578242","0.0-41.38-2.38","null","","","","","","","null","","","","","","","",""
"image-selector-fb","284","579999","0.0-41.39-0.39","1254","pics2/FR3.jpg,pics2/VE3.jpg","","","","","","","true","1","","","sizeS.png","","",""
"image-slider-2AFC","285","582046","0.0-41.39-1.39","2044","","","","8","","","","","","","","sizeS.png","1227","8",""
"html-keyboard-response","286","582849","0.0-41.39-2.39","null","","","","","","","null","","","","","","","",""
"image-selector-fb","287","584582","0.0-41.40-0.40","1228","pics2/SA4.jpg,pics2/SW6.jpg","","","","","","","false","0","","","sizeS.png","","",""
"image-slider-2AFC","288","586739","0.0-41.40-1.40","2156","","","","-75","","","","","","","","sizeS.png","1394","-75",""
"html-keyboard-response","289","587444","0.0-41.40-2.40","null","","","","","","","null","","","","","","","",""
"image-selector-fb","290","590448","0.0-41.41-0.41","null","pics2/SW6.jpg,pics2/SA4.jpg","","","","","","","false","null","","","noS.png","","",""
"image-slider-2AFC","291","592360","0.0-41.41-1.41","1910","","","","49","","","","","","","","sizeS.png","1357","49",""
"html-keyboard-response","292","593112","0.0-41.41-2.41","null","","","","","","","null","","","","","","","",""
"image-selector-fb","293","595171","0.0-41.42-0.42","1554","pics2/VE3.jpg,pics2/FR6.jpg","","","","","","","false","0","","","sizeS.png","","",""
"image-slider-2AFC","294","597992","0.0-41.42-1.42","2819","","","","-56","","","","","","","","heartS.png","784","-56",""
"html-keyboard-response","295","598794","0.0-41.42-2.42","null","","","","","","","null","","","","","","","",""
"image-selector-fb","296","601801","0.0-41.43-0.43","null","pics2/SA2.jpg,pics2/SA4.jpg","","","","","","","false","null","","","noS.png","","",""
"image-slider-2AFC","297","604504","0.0-41.43-1.43","2700","","","","-60","","","","","","","","heartS.png","1621,2087","-51,-60",""
"html-keyboard-response","298","605256","0.0-41.43-2.43","null","","","","","","","null","","","","","","","",""
"image-selector-fb","299","609762","0.0-41.44-0.44","null","pics2/FR1.jpg,pics2/FR6.jpg","","","","","","","false","null","","","heartS.png","","",""
"image-slider-2AFC","300","609762","0.0-41.44-1.44","null","","","","null","","","","","","","","sizeS.png","","",""
"html-keyboard-response","301","610614","0.0-41.44-2.44","null","","","","","","","null","","","","","","","",""
"image-selector-fb","302","612440","0.0-41.45-0.45","1322","pics2/SA6.jpg,pics2/SA2.jpg","","","","","","","true","1","","","heartS.png","","",""
"image-slider-2AFC","303","615158","0.0-41.45-1.45","2716","","","","94","","","","","","","","sizeS.png","1450,2179","69,94",""
"html-keyboard-response","304","615914","0.0-41.45-2.45","null","","","","","","","null","","","","","","","",""
"image-selector-fb","305","617735","0.0-41.46-0.46","1316","pics2/SA4.jpg,pics2/FR6.jpg","","","","","","","true","1","","","heartS.png","","",""
"image-slider-2AFC","306","620180","0.0-41.46-1.46","2443","","","","-85","","","","","","","","sizeS.png","1858","-85",""
"html-keyboard-response","307","620981","0.0-41.46-2.46","null","","","","","","","null","","","","","","","",""
"image-selector-fb","308","622548","0.0-41.47-0.47","1064","pics2/FR2.jpg,pics2/SW6.jpg","","","","","","","false","0","","","heartS.png","","",""
"image-slider-2AFC","309","625178","0.0-41.47-1.47","2627","","","","-66","","","","","","","","sizeS.png","1538","-66",""
"html-keyboard-response","310","625932","0.0-41.47-2.47","null","","","","","","","null","","","","","","","",""
"image-selector-fb","311","628939","0.0-41.48-0.48","null","pics2/SW6.jpg,pics2/SA2.jpg","","","","","","","false","null","","","noS.png","","",""
"image-slider-2AFC","312","631529","0.0-41.48-1.48","2588","","","","-15","","","","","","","","heartS.png","1379,2235","-46,-15",""
"html-keyboard-response","313","632282","0.0-41.48-2.48","null","","","","","","","null","","","","","","","",""
"image-selector-fb","314","633756","0.0-41.49-0.49","968","pics2/VE6.jpg,pics2/FR5.jpg","","","","","","","false","0","","","heartS.png","","",""
"image-slider-2AFC","315","636310","0.0-41.49-1.49","2553","","","","-69","","","","","","","","sizeS.png","2024","-69",""
"html-keyboard-response","316","637013","0.0-41.49-2.49","null","","","","","","","null","","","","","","","",""
"image-selector-fb","317","640020","0.0-41.50-0.50","null","pics2/FR3.jpg,pics2/SW6.jpg","","","","","","","false","null","","","noS.png","","",""
"image-slider-2AFC","318","642014","0.0-41.50-1.50","1992","","","","48","","","","","","","","sizeS.png","1559","48",""
"html-keyboard-response","319","642866","0.0-41.50-2.50","null","","","","","","","null","","","","","","","",""
"image-selector-fb","320","645874","0.0-41.51-0.51","null","pics2/SW6.jpg,pics2/SA6.jpg","","","","","","","false","null","","","noS.png","","",""
"image-slider-2AFC","321","647691","0.0-41.51-1.51","1814","","","","47","","","","","","","","sizeS.png","1262","47",""
"html-keyboard-response","322","648394","0.0-41.51-2.51","null","","","","","","","null","","","","","","","",""
"image-selector-fb","323","651399","0.0-41.52-0.52","null","pics2/SW6.jpg,pics2/VE6.jpg","","","","","","","false","null","","","noS.png","","",""
"image-slider-2AFC","324","653348","0.0-41.52-1.52","1947","","","","77","","","","","","","","heartS.png","1202","77",""
"html-keyboard-response","325","654051","0.0-41.52-2.52","null","","","","","","","null","","","","","","","",""
"image-selector-fb","326","657057","0.0-41.53-0.53","null","pics2/SA6.jpg,pics2/SA4.jpg","","","","","","","false","null","","","noS.png","","",""
"image-slider-2AFC","327","661026","0.0-41.53-1.53","3967","","","","-16","","","","","","","","sizeS.png","3453","-16",""
"html-keyboard-response","328","661780","0.0-41.53-2.53","null","","","","","","","null","","","","","","","",""
"image-selector-fb","329","663817","0.0-41.54-0.54","1533","pics2/SA6.jpg,pics2/VE3.jpg","","","","","","","true","1","","","heartS.png","","",""
"image-slider-2AFC","330","665264","0.0-41.54-1.54","1445","","","","46","","","","","","","","heartS.png","972","46",""
"html-keyboard-response","331","666016","0.0-41.54-2.54","null","","","","","","","null","","","","","","","",""
"image-selector-fb","332","667718","0.0-41.55-0.55","1198","pics2/FR2.jpg,pics2/SW1.jpg","","","","","","","false","0","","","heartS.png","","",""
"image-slider-2AFC","333","670029","0.0-41.55-1.55","2308","","","","67","","","","","","","","sizeS.png","1427","67",""
"html-keyboard-response","334","670781","0.0-41.55-2.55","null","","","","","","","null","","","","","","","",""
"image-selector-fb","335","672286","0.0-41.56-0.56","999","pics2/FR2.jpg,pics2/FR5.jpg","","","","","","","false","0","","","heartS.png","","",""
"image-slider-2AFC","336","674073","0.0-41.56-1.56","1785","","","","-68","","","","","","","","heartS.png","1136","-68",""
"html-keyboard-response","337","674876","0.0-41.56-2.56","null","","","","","","","null","","","","","","","",""
"image-selector-fb","338","677035","0.0-41.57-0.57","1653","pics2/SA2.jpg,pics2/FR3.jpg","","","","","","","false","0","","","heartS.png","","",""
"image-slider-2AFC","339","679479","0.0-41.57-1.57","2441","","","","-84","","","","","","","","sizeS.png","1745","-84",""
"html-keyboard-response","340","680331","0.0-41.57-2.57","null","","","","","","","null","","","","","","","",""
"image-selector-fb","341","681768","0.0-41.58-0.58","931","pics2/VE6.jpg,pics2/FR3.jpg","","","","","","","false","0","","","heartS.png","","",""
"image-slider-2AFC","342","683852","0.0-41.58-1.58","2082","","","","-32","","","","","","","","heartS.png","1642","-32",""
"html-keyboard-response","343","684655","0.0-41.58-2.58","null","","","","","","","null","","","","","","","",""
"image-selector-fb","344","686451","0.0-41.59-0.59","1292","pics2/SA4.jpg,pics2/SA6.jpg","","","","","","","false","0","","","heartS.png","","",""
"image-slider-2AFC","345","688185","0.0-41.59-1.59","1731","","","","-41","","","","","","","","heartS.png","923","-41",""
"html-keyboard-response","346","688988","0.0-41.59-2.59","null","","","","","","","null","","","","","","","",""
"image-selector-fb","347","691997","0.0-41.60-0.60","null","pics2/FR5.jpg,pics2/SA4.jpg","","","","","","","false","null","","","noS.png","","",""
"image-slider-2AFC","348","693953","0.0-41.60-1.60","1954","","","","86","","","","","","","","sizeS.png","1361","86",""
"html-keyboard-response","349","694756","0.0-41.60-2.60","null","","","","","","","null","","","","","","","",""
"image-selector-fb","350","696594","0.0-41.61-0.61","1334","pics2/SA4.jpg,pics2/SW1.jpg","","","","","","","true","1","","","sizeS.png","","",""
"image-slider-2AFC","351","698576","0.0-41.61-1.61","1979","","","","11","","","","","","","","sizeS.png","1484","11",""
"html-keyboard-response","352","699379","0.0-41.61-2.61","null","","","","","","","null","","","","","","","",""
"image-selector-fb","353","700983","0.0-41.62-0.62","1101","pics2/SW6.jpg,pics2/FR1.jpg","","","","","","","false","0","","","heartS.png","","",""
"image-slider-2AFC","354","702235","0.0-41.62-1.62","1251","","","","-23","","","","","","","","heartS.png","858","-23",""
"html-keyboard-response","355","702941","0.0-41.62-2.62","null","","","","","","","null","","","","","","","",""
"image-selector-fb","356","705946","0.0-41.63-0.63","null","pics2/FR1.jpg,pics2/VE6.jpg","","","","","","","false","null","","","noS.png","","",""
"image-slider-2AFC","357","708049","0.0-41.63-1.63","2102","","","","-64","","","","","","","","sizeS.png","1446","-64",""
"html-keyboard-response","358","708753","0.0-41.63-2.63","null","","","","","","","null","","","","","","","",""
"image-selector-fb","359","710554","0.0-41.64-0.64","1298","pics2/VE6.jpg,pics2/FR2.jpg","","","","","","","true","1","","","sizeS.png","","",""
"image-slider-2AFC","360","713055","0.0-41.64-1.64","2499","","","","35","","","","","","","","sizeS.png","1882","35",""
"html-keyboard-response","361","713859","0.0-41.64-2.64","null","","","","","","","null","","","","","","","",""
"image-selector-fb","362","715336","0.0-41.65-0.65","972","pics2/VE6.jpg,pics2/SA4.jpg","","","","","","","false","0","","","heartS.png","","",""
"image-slider-2AFC","363","717300","0.0-41.65-1.65","1962","","","","-62","","","","","","","","heartS.png","1290","-62",""
"html-keyboard-response","364","718003","0.0-41.65-2.65","null","","","","","","","null","","","","","","","",""
"pavlovia","365","718016","0.0-42.0","","","","","","","","","","","","","","","",""
"html-keyboard-response","366","723018","0.0-43.0","null","<div style='width: 700px;'> <font size=6><b>SHORT BREAK</font></b><br><br><i> Please wait 5 seconds to continue</i></div> ","","","","","","null","","","","","","","",""
"pavlovia","367","723020","0.0-44.0","","","","","","","","","","","","","","","",""
"html-button-response","368","23691873","0.0-45.0","22968851","<div style='width: 700px;'> <font size=6><b>BLOCK 2</font></b><br><br>Press the button whenever you feel ready to start the second block (there are 3 in total)</div>","0","","","","","","","","","","","","",""
"image-selector-fb","369","23694903","0.0-46.0-0.0","null","pics2/VE3.jpg,pics2/SA4.jpg","","","","","","","false","null","","","noS.png","","",""
"image-slider-2AFC","370","23697313","0.0-46.0-1.0","2409","","","","66","","","","","","","","sizeS.png","1832","66",""
"html-keyboard-response","371","23698018","0.0-46.0-2.0","null","","","","","","","null","","","","","","","",""
"image-selector-fb","372","23701023","0.0-46.1-0.1","null","pics2/SA2.jpg,pics2/FR2.jpg","","","","","","","false","null","","","noS.png","","",""
"image-slider-2AFC","373","23704267","0.0-46.1-1.1","3242","","","","27","","","","","","","","heartS.png","1596,2778","57,27",""
"html-keyboard-response","374","23705020","0.0-46.1-2.1","null","","","","","","","null","","","","","","","",""
"image-selector-fb","375","23706582","0.0-46.2-0.2","1056","pics2/FR3.jpg,pics2/SA4.jpg","","","","","","","true","1","","","sizeS.png","","",""
"image-slider-2AFC","376","23709522","0.0-46.2-1.2","2937","","","","-56","","","","","","","","heartS.png","1609,2376","-26,-56",""
"html-keyboard-response","377","23710375","0.0-46.2-2.2","null","","","","","","","null","","","","","","","",""
"image-selector-fb","378","23713382","0.0-46.3-0.3","null","pics2/SA2.jpg,pics2/FR5.jpg","","","","","","","false","null","","","noS.png","","",""
"image-slider-2AFC","379","23715715","0.0-46.3-1.3","2331","","","","-95","","","","","","","","sizeS.png","1659","-95",""
"html-keyboard-response","380","23716571","0.0-46.3-2.3","null","","","","","","","null","","","","","","","",""
"image-selector-fb","381","23719575","0.0-46.4-0.4","null","pics2/FR3.jpg,pics2/FR1.jpg","","","","","","","false","null","","","noS.png","","",""
"image-slider-2AFC","382","23723422","0.0-46.4-1.4","3845","","","","-41","","","","","","","","heartS.png","3077","-41",""
"html-keyboard-response","383","23724173","0.0-46.4-2.4","null","","","","","","","null","","","","","","","",""
"image-selector-fb","384","23725792","0.0-46.5-0.5","1115","pics2/SW1.jpg,pics2/VE6.jpg","","","","","","","false","0","","","sizeS.png","","",""
"image-slider-2AFC","385","23727893","0.0-46.5-1.5","2098","","","","-90","","","","","","","","sizeS.png","1482","-90",""
"html-keyboard-response","386","23728595","0.0-46.5-2.5","null","","","","","","","null","","","","","","","",""
"image-selector-fb","387","23731603","0.0-46.6-0.6","null","pics2/SW1.jpg,pics2/SA6.jpg","","","","","","","false","null","","","noS.png","","",""
"image-slider-2AFC","388","23734981","0.0-46.6-1.6","3376","","","","-17","","","","","","","","heartS.png","3008","-17",""
"html-keyboard-response","389","23735837","0.0-46.6-2.6","null","","","","","","","null","","","","","","","",""
"image-selector-fb","390","23737496","0.0-46.7-0.7","1156","pics2/VE6.jpg,pics2/SW1.jpg","","","","","","","false","0","","","heartS.png","","",""
"image-slider-2AFC","391","23738548","0.0-46.7-1.7","1048","","","","-9","","","","","","","","heartS.png","641","-9",""
"html-keyboard-response","392","23739303","0.0-46.7-2.7","null","","","","","","","null","","","","","","","",""
"image-selector-fb","393","23741901","0.0-46.8-0.8","2094","pics2/VE6.jpg,pics2/SW6.jpg","","","","","","","true","1","","","sizeS.png","","",""
"image-slider-2AFC","394","23744331","0.0-46.8-1.8","2428","","","","-13","","","","","","","","heartS.png","2052","-13",""
"html-keyboard-response","395","23745085","0.0-46.8-2.8","null","","","","","","","null","","","","","","","",""
"image-selector-fb","396","23746486","0.0-46.9-0.9","894","pics2/VE3.jpg,pics2/SW1.jpg","","","","","","","true","1","","","sizeS.png","","",""
"image-slider-2AFC","397","23749202","0.0-46.9-1.9","2712","","","","26","","","","","","","","heartS.png","1466","26",""
"html-keyboard-response","398","23750054","0.0-46.9-2.9","null","","","","","","","null","","","","","","","",""
"image-selector-fb","399","23751507","0.0-46.10-0.10","949","pics2/SA2.jpg,pics2/SA4.jpg","","","","","","","false","0","","","sizeS.png","","",""
"image-slider-2AFC","400","23753480","0.0-46.10-1.10","1971","","","","-56","","","","","","","","sizeS.png","1473","-56",""
"html-keyboard-response","401","23754285","0.0-46.10-2.10","null","","","","","","","null","","","","","","","",""
"image-selector-fb","402","23757292","0.0-46.11-0.11","null","pics2/SW6.jpg,pics2/VE3.jpg","","","","","","","false","null","","","noS.png","","",""
"image-slider-2AFC","403","23759744","0.0-46.11-1.11","2448","","","","-18","","","","","","","","heartS.png","1567","-18",""
"html-keyboard-response","404","23760596","0.0-46.11-2.11","null","","","","","","","null","","","","","","","",""
"image-selector-fb","405","23763600","0.0-46.12-0.12","null","pics2/FR5.jpg,pics2/FR1.jpg","","","","","","","false","null","","","noS.png","","",""
"image-slider-2AFC","406","23765518","0.0-46.12-1.12","1916","","","","-16","","","","","","","","heartS.png","1524","-16",""
"html-keyboard-response","407","23766273","0.0-46.12-2.12","null","","","","","","","null","","","","","","","",""
"image-selector-fb","408","23768441","0.0-46.13-0.13","1660","pics2/VE6.jpg,pics2/SA2.jpg","","","","","","","true","1","","","heartS.png","","",""
"image-slider-2AFC","409","23769988","0.0-46.13-1.13","1545","","","","5","","","","","","","","heartS.png","1136","5",""
"html-keyboard-response","410","23770793","0.0-46.13-2.13","null","","","","","","","null","","","","","","","",""
"image-selector-fb","411","23772900","0.0-46.14-0.14","1605","pics2/SW6.jpg,pics2/SA4.jpg","","","","","","","false","0","","","heartS.png","","",""
"image-slider-2AFC","412","23776391","0.0-46.14-1.14","3487","","","","59","","","","","","","","sizeS.png","2814","59",""
"html-keyboard-response","413","23777093","0.0-46.14-2.14","null","","","","","","","null","","","","","","","",""
"image-selector-fb","414","23779887","0.0-46.15-0.15","2290","pics2/FR1.jpg,pics2/FR5.jpg","","","","","","","true","1","","","heartS.png","","",""
"image-slider-2AFC","415","23781196","0.0-46.15-1.15","1307","","","","3","","","","","","","","heartS.png","914","3",""
"html-keyboard-response","416","23781898","0.0-46.15-2.15","null","","","","","","","null","","","","","","","",""
"image-selector-fb","417","23784904","0.0-46.16-0.16","null","pics2/SA2.jpg,pics2/SW1.jpg","","","","","","","false","null","","","noS.png","","",""
"image-slider-2AFC","418","23786753","0.0-46.16-1.16","1846","","","","-56","","","","","","","","heartS.png","1151","-56",""
"html-keyboard-response","419","23787557","0.0-46.16-2.16","null","","","","","","","null","","","","","","","",""
"image-selector-fb","420","23789292","0.0-46.17-0.17","1231","pics2/SA4.jpg,pics2/FR1.jpg","","","","","","","false","0","","","sizeS.png","","",""
"image-slider-2AFC","421","23791265","0.0-46.17-1.17","1971","","","","13","","","","","","","","heartS.png","1577","13",""
"html-keyboard-response","422","23792067","0.0-46.17-2.17","null","","","","","","","null","","","","","","","",""
"image-selector-fb","423","23795071","0.0-46.18-0.18","null","pics2/FR5.jpg,pics2/VE3.jpg","","","","","","","false","null","","","noS.png","","",""
"image-slider-2AFC","424","23798762","0.0-46.18-1.18","3689","","","","15","","","","","","","","heartS.png","2496,3313","-11,15",""
"html-keyboard-response","425","23799616","0.0-46.18-2.18","null","","","","","","","null","","","","","","","",""
"image-selector-fb","426","23802622","0.0-46.19-0.19","null","pics2/FR3.jpg,pics2/FR5.jpg","","","","","","","false","null","","","noS.png","","",""
"image-slider-2AFC","427","23805315","0.0-46.19-1.19","2691","","","","-63","","","","","","","","heartS.png","2074","-63",""
"html-keyboard-response","428","23806067","0.0-46.19-2.19","null","","","","","","","null","","","","","","","",""
"image-selector-fb","429","23807700","0.0-46.20-0.20","1128","pics2/SA2.jpg,pics2/SA6.jpg","","","","","","","false","0","","","sizeS.png","","",""
"image-slider-2AFC","430","23809681","0.0-46.20-1.20","1978","","","","-55","","","","","","","","heartS.png","1433","-55",""
"html-keyboard-response","431","23810535","0.0-46.20-2.20","null","","","","","","","null","","","","","","","",""
"image-selector-fb","432","23812081","0.0-46.21-0.21","1038","pics2/FR2.jpg,pics2/VE3.jpg","","","","","","","false","0","","","heartS.png","","",""
"image-slider-2AFC","433","23813373","0.0-46.21-1.21","1290","","","","-32","","","","","","","","heartS.png","849","-32",""
"html-keyboard-response","434","23814226","0.0-46.21-2.21","null","","","","","","","null","","","","","","","",""
"image-selector-fb","435","23815661","0.0-46.22-0.22","931","pics2/FR3.jpg,pics2/FR2.jpg","","","","","","","true","1","","","sizeS.png","","",""
"image-slider-2AFC","436","23817443","0.0-46.22-1.22","1780","","","","67","","","","","","","","sizeS.png","1146","67",""
"html-keyboard-response","437","23818195","0.0-46.22-2.22","null","","","","","","","null","","","","","","","",""
"image-selector-fb","438","23819540","0.0-46.23-0.23","839","pics2/VE3.jpg,pics2/SA2.jpg","","","","","","","true","1","","","sizeS.png","","",""
"image-slider-2AFC","439","23821713","0.0-46.23-1.23","2170","","","","9","","","","","","","","heartS.png","1754","9",""
"html-keyboard-response","440","23822467","0.0-46.23-2.23","null","","","","","","","null","","","","","","","",""
"image-selector-fb","441","23823929","0.0-46.24-0.24","958","pics2/FR6.jpg,pics2/VE6.jpg","","","","","","","true","1","","","sizeS.png","","",""
"image-slider-2AFC","442","23825734","0.0-46.24-1.24","1803","","","","45","","","","","","","","sizeS.png","1299","45",""
"html-keyboard-response","443","23826537","0.0-46.24-2.24","null","","","","","","","null","","","","","","","",""
"image-selector-fb","444","23827864","0.0-46.25-0.25","820","pics2/FR3.jpg,pics2/FR1.jpg","","","","","","","true","1","","","sizeS.png","","",""
"image-slider-2AFC","445","23829387","0.0-46.25-1.25","1520","","","","63","","","","","","","","sizeS.png","854","63",""
"html-keyboard-response","446","23830140","0.0-46.25-2.25","null","","","","","","","null","","","","","","","",""
"image-selector-fb","447","23833145","0.0-46.26-0.26","null","pics2/FR5.jpg,pics2/FR6.jpg","","","","","","","false","null","","","noS.png","","",""
"image-slider-2AFC","448","23836218","0.0-46.26-1.26","3072","","","","-33","","","","","","","","sizeS.png","2423","-33",""
"html-keyboard-response","449","23836921","0.0-46.26-2.26","null","","","","","","","null","","","","","","","",""
"image-selector-fb","450","23839926","0.0-46.27-0.27","null","pics2/SW1.jpg,pics2/VE3.jpg","","","","","","","false","null","","","noS.png","","",""
"image-slider-2AFC","451","23841842","0.0-46.27-1.27","1914","","","","-84","","","","","","","","sizeS.png","1394","-84",""
"html-keyboard-response","452","23842695","0.0-46.27-2.27","null","","","","","","","null","","","","","","","",""
"image-selector-fb","453","23844333","0.0-46.28-0.28","1132","pics2/SW6.jpg,pics2/VE3.jpg","","","","","","","false","0","","","heartS.png","","",""
"image-slider-2AFC","454","23845717","0.0-46.28-1.28","1381","","","","-3","","","","","","","","heartS.png","1064","-3",""
"html-keyboard-response","455","23846471","0.0-46.28-2.28","null","","","","","","","null","","","","","","","",""
"image-selector-fb","456","23847832","0.0-46.29-0.29","856","pics2/SW6.jpg,pics2/FR2.jpg","","","","","","","true","1","","","sizeS.png","","",""
"image-slider-2AFC","457","23849924","0.0-46.29-1.29","2089","","","","-14","","","","","","","","heartS.png","1723","-14",""
"html-keyboard-response","458","23850726","0.0-46.29-2.29","null","","","","","","","null","","","","","","","",""
"image-selector-fb","459","23853732","0.0-46.30-0.30","null","pics2/FR1.jpg,pics2/VE3.jpg","","","","","","","false","null","","","noS.png","","",""
"image-slider-2AFC","460","23858097","0.0-46.30-1.30","4362","","","","-38","","","","","","","","sizeS.png","2359,3866","-51,-38",""
"html-keyboard-response","461","23858952","0.0-46.30-2.30","null","","","","","","","null","","","","","","","",""
"image-selector-fb","462","23860417","0.0-46.31-0.31","961","pics2/SW6.jpg,pics2/FR6.jpg","","","","","","","false","0","","","heartS.png","","",""
"image-slider-2AFC","463","23862599","0.0-46.31-1.31","2180","","","","-52","","","","","","","","sizeS.png","1500","-52",""
"html-keyboard-response","464","23863352","0.0-46.31-2.31","null","","","","","","","null","","","","","","","",""
"image-selector-fb","465","23865697","0.0-46.32-0.32","1839","pics2/SA6.jpg,pics2/SA4.jpg","","","","","","","true","1","","","sizeS.png","","",""
"image-slider-2AFC","466","23867445","0.0-46.32-1.32","1747","","","","49","","","","","","","","sizeS.png","1178","49",""
"html-keyboard-response","467","23868198","0.0-46.32-2.32","null","","","","","","","null","","","","","","","",""
"image-selector-fb","468","23871177","0.0-46.33-0.33","2473","pics2/SA4.jpg,pics2/VE3.jpg","","","","","","","false","0","","","heartS.png","","",""
"image-slider-2AFC","469","23872307","0.0-46.33-1.33","1129","","","","-12","","","","","","","","heartS.png","638","-12",""
"html-keyboard-response","470","23873161","0.0-46.33-2.33","null","","","","","","","null","","","","","","","",""
"image-selector-fb","471","23876166","0.0-46.34-0.34","null","pics2/FR3.jpg,pics2/SA6.jpg","","","","","","","false","null","","","noS.png","","",""
"image-slider-2AFC","472","23877964","0.0-46.34-1.34","1796","","","","66","","","","","","","","sizeS.png","1297","66",""
"html-keyboard-response","473","23878716","0.0-46.34-2.34","null","","","","","","","null","","","","","","","",""
"image-selector-fb","474","23880206","0.0-46.35-0.35","984","pics2/SA6.jpg,pics2/SW6.jpg","","","","","","","false","0","","","sizeS.png","","",""
"image-slider-2AFC","475","23881897","0.0-46.35-1.35","1689","","","","-61","","","","","","","","sizeS.png","1152","-61",""
"html-keyboard-response","476","23882599","0.0-46.35-2.35","null","","","","","","","null","","","","","","","",""
"image-selector-fb","477","23885604","0.0-46.36-0.36","null","pics2/FR5.jpg,pics2/SA6.jpg","","","","","","","false","null","","","noS.png","","",""
"image-slider-2AFC","478","23887394","0.0-46.36-1.36","1789","","","","61","","","","","","","","sizeS.png","1195","61",""
"html-keyboard-response","479","23888150","0.0-46.36-2.36","null","","","","","","","null","","","","","","","",""
"image-selector-fb","480","23891155","0.0-46.37-0.37","null","pics2/SW1.jpg,pics2/FR2.jpg","","","","","","","false","null","","","noS.png","","",""
"image-slider-2AFC","481","23893736","0.0-46.37-1.37","2580","","","","-9","","","","","","","","heartS.png","2244","-9",""
"html-keyboard-response","482","23894489","0.0-46.37-2.37","null","","","","","","","null","","","","","","","",""
"image-selector-fb","483","23897495","0.0-46.38-0.38","null","pics2/SA4.jpg,pics2/VE6.jpg","","","","","","","false","null","","","noS.png","","",""
"image-slider-2AFC","484","23899049","0.0-46.38-1.38","1553","","","","57","","","","","","","","heartS.png","1096","57",""
"html-keyboard-response","485","23899803","0.0-46.38-2.38","null","","","","","","","null","","","","","","","",""
"image-selector-fb","486","23902141","0.0-46.39-0.39","1833","pics2/SW1.jpg,pics2/SW6.jpg","","","","","","","false","0","","","sizeS.png","","",""
"image-slider-2AFC","487","23904096","0.0-46.39-1.39","1953","","","","27","","","","","","","","heartS.png","1513","27",""
"html-keyboard-response","488","23904950","0.0-46.39-2.39","null","","","","","","","null","","","","","","","",""
"image-selector-fb","489","23906730","0.0-46.40-0.40","1275","pics2/SA4.jpg,pics2/FR5.jpg","","","","","","","false","0","","","heartS.png","","",""
"image-slider-2AFC","490","23908670","0.0-46.40-1.40","1938","","","","-66","","","","","","","","heartS.png","1465","-66",""
"html-keyboard-response","491","23909474","0.0-46.40-2.40","null","","","","","","","null","","","","","","","",""
"image-selector-fb","492","23910975","0.0-46.41-0.41","998","pics2/FR2.jpg,pics2/FR1.jpg","","","","","","","false","0","","","heartS.png","","",""
"image-slider-2AFC","493","23912379","0.0-46.41-1.41","1402","","","","-14","","","","","","","","heartS.png","937","-14",""
"html-keyboard-response","494","23913081","0.0-46.41-2.41","null","","","","","","","null","","","","","","","",""
"image-selector-fb","495","23916088","0.0-46.42-0.42","null","pics2/FR1.jpg,pics2/SA4.jpg","","","","","","","false","null","","","noS.png","","",""
"image-slider-2AFC","496","23917844","0.0-46.42-1.42","1754","","","","-57","","","","","","","","heartS.png","1058","-57",""
"html-keyboard-response","497","23918596","0.0-46.42-2.42","null","","","","","","","null","","","","","","","",""
"image-selector-fb","498","23920477","0.0-46.43-0.43","1376","pics2/FR5.jpg,pics2/VE3.jpg","","","","","","","false","0","","","heartS.png","","",""
"image-slider-2AFC","499","23923530","0.0-46.43-1.43","3051","","","","-45","","","","","","","","sizeS.png","2450","-45",""
"html-keyboard-response","500","23924283","0.0-46.43-2.43","null","","","","","","","null","","","","","","","",""
"image-selector-fb","501","23927289","0.0-46.44-0.44","null","pics2/SA2.jpg,pics2/VE3.jpg","","","","","","","false","null","","","noS.png","","",""
"image-slider-2AFC","502","23930123","0.0-46.44-1.44","2832","","","","-88","","","","","","","","sizeS.png","2176","-88",""
"html-keyboard-response","503","23930877","0.0-46.44-2.44","null","","","","","","","null","","","","","","","",""
"image-selector-fb","504","23933881","0.0-46.45-0.45","null","pics2/FR3.jpg,pics2/VE6.jpg","","","","","","","false","null","","","noS.png","","",""
"image-slider-2AFC","505","23936348","0.0-46.45-1.45","2465","","","","16","","","","","","","","heartS.png","2040","16",""
"html-keyboard-response","506","23937202","0.0-46.45-2.45","null","","","","","","","null","","","","","","","",""
"image-selector-fb","507","23940210","0.0-46.46-0.46","null","pics2/VE3.jpg,pics2/VE6.jpg","","","","","","","false","null","","","noS.png","","",""
"image-slider-2AFC","508","23942314","0.0-46.46-1.46","2102","","","","48","","","","","","","","heartS.png","1599","48",""
"html-keyboard-response","509","23943165","0.0-46.46-2.46","null","","","","","","","null","","","","","","","",""
"image-selector-fb","510","23946172","0.0-46.47-0.47","null","pics2/SW1.jpg,pics2/SA4.jpg","","","","","","","false","null","","","noS.png","","",""
"image-slider-2AFC","511","23948107","0.0-46.47-1.47","1934","","","","-27","","","","","","","","heartS.png","1358","-27",""
"html-keyboard-response","512","23948863","0.0-46.47-2.47","null","","","","","","","null","","","","","","","",""
"image-selector-fb","513","23951398","0.0-46.48-0.48","2030","pics2/FR6.jpg,pics2/VE3.jpg","","","","","","","true","1","","","heartS.png","","",""
"image-slider-2AFC","514","23953378","0.0-46.48-1.48","1978","","","","21","","","","","","","","sizeS.png","1586","21",""
"html-keyboard-response","515","23954132","0.0-46.48-2.48","null","","","","","","","null","","","","","","","",""
"image-selector-fb","516","23955917","0.0-46.49-0.49","1278","pics2/SA6.jpg,pics2/FR2.jpg","","","","","","","false","0","","","sizeS.png","","",""
"image-slider-2AFC","517","23957383","0.0-46.49-1.49","1464","","","","33","","","","","","","","heartS.png","1047","33",""
"html-keyboard-response","518","23958136","0.0-46.49-2.49","null","","","","","","","null","","","","","","","",""
"image-selector-fb","519","23960104","0.0-46.50-0.50","1464","pics2/SW1.jpg,pics2/FR3.jpg","","","","","","","true","1","","","heartS.png","","",""
"image-slider-2AFC","520","23961797","0.0-46.50-1.50","1691","","","","62","","","","","","","","heartS.png","1193","62",""
"html-keyboard-response","521","23962550","0.0-46.50-2.50","null","","","","","","","null","","","","","","","",""
"image-selector-fb","522","23963989","0.0-46.51-0.51","936","pics2/VE6.jpg,pics2/FR6.jpg","","","","","","","false","0","","","heartS.png","","",""
"image-slider-2AFC","523","23965312","0.0-46.51-1.51","1321","","","","-42","","","","","","","","heartS.png","674","-42",""
"html-keyboard-response","524","23966065","0.0-46.51-2.51","null","","","","","","","null","","","","","","","",""
"image-selector-fb","525","23967730","0.0-46.52-0.52","1162","pics2/FR6.jpg,pics2/FR1.jpg","","","","","","","true","1","","","sizeS.png","","",""
"image-slider-2AFC","526","23969198","0.0-46.52-1.52","1465","","","","64","","","","","","","","sizeS.png","912","64",""
"html-keyboard-response","527","23969950","0.0-46.52-2.52","null","","","","","","","null","","","","","","","",""
"image-selector-fb","528","23971336","0.0-46.53-0.53","881","pics2/SW1.jpg,pics2/FR2.jpg","","","","","","","false","0","","","sizeS.png","","",""
"image-slider-2AFC","529","23972811","0.0-46.53-1.53","1473","","","","-84","","","","","","","","sizeS.png","920","-84",""
"html-keyboard-response","530","23973565","0.0-46.53-2.53","null","","","","","","","null","","","","","","","",""
"image-selector-fb","531","23976570","0.0-46.54-0.54","null","pics2/FR3.jpg,pics2/FR2.jpg","","","","","","","false","null","","","noS.png","","",""
"image-slider-2AFC","532","23978426","0.0-46.54-1.54","1853","","","","66","","","","","","","","sizeS.png","1252","66",""
"html-keyboard-response","533","23979230","0.0-46.54-2.54","null","","","","","","","null","","","","","","","",""
"image-selector-fb","534","23980876","0.0-46.55-0.55","1141","pics2/FR3.jpg,pics2/VE6.jpg","","","","","","","true","1","","","sizeS.png","","",""
"image-slider-2AFC","535","23982037","0.0-46.55-1.55","1158","","","","4","","","","","","","","sizeS.png","816","4",""
"html-keyboard-response","536","23982739","0.0-46.55-2.55","null","","","","","","","null","","","","","","","",""
"image-selector-fb","537","23984151","0.0-46.56-0.56","908","pics2/FR1.jpg,pics2/SW6.jpg","","","","","","","false","0","","","sizeS.png","","",""
"image-slider-2AFC","538","23986020","0.0-46.56-1.56","1867","","","","-39","","","","","","","","sizeS.png","1265","-39",""
"html-keyboard-response","539","23986776","0.0-46.56-2.56","null","","","","","","","null","","","","","","","",""
"image-selector-fb","540","23988148","0.0-46.57-0.57","868","pics2/FR1.jpg,pics2/VE3.jpg","","","","","","","false","0","","","heartS.png","","",""
"image-slider-2AFC","541","23989569","0.0-46.57-1.57","1418","","","","-12","","","","","","","","heartS.png","1082","-12",""
"html-keyboard-response","542","23990272","0.0-46.57-2.57","null","","","","","","","null","","","","","","","",""
"image-selector-fb","543","23991544","0.0-46.58-0.58","767","pics2/FR3.jpg,pics2/SA2.jpg","","","","","","","true","1","","","sizeS.png","","",""
"image-slider-2AFC","544","23994823","0.0-46.58-1.58","3276","","","","26","","","","","","","","heartS.png","1698,2852","6,26",""
"html-keyboard-response","545","23995530","0.0-46.58-2.58","null","","","","","","","null","","","","","","","",""
"image-selector-fb","546","23998535","0.0-46.59-0.59","null","pics2/FR6.jpg,pics2/VE3.jpg","","","","","","","false","null","","","noS.png","","",""
"image-slider-2AFC","547","24000429","0.0-46.59-1.59","1892","","","","17","","","","","","","","sizeS.png","1492","17",""
"html-keyboard-response","548","24001131","0.0-46.59-2.59","null","","","","","","","null","","","","","","","",""
"image-selector-fb","549","24002622","0.0-46.60-0.60","986","pics2/FR5.jpg,pics2/FR1.jpg","","","","","","","true","1","","","sizeS.png","","",""
"image-slider-2AFC","550","24004443","0.0-46.60-1.60","1818","","","","51","","","","","","","","sizeS.png","1265","51",""
"html-keyboard-response","551","24005195","0.0-46.60-2.60","null","","","","","","","null","","","","","","","",""
"image-selector-fb","552","24006579","0.0-46.61-0.61","880","pics2/VE3.jpg,pics2/FR5.jpg","","","","","","","false","0","","","sizeS.png","","",""
"image-slider-2AFC","553","24008247","0.0-46.61-1.61","1666","","","","-41","","","","","","","","sizeS.png","1097","-41",""
"html-keyboard-response","554","24009051","0.0-46.61-2.61","null","","","","","","","null","","","","","","","",""
"image-selector-fb","555","24012643","0.0-46.62-0.62","3088","pics2/FR1.jpg,pics2/FR3.jpg","","","","","","","false","0","","","heartS.png","","",""
"image-slider-2AFC","556","24014447","0.0-46.62-1.62","1801","","","","-88","","","","","","","","sizeS.png","1322","-88",""
"html-keyboard-response","557","24015149","0.0-46.62-2.62","null","","","","","","","null","","","","","","","",""
"image-selector-fb","558","24018155","0.0-46.63-0.63","null","pics2/FR3.jpg,pics2/FR6.jpg","","","","","","","false","null","","","noS.png","","",""
"image-slider-2AFC","559","24020075","0.0-46.63-1.63","1918","","","","-10","","","","","","","","sizeS.png","1470","-10",""
"html-keyboard-response","560","24020877","0.0-46.63-2.63","null","","","","","","","null","","","","","","","",""
"image-selector-fb","561","24022309","0.0-46.64-0.64","929","pics2/SA6.jpg,pics2/SW1.jpg","","","","","","","true","1","","","sizeS.png","","",""
"image-slider-2AFC","562","24024644","0.0-46.64-1.64","2333","","","","41","","","","","","","","sizeS.png","1380,1852","49,41",""
"html-keyboard-response","563","24025448","0.0-46.64-2.64","null","","","","","","","null","","","","","","","",""
"image-selector-fb","564","24027117","0.0-46.65-0.65","1165","pics2/VE3.jpg,pics2/FR3.jpg","","","","","","","true","1","","","heartS.png","","",""
"image-slider-2AFC","565","24028336","0.0-46.65-1.65","1217","","","","54","","","","","","","","heartS.png","680","54",""
"html-keyboard-response","566","24029139","0.0-46.65-2.65","null","","","","","","","null","","","","","","","",""
"pavlovia","567","24029159","0.0-47.0","","","","","","","","","","","","","","","",""
"html-keyboard-response","568","24034162","0.0-48.0","null","<div style='width: 700px;'> <font size=6><b>SHORT BREAK</font></b><br><br><i> Please wait 5 seconds to continue</i></div> ","","","","","","null","","","","","","","",""
"pavlovia","569","24034164","0.0-49.0","","","","","","","","","","","","","","","",""
"html-button-response","570","26975939","0.0-50.0","2941771","<div style='width: 700px;'> <font size=6><b>BLOCK 3</font></b><br><br>Press the button whenever you feel ready to start the third and final block</div>","0","","","","","","","","","","","","",""
"image-selector-fb","571","26978057","0.0-51.0-0.0","1605","pics2/FR3.jpg,pics2/FR5.jpg","","","","","","","true","1","","","sizeS.png","","",""
"image-slider-2AFC","572","26978994","0.0-51.0-1.0","933","","","","10","","","","","","","","sizeS.png","544","10",""
"html-keyboard-response","573","26979798","0.0-51.0-2.0","null","","","","","","","null","","","","","","","",""
"image-selector-fb","574","26982804","0.0-51.1-0.1","null","pics2/SA6.jpg,pics2/FR6.jpg","","","","","","","false","null","","","noS.png","","",""
"image-slider-2AFC","575","26985443","0.0-51.1-1.1","2637","","","","-65","","","","","","","","sizeS.png","2070","-65",""
"html-keyboard-response","576","26986297","0.0-51.1-2.1","null","","","","","","","null","","","","","","","",""
"image-selector-fb","577","26988178","0.0-51.2-0.2","1378","pics2/FR1.jpg,pics2/SA4.jpg","","","","","","","false","0","","","heartS.png","","",""
"image-slider-2AFC","578","26991322","0.0-51.2-1.2","3140","","","","36","","","","","","","","sizeS.png","593,2138","-54,36",""
"html-keyboard-response","579","26992076","0.0-51.2-2.2","null","","","","","","","null","","","","","","","",""
"image-selector-fb","580","26993962","0.0-51.3-0.3","1380","pics2/SA2.jpg,pics2/VE3.jpg","","","","","","","false","0","","","heartS.png","","",""
"image-slider-2AFC","581","26995735","0.0-51.3-1.3","1770","","","","-19","","","","","","","","heartS.png","1224","-19",""
"html-keyboard-response","582","26996489","0.0-51.3-2.3","null","","","","","","","null","","","","","","","",""
"image-selector-fb","583","26998383","0.0-51.4-0.4","1391","pics2/SW1.jpg,pics2/VE3.jpg","","","","","","","true","1","","","heartS.png","","",""
"image-slider-2AFC","584","27000307","0.0-51.4-1.4","1923","","","","-61","","","","","","","","sizeS.png","1340","-61",""
"html-keyboard-response","585","27001010","0.0-51.4-2.4","null","","","","","","","null","","","","","","","",""
"image-selector-fb","586","27002741","0.0-51.5-0.5","1226","pics2/FR2.jpg,pics2/SA4.jpg","","","","","","","false","0","","","heartS.png","","",""
"image-slider-2AFC","587","27005138","0.0-51.5-1.5","2395","","","","67","","","","","","","","sizeS.png","1617","67",""
"html-keyboard-response","588","27005993","0.0-51.5-2.5","null","","","","","","","null","","","","","","","",""
"image-selector-fb","589","27007460","0.0-51.6-0.6","961","pics2/SW1.jpg,pics2/SA2.jpg","","","","","","","true","1","","","heartS.png","","",""
"image-slider-2AFC","590","27009072","0.0-51.6-1.6","1609","","","","69","","","","","","","","heartS.png","1024","69",""
"html-keyboard-response","591","27009775","0.0-51.6-2.6","null","","","","","","","null","","","","","","","",""
"image-selector-fb","592","27011965","0.0-51.7-0.7","1688","pics2/VE3.jpg,pics2/SW6.jpg","","","","","","","false","0","","","sizeS.png","","",""
"image-slider-2AFC","593","27016487","0.0-51.7-1.7","4520","","","","-37","","","","","","","","heartS.png","3767","-37",""
"html-keyboard-response","594","27017291","0.0-51.7-2.7","null","","","","","","","null","","","","","","","",""
"image-selector-fb","595","27019830","0.0-51.8-0.8","2035","pics2/SA6.jpg,pics2/FR3.jpg","","","","","","","true","1","","","heartS.png","","",""
"image-slider-2AFC","596","27021822","0.0-51.8-1.8","1990","","","","-61","","","","","","","","sizeS.png","1358","-61",""
"html-keyboard-response","597","27022575","0.0-51.8-2.8","null","","","","","","","null","","","","","","","",""
"image-selector-fb","598","27025582","0.0-51.9-0.9","null","pics2/SA6.jpg,pics2/FR2.jpg","","","","","","","false","null","","","noS.png","","",""
"image-slider-2AFC","599","27028485","0.0-51.9-1.9","2901","","","","-59","","","","","","","","sizeS.png","2354","-59",""
"html-keyboard-response","600","27029188","0.0-51.9-2.9","null","","","","","","","null","","","","","","","",""
"image-selector-fb","601","27032198","0.0-51.10-0.10","null","pics2/FR3.jpg,pics2/SW1.jpg","","","","","","","false","null","","","noS.png","","",""
"image-slider-2AFC","602","27034118","0.0-51.10-1.10","1918","","","","91","","","","","","","","sizeS.png","1350","91",""
"html-keyboard-response","603","27034871","0.0-51.10-2.10","null","","","","","","","null","","","","","","","",""
"image-selector-fb","604","27037024","0.0-51.11-0.11","1650","pics2/SW1.jpg,pics2/FR5.jpg","","","","","","","true","1","","","heartS.png","","",""
"image-slider-2AFC","605","27038004","0.0-51.11-1.11","977","","","","4","","","","","","","","sizeS.png","610","4",""
"html-keyboard-response","606","27038806","0.0-51.11-2.11","null","","","","","","","null","","","","","","","",""
"image-selector-fb","607","27041812","0.0-51.12-0.12","null","pics2/FR1.jpg,pics2/FR6.jpg","","","","","","","false","null","","","noS.png","","",""
"image-slider-2AFC","608","27043723","0.0-51.12-1.12","1908","","","","-44","","","","","","","","heartS.png","1124","-44",""
"html-keyboard-response","609","27044477","0.0-51.12-2.12","null","","","","","","","null","","","","","","","",""
"image-selector-fb","610","27047481","0.0-51.13-0.13","null","pics2/FR6.jpg,pics2/SA4.jpg","","","","","","","false","null","","","noS.png","","",""
"image-slider-2AFC","611","27049393","0.0-51.13-1.13","1909","","","","-40","","","","","","","","heartS.png","1254","-40",""
"html-keyboard-response","612","27050145","0.0-51.13-2.13","null","","","","","","","null","","","","","","","",""
"image-selector-fb","613","27051700","0.0-51.14-0.14","1050","pics2/FR2.jpg,pics2/FR3.jpg","","","","","","","false","0","","","heartS.png","","",""
"image-slider-2AFC","614","27054514","0.0-51.14-1.14","2810","","","","-54","","","","","","","","sizeS.png","2122","-54",""
"html-keyboard-response","615","27055218","0.0-51.14-2.14","null","","","","","","","null","","","","","","","",""
"image-selector-fb","616","27058222","0.0-51.15-0.15","null","pics2/FR6.jpg,pics2/FR2.jpg","","","","","","","false","null","","","noS.png","","",""
"image-slider-2AFC","617","27059687","0.0-51.15-1.15","1463","","","","56","","","","","","","","heartS.png","974","56",""
"html-keyboard-response","618","27060441","0.0-51.15-2.15","null","","","","","","","null","","","","","","","",""
"image-selector-fb","619","27062919","0.0-51.16-0.16","1974","pics2/SA2.jpg,pics2/SW1.jpg","","","","","","","false","0","","","sizeS.png","","",""
"image-slider-2AFC","620","27064565","0.0-51.16-1.16","1643","","","","-20","","","","","","","","sizeS.png","1090","-20",""
"html-keyboard-response","621","27065367","0.0-51.16-2.16","null","","","","","","","null","","","","","","","",""
"image-selector-fb","622","27068375","0.0-51.17-0.17","null","pics2/FR3.jpg,pics2/SA2.jpg","","","","","","","false","null","","","noS.png","","",""
"image-slider-2AFC","623","27071346","0.0-51.17-1.17","2969","","","","24","","","","","","","","heartS.png","2144","24",""
"html-keyboard-response","624","27072198","0.0-51.17-2.17","null","","","","","","","null","","","","","","","",""
"image-selector-fb","625","27073899","0.0-51.18-0.18","1196","pics2/VE3.jpg,pics2/FR2.jpg","","","","","","","true","1","","","sizeS.png","","",""
"image-slider-2AFC","626","27075792","0.0-51.18-1.18","1891","","","","28","","","","","","","","sizeS.png","1114","28",""
"html-keyboard-response","627","27076644","0.0-51.18-2.18","null","","","","","","","null","","","","","","","",""
"image-selector-fb","628","27078423","0.0-51.19-0.19","1275","pics2/FR1.jpg,pics2/VE6.jpg","","","","","","","false","0","","","sizeS.png","","",""
"image-slider-2AFC","629","27080750","0.0-51.19-1.19","2326","","","","-9","","","","","","","","heartS.png","1836","-9",""
"html-keyboard-response","630","27081452","0.0-51.19-2.19","null","","","","","","","null","","","","","","","",""
"image-selector-fb","631","27082783","0.0-51.20-0.20","826","pics2/FR5.jpg,pics2/SA2.jpg","","","","","","","true","1","","","heartS.png","","",""
"image-slider-2AFC","632","27084016","0.0-51.20-1.20","1232","","","","54","","","","","","","","heartS.png","721","54",""
"html-keyboard-response","633","27084718","0.0-51.20-2.20","null","","","","","","","null","","","","","","","",""
"image-selector-fb","634","27086770","0.0-51.21-0.21","1548","pics2/FR5.jpg,pics2/SW6.jpg","","","","","","","false","0","","","sizeS.png","","",""
"image-slider-2AFC","635","27088704","0.0-51.21-1.21","1932","","","","27","","","","","","","","heartS.png","1523","27",""
"html-keyboard-response","636","27089558","0.0-51.21-2.21","null","","","","","","","null","","","","","","","",""
"image-selector-fb","637","27092565","0.0-51.22-0.22","null","pics2/SA2.jpg,pics2/FR1.jpg","","","","","","","false","null","","","noS.png","","",""
"image-slider-2AFC","638","27094733","0.0-51.22-1.22","2165","","","","-70","","","","","","","","sizeS.png","1470","-70",""
"html-keyboard-response","639","27095490","0.0-51.22-2.22","null","","","","","","","null","","","","","","","",""
"image-selector-fb","640","27096958","0.0-51.23-0.23","965","pics2/VE6.jpg,pics2/SA6.jpg","","","","","","","false","0","","","heartS.png","","",""
"image-slider-2AFC","641","27099108","0.0-51.23-1.23","2147","","","","76","","","","","","","","sizeS.png","1611","76",""
"html-keyboard-response","642","27099810","0.0-51.23-2.23","null","","","","","","","null","","","","","","","",""
"image-selector-fb","643","27102816","0.0-51.24-0.24","null","pics2/FR3.jpg,pics2/SA4.jpg","","","","","","","false","null","","","noS.png","","",""
"image-slider-2AFC","644","27104802","0.0-51.24-1.24","1984","","","","74","","","","","","","","sizeS.png","1383","74",""
"html-keyboard-response","645","27105655","0.0-51.24-2.24","null","","","","","","","null","","","","","","","",""
"image-selector-fb","646","27107188","0.0-51.25-0.25","1028","pics2/SA2.jpg,pics2/SW6.jpg","","","","","","","false","0","","","sizeS.png","","",""
"image-slider-2AFC","647","27108926","0.0-51.25-1.25","1737","","","","-89","","","","","","","","sizeS.png","1090","-89",""
"html-keyboard-response","648","27109678","0.0-51.25-2.25","null","","","","","","","null","","","","","","","",""
"image-selector-fb","649","27111161","0.0-51.26-0.26","978","pics2/SW1.jpg,pics2/SA6.jpg","","","","","","","false","0","","","heartS.png","","",""
"image-slider-2AFC","650","27113725","0.0-51.26-1.26","2561","","","","-60","","","","","","","","sizeS.png","2067","-60",""
"html-keyboard-response","651","27114527","0.0-51.26-2.26","null","","","","","","","null","","","","","","","",""
"image-selector-fb","652","27116551","0.0-51.27-0.27","1520","pics2/FR2.jpg,pics2/VE6.jpg","","","","","","","false","0","","","heartS.png","","",""
"image-slider-2AFC","653","27117665","0.0-51.27-1.27","1112","","","","-20","","","","","","","","heartS.png","745","-20",""
"html-keyboard-response","654","27118417","0.0-51.27-2.27","null","","","","","","","null","","","","","","","",""
"image-selector-fb","655","27121422","0.0-51.28-0.28","null","pics2/SW6.jpg,pics2/FR1.jpg","","","","","","","false","null","","","noS.png","","",""
"image-slider-2AFC","656","27123945","0.0-51.28-1.28","2522","","","","-25","","","","","","","","heartS.png","2120","-25",""
"html-keyboard-response","657","27124748","0.0-51.28-2.28","null","","","","","","","null","","","","","","","",""
"image-selector-fb","658","27127753","0.0-51.29-0.29","null","pics2/FR5.jpg,pics2/VE6.jpg","","","","","","","false","null","","","noS.png","","",""
"image-slider-2AFC","659","27131081","0.0-51.29-1.29","3326","","","","58","","","","","","","","heartS.png","2686","58",""
"html-keyboard-response","660","27131882","0.0-51.29-2.29","null","","","","","","","null","","","","","","","",""
"image-selector-fb","661","27134260","0.0-51.30-0.30","1873","pics2/FR5.jpg,pics2/VE6.jpg","","","","","","","true","1","","","sizeS.png","","",""
"image-slider-2AFC","662","27135392","0.0-51.30-1.30","1130","","","","19","","","","","","","","sizeS.png","737","19",""
"html-keyboard-response","663","27136145","0.0-51.30-2.30","null","","","","","","","null","","","","","","","",""
"image-selector-fb","664","27137771","0.0-51.31-0.31","1120","pics2/SA6.jpg,pics2/FR1.jpg","","","","","","","false","0","","","sizeS.png","","",""
"image-slider-2AFC","665","27139509","0.0-51.31-1.31","1737","","","","23","","","","","","","","heartS.png","1367","23",""
"html-keyboard-response","666","27140361","0.0-51.31-2.31","null","","","","","","","null","","","","","","","",""
"image-selector-fb","667","27143365","0.0-51.32-0.32","null","pics2/FR3.jpg,pics2/VE3.jpg","","","","","","","false","null","","","noS.png","","",""
"image-slider-2AFC","668","27145353","0.0-51.32-1.32","1986","","","","-26","","","","","","","","heartS.png","1617","-26",""
"html-keyboard-response","669","27146109","0.0-51.32-2.32","null","","","","","","","null","","","","","","","",""
"image-selector-fb","670","27147593","0.0-51.33-0.33","980","pics2/FR3.jpg,pics2/SA6.jpg","","","","","","","true","1","","","sizeS.png","","",""
"image-slider-2AFC","671","27150648","0.0-51.33-1.33","3052","","","","76","","","","","","","","sizeS.png","986,2074,2356","60,84,76",""
"html-keyboard-response","672","27151499","0.0-51.33-2.33","null","","","","","","","null","","","","","","","",""
"image-selector-fb","673","27152776","0.0-51.34-0.34","773","pics2/FR5.jpg,pics2/SW1.jpg","","","","","","","true","1","","","sizeS.png","","",""
"image-slider-2AFC","674","27154660","0.0-51.34-1.34","1881","","","","13","","","","","","","","heartS.png","1539","13",""
"html-keyboard-response","675","27155462","0.0-51.34-2.34","null","","","","","","","null","","","","","","","",""
"image-selector-fb","676","27158467","0.0-51.35-0.35","null","pics2/SW6.jpg,pics2/FR6.jpg","","","","","","","false","null","","","noS.png","","",""
"image-slider-2AFC","677","27160845","0.0-51.35-1.35","2374","","","","-48","","","","","","","","sizeS.png","1950","-48",""
"html-keyboard-response","678","27161597","0.0-51.35-2.35","null","","","","","","","null","","","","","","","",""
"image-selector-fb","679","27163054","0.0-51.36-0.36","954","pics2/SA4.jpg,pics2/SA2.jpg","","","","","","","true","1","","","heartS.png","","",""
"image-slider-2AFC","680","27165436","0.0-51.36-1.36","2379","","","","19","","","","","","","","sizeS.png","2002","19",""
"html-keyboard-response","681","27166241","0.0-51.36-2.36","null","","","","","","","null","","","","","","","",""
"image-selector-fb","682","27167507","0.0-51.37-0.37","761","pics2/FR6.jpg,pics2/FR2.jpg","","","","","","","true","1","","","sizeS.png","","",""
"image-slider-2AFC","683","27169650","0.0-51.37-1.37","2140","","","","32","","","","","","","","sizeS.png","1650","32",""
"html-keyboard-response","684","27170352","0.0-51.37-2.37","null","","","","","","","null","","","","","","","",""
"image-selector-fb","685","27171714","0.0-51.38-0.38","858","pics2/SA6.jpg,pics2/VE6.jpg","","","","","","","false","0","","","sizeS.png","","",""
"image-slider-2AFC","686","27174448","0.0-51.38-1.38","2731","","","","47","","","","","","","","heartS.png","2210","47",""
"html-keyboard-response","687","27175251","0.0-51.38-2.38","null","","","","","","","null","","","","","","","",""
"image-selector-fb","688","27176872","0.0-51.39-0.39","1116","pics2/SW1.jpg,pics2/SA4.jpg","","","","","","","false","0","","","heartS.png","","",""
"image-slider-2AFC","689","27178387","0.0-51.39-1.39","1513","","","","-9","","","","","","","","heartS.png","775,1201","-3,-9",""
"html-keyboard-response","690","27179244","0.0-51.39-2.39","null","","","","","","","null","","","","","","","",""
"image-selector-fb","691","27182248","0.0-51.40-0.40","null","pics2/VE3.jpg,pics2/FR2.jpg","","","","","","","false","null","","","noS.png","","",""
"image-slider-2AFC","692","27183627","0.0-51.40-1.40","1376","","","","26","","","","","","","","sizeS.png","1006","26",""
"html-keyboard-response","693","27184479","0.0-51.40-2.40","null","","","","","","","null","","","","","","","",""
"image-selector-fb","694","27187484","0.0-51.41-0.41","null","pics2/VE6.jpg,pics2/FR2.jpg","","","","","","","false","null","","","noS.png","","",""
"image-slider-2AFC","695","27190093","0.0-51.41-1.41","2608","","","","26","","","","","","","","heartS.png","1759","26",""
"html-keyboard-response","696","27190896","0.0-51.41-2.41","null","","","","","","","null","","","","","","","",""
"image-selector-fb","697","27193903","0.0-51.42-0.42","null","pics2/SW1.jpg,pics2/FR1.jpg","","","","","","","false","null","","","noS.png","","",""
"image-slider-2AFC","698","27196389","0.0-51.42-1.42","2484","","","","-79","","","","","","","","sizeS.png","1725","-79",""
"html-keyboard-response","699","27197141","0.0-51.42-2.42","null","","","","","","","null","","","","","","","",""
"image-selector-fb","700","27200148","0.0-51.43-0.43","null","pics2/SW1.jpg,pics2/VE6.jpg","","","","","","","false","null","","","noS.png","","",""
"image-slider-2AFC","701","27202976","0.0-51.43-1.43","2825","","","","-95","","","","","","","","sizeS.png","2111","-95",""
"html-keyboard-response","702","27203828","0.0-51.43-2.43","null","","","","","","","null","","","","","","","",""
"image-selector-fb","703","27205358","0.0-51.44-0.44","1026","pics2/VE3.jpg,pics2/SA6.jpg","","","","","","","true","1","","","sizeS.png","","",""
"image-slider-2AFC","704","27207188","0.0-51.44-1.44","1827","","","","73","","","","","","","","sizeS.png","1164","73",""
"html-keyboard-response","705","27207989","0.0-51.44-2.44","null","","","","","","","null","","","","","","","",""
"image-selector-fb","706","27209781","0.0-51.45-0.45","1288","pics2/VE3.jpg,pics2/VE6.jpg","","","","","","","false","0","","","sizeS.png","","",""
"image-slider-2AFC","707","27211368","0.0-51.45-1.45","1585","","","","-37","","","","","","","","sizeS.png","1096","-37",""
