"trial_type","trial_index","time_elapsed","internal_node_id","rt","stimulus","button_pressed","success","response","cat","value","key_press","correct","image_click","first_click_rt","first_click_val","symbol","all_click_rt","all_click_val","view_history"
"pavlovia","0","14","0.0-0.0","","","","","","","","","","","","","","","",""
"html-button-response","1","3913","0.0-1.0","3894","<div style='width: 700px; font-size: 150%'><font size='40'>  Welcome to our study!</font><br><br><br> <small> Our experiment is about <i>decision making</i>. You will choose and rate different food items, such as these: <br><br> <div><img src='food_combo2.png', height = '400px'></img></div>","0","","","","","","","","","","","","",""
"html-button-response","2","13567","0.0-2.0","9652","<div style='width: 700px; font-size: 150%'><br><br><br><small> <u><i>This is a multi-part study.</i></u><br><br> In the first part you will rate 24 food items twice.<br><br><div><img src=""rat1.png"" style=""width: 25%""></img></div><br>In the second part (longest) you will make repeated choices and judgements concerning the food items.<br><br><div><img src=""mainx.png"" style=""width: 50%""></img></div><br>In the third and final part, you will rate the items again and answer few short questionnaires.<br><br><div><img src=""rat2.png"" style=""width: 50%""></img></div><br><br>","0","","","","","","","","","","","","",""
"fullscreen","3","17137","0.0-3.0","","","","true","","","","","","","","","","","",""
"html-button-response","4","31601","0.0-4.0","14461","<div style='width: 900px; font-size: 150%;' <font size='20%'> In the first part of the task you will use the mouse to rate food items on <i>2 scales</i> </font></div><br><br><div style='width: 900px'><div style='float: left; width: 50%; margin-right:2.5em'><img src='heartS.png'></img><p class='small' style='text-align: justify'>When you see the heart cue you will rate food items in terms of how much like them/would like to eat them <i>right now</i>. You will rate them on a continuous scale from left (strong dislike) to right (strong liking). Before submitting your rating, try imagining how the item tastes and how much you desire it.<br><br></p></div><div ><img src='sizeS.png'></img><p class='small' style='text-align: justify'>When you see the size cue, you will rate the same food items in terms of their size. The scale goes from left (tiny) to right (very large). You should assess picture size <i><u>relative</i></u> to the white background. <b>Remember:</b> rate the size of the picture, <u>not</u> the size of the item in real life. </p></div><div style='width: 900px'><br><br><b><i>Notice:</b> by starting the rating you agree that your sumbission might be rejected at an early stage and the experiment might end, if your size ratings are not at least modestly related to objective sizes, or if you repeat the same value ratings too many times. If you don't agree, please exit by closing the browser window. </i><br><br><br>","0","","","","","","","","","","","","",""
"html-button-response","5","33070","0.0-5.0","1467","<div><img src='heartS.png'></img></div><br><div style='text-align: justify; width: 700px'>Using the mouse, rate the <b><i>likeness</b></i> of the food items (how much you like them/would like to eat them <i>right now</i>). Far right-end of the scale indicates an item you <i>like a lot</i>. Far left-end indicates an item you <i>dislike a lot</i>. Think about each answer.   <ul><li>Try <b><i>not</b></i> to give identical rating to different items.</li><li>Use the whole scale, and <b><i>not</b></i> just the extremes</ul></div><br>","0","","","","","","","","","","","","",""
"image-slider-response","6","36133","0.0-6.0-0.0-0.0","3053","pics2/VE3.jpg","","","70","VE","","","","","","","","","",""
"image-slider-response","7","38101","0.0-6.0-0.0-0.1","1762","pics2/VE1.jpg","","","71","VE","","","","","","","","","",""
"image-slider-response","8","40748","0.0-6.0-0.0-0.2","2424","pics2/SW2.jpg","","","29","SW","","","","","","","","","",""
"image-slider-response","9","42964","0.0-6.0-0.0-0.3","2001","pics2/SA5.jpg","","","59","SA","","","","","","","","","",""
"image-slider-response","10","45868","0.0-6.0-0.0-0.4","2692","pics2/SA6.jpg","","","59","SA","","","","","","","","","",""
"image-slider-response","11","49323","0.0-6.0-0.0-0.5","3240","pics2/FR1.jpg","","","85","FR","","","","","","","","","",""
"image-slider-response","12","52326","0.0-6.0-0.0-0.6","2793","pics2/FR4.jpg","","","100","FR","","","","","","","","","",""
"image-slider-response","13","54936","0.0-6.0-0.0-0.7","2403","pics2/VE4.jpg","","","23","VE","","","","","","","","","",""
"image-slider-response","14","57248","0.0-6.0-0.0-0.8","2105","pics2/SW4.jpg","","","68","SW","","","","","","","","","",""
"image-slider-response","15","60027","0.0-6.0-0.0-0.9","2543","pics2/VE5.jpg","","","71","VE","","","","","","","","","",""
"image-slider-response","16","61975","0.0-6.0-0.0-0.10","1740","pics2/FR6.jpg","","","80","FR","","","","","","","","","",""
"image-slider-response","17","64358","0.0-6.0-0.0-0.11","2173","pics2/SA3.jpg","","","26","SA","","","","","","","","","",""
"image-slider-response","18","67380","0.0-6.0-0.0-0.12","2815","pics2/SA1.jpg","","","17","SA","","","","","","","","","",""
"image-slider-response","19","69844","0.0-6.0-0.0-0.13","2252","pics2/SW3.jpg","","","63","SW","","","","","","","","","",""
"image-slider-response","20","72145","0.0-6.0-0.0-0.14","2091","pics2/SW1.jpg","","","64","SW","","","","","","","","","",""
"image-slider-response","21","74813","0.0-6.0-0.0-0.15","2459","pics2/VE2.jpg","","","73","VE","","","","","","","","","",""
"image-slider-response","22","77717","0.0-6.0-0.0-0.16","2693","pics2/SW6.jpg","","","72","SW","","","","","","","","","",""
"image-slider-response","23","79845","0.0-6.0-0.0-0.17","1920","pics2/FR3.jpg","","","75","FR","","","","","","","","","",""
"image-slider-response","24","82394","0.0-6.0-0.0-0.18","2330","pics2/SA2.jpg","","","58","SA","","","","","","","","","",""
"image-slider-response","25","84509","0.0-6.0-0.0-0.19","1909","pics2/SA4.jpg","","","67","SA","","","","","","","","","",""
"image-slider-response","26","86625","0.0-6.0-0.0-0.20","1911","pics2/FR5.jpg","","","84","FR","","","","","","","","","",""
"image-slider-response","27","88525","0.0-6.0-0.0-0.21","1692","pics2/SW5.jpg","","","68","SW","","","","","","","","","",""
"image-slider-response","28","91136","0.0-6.0-0.0-0.22","2400","pics2/VE6.jpg","","","33","VE","","","","","","","","","",""
"image-slider-response","29","93024","0.0-6.0-0.0-0.23","1681","pics2/FR2.jpg","","","71","FR","","","","","","","","","",""
"html-button-response","30","94529","0.0-7.0","1298","<div style='width: 900px;'> <font size = 6><b> End of the first rating</b><br><br>","0","","","","","","","","","","","","",""
"html-button-response","31","100987","0.0-9.0","6455","<div ><img src='sizeS.png'></img></div><br><div style='text-align: justify; width: 700px'> Using the mouse, rate the <b><i>size</b></i> of the food items <b><i> relative to the white background.</b></i> Right-end of the scale indicates a <i>very large item</i>, which covers a large portion of the white rectangle. Left-end indicates a <i>very tiny</i> item which covers a tiny portion of the white rectangle.<br><br><i><u>Remember</i></u>: everything that is not the white background also contributes to item size (e.g. packing, plates, ect.)<br><br> Please keep in mind that if the accuracy of ratings do not allign well with actual sizes, the experiment will end.  As a result it will be consider incomplete and therefore no payment would be made. Good luck!<br><br></div><br>","0","","","","","","","","","","","","",""
"html-button-response","32","105053","0.0-10.0","4063","<div ><img src='sizeS.png'></img></div><br><b><font size=6>Examples of items that you might encounter</b><br><div style='width: 750px;'><div style='width: 33.33%; float:left'><br><br><br><i>Large Item</i><br><br><img src='large.jpg', width=200px></img></div><div style='float:right'><br><br><br><i>Small Item</i><br><br><img src='small.jpg', width=200px></img></div><div ><br><br><br><i>Medium Item</i><br><br><img src='med.jpg', width=200px></img></div></div><br><br>","0","","","","","","","","","","","","",""
"image-slider-response","33","109324","0.0-11.0-0.0-0.0","4265","pics2/SW1.jpg","","","79","null","","","","","","","","","",""
"image-slider-response","34","113025","0.0-11.0-0.0-0.1","3490","pics2/VE3.jpg","","","35","null","","","","","","","","","",""
"image-slider-response","35","116196","0.0-11.0-0.0-0.2","2959","pics2/SA2.jpg","","","100","null","","","","","","","","","",""
"image-slider-response","36","118805","0.0-11.0-0.0-0.3","2404","pics2/SA3.jpg","","","19","null","","","","","","","","","",""
"image-slider-response","37","121305","0.0-11.0-0.0-0.4","2291","pics2/VE4.jpg","","","70","null","","","","","","","","","",""
"image-slider-response","38","124761","0.0-11.0-0.0-0.5","3251","pics2/SA6.jpg","","","61","null","","","","","","","","","",""
"image-slider-response","39","128392","0.0-11.0-0.0-0.6","3417","pics2/VE5.jpg","","","35","null","","","","","","","","","",""
"image-slider-response","40","131227","0.0-11.0-0.0-0.7","2622","pics2/SW3.jpg","","","96","null","","","","","","","","","",""
"image-slider-response","41","135300","0.0-11.0-0.0-0.8","3868","pics2/SA1.jpg","","","70","null","","","","","","","","","",""
"image-slider-response","42","137702","0.0-11.0-0.0-0.9","2197","pics2/VE6.jpg","","","40","null","","","","","","","","","",""
"image-slider-response","43","140389","0.0-11.0-0.0-0.10","2468","pics2/VE2.jpg","","","21","null","","","","","","","","","",""
"image-slider-response","44","142860","0.0-11.0-0.0-0.11","2263","pics2/FR6.jpg","","","32","null","","","","","","","","","",""
"image-slider-response","45","145733","0.0-11.0-0.0-0.12","2659","pics2/SA5.jpg","","","31","null","","","","","","","","","",""
"image-slider-response","46","149583","0.0-11.0-0.0-0.13","3638","pics2/SW2.jpg","","","72","null","","","","","","","","","",""
"image-slider-response","47","152743","0.0-11.0-0.0-0.14","2949","pics2/FR1.jpg","","","77","null","","","","","","","","","",""
"image-slider-response","48","154958","0.0-11.0-0.0-0.15","2003","pics2/SA4.jpg","","","79","null","","","","","","","","","",""
"image-slider-response","49","157250","0.0-11.0-0.0-0.16","2085","pics2/SW5.jpg","","","36","null","","","","","","","","","",""
"image-slider-response","50","159840","0.0-11.0-0.0-0.17","2376","pics2/SW6.jpg","","","82","null","","","","","","","","","",""
"image-slider-response","51","162764","0.0-11.0-0.0-0.18","2710","pics2/FR4.jpg","","","25","null","","","","","","","","","",""
"image-slider-response","52","165972","0.0-11.0-0.0-0.19","3000","pics2/FR2.jpg","","","65","null","","","","","","","","","",""
"image-slider-response","53","169034","0.0-11.0-0.0-0.20","2844","pics2/VE1.jpg","","","38","null","","","","","","","","","",""
"image-slider-response","54","171434","0.0-11.0-0.0-0.21","2189","pics2/FR5.jpg","","","34","null","","","","","","","","","",""
"image-slider-response","55","174144","0.0-11.0-0.0-0.22","2505","pics2/SW4.jpg","","","65","null","","","","","","","","","",""
"image-slider-response","56","176316","0.0-11.0-0.0-0.23","1964","pics2/FR3.jpg","","","36","null","","","","","","","","","",""
"html-button-response","57","177626","0.0-12.0","1107","<div style='width: 900px;'> <font size = 6><b> End of the second rating</b><br><br>","0","","","","","","","","","","","","",""
"html-button-response","58","182034","0.0-13.0","4406","<div style='width: 900px;'>Now please rate the items for the second time. <br><br>This is not a memory test - you don't need to be consistent with your previous ratings. Just as before, try to make accurate judgements.<br><br>","0","","","","","","","","","","","","",""
"html-button-response","59","264333","0.0-14.0","82297","<div><img src='heartS.png'></img></div><br><div style='text-align: justify; width: 700px'>Using the mouse, rate the <b><i>likeness</b></i> of the food items (how much you like them/would like to eat them <i>right now</i>). Far right-end of the scale indicates an item you <i>like a lot</i>. Far left-end indicates an item you <i>dislike a lot</i>. Think about each answer.   <ul><li>Try <b><i>not</b></i> to give identical rating to different items.</li><li>Use the whole scale, and <b><i>not</b></i> just the extremes</ul></div><br>","0","","","","","","","","","","","","",""
"image-slider-response","60","267520","0.0-15.0-0.0-0.0","3183","pics2/VE3.jpg","","","72","VE","","","","","","","","","",""
"image-slider-response","61","270476","0.0-15.0-0.0-0.1","2751","pics2/SW4.jpg","","","75","SW","","","","","","","","","",""
"image-slider-response","62","272273","0.0-15.0-0.0-0.2","1588","pics2/SA4.jpg","","","77","SA","","","","","","","","","",""
"image-slider-response","63","274219","0.0-15.0-0.0-0.3","1741","pics2/VE4.jpg","","","27","VE","","","","","","","","","",""
"image-slider-response","64","276267","0.0-15.0-0.0-0.4","1833","pics2/VE1.jpg","","","62","VE","","","","","","","","","",""
"image-slider-response","65","278137","0.0-15.0-0.0-0.5","1661","pics2/FR3.jpg","","","69","FR","","","","","","","","","",""
"image-slider-response","66","280371","0.0-15.0-0.0-0.6","2027","pics2/SW5.jpg","","","72","SW","","","","","","","","","",""
"image-slider-response","67","282546","0.0-15.0-0.0-0.7","1961","pics2/SA2.jpg","","","63","SA","","","","","","","","","",""
"image-slider-response","68","287308","0.0-15.0-0.0-0.8","4553","pics2/SW2.jpg","","","69","SW","","","","","","","","","",""
"image-slider-response","69","290163","0.0-15.0-0.0-0.9","2643","pics2/VE5.jpg","","","71","VE","","","","","","","","","",""
"image-slider-response","70","293224","0.0-15.0-0.0-0.10","2849","pics2/SA5.jpg","","","60","SA","","","","","","","","","",""
"image-slider-response","71","297204","0.0-15.0-0.0-0.11","3769","pics2/SA1.jpg","","","26","SA","","","","","","","","","",""
"image-slider-response","72","299695","0.0-15.0-0.0-0.12","2277","pics2/FR5.jpg","","","66","FR","","","","","","","","","",""
"image-slider-response","73","301554","0.0-15.0-0.0-0.13","1651","pics2/FR2.jpg","","","72","FR","","","","","","","","","",""
"image-slider-response","74","304122","0.0-15.0-0.0-0.14","2363","pics2/SA6.jpg","","","60","SA","","","","","","","","","",""
"image-slider-response","75","307267","0.0-15.0-0.0-0.15","2933","pics2/SW3.jpg","","","77","SW","","","","","","","","","",""
"image-slider-response","76","311051","0.0-15.0-0.0-0.16","3576","pics2/FR4.jpg","","","100","FR","","","","","","","","","",""
"image-slider-response","77","313186","0.0-15.0-0.0-0.17","1923","pics2/SW6.jpg","","","70","SW","","","","","","","","","",""
"image-slider-response","78","315792","0.0-15.0-0.0-0.18","2398","pics2/VE6.jpg","","","30","VE","","","","","","","","","",""
"image-slider-response","79","318675","0.0-15.0-0.0-0.19","2670","pics2/FR6.jpg","","","74","FR","","","","","","","","","",""
"image-slider-response","80","321582","0.0-15.0-0.0-0.20","2695","pics2/VE2.jpg","","","75","VE","","","","","","","","","",""
"image-slider-response","81","324065","0.0-15.0-0.0-0.21","2275","pics2/SA3.jpg","","","38","SA","","","","","","","","","",""
"image-slider-response","82","326257","0.0-15.0-0.0-0.22","1983","pics2/SW1.jpg","","","74","SW","","","","","","","","","",""
"image-slider-response","83","328668","0.0-15.0-0.0-0.23","2205","pics2/FR1.jpg","","","86","FR","","","","","","","","","",""
"call-function","84","328892","0.0-16.0","","","","","","","","","","","","","","","",""
"call-function","85","328905","0.0-17.0","","","","","","","","","","","","","","","",""
"html-button-response","86","330213","0.0-18.0","1306","<div style='width: 900px;'> <font size = 6><b> End of the first rating</b><br><br>","0","","","","","","","","","","","","",""
"html-button-response","87","331255","0.0-19.0","1040","<div ><img src='sizeS.png'></img></div><br><div style='text-align: justify; width: 700px'> Using the mouse, rate the <b><i>size</b></i> of the food items <b><i> relative to the white background.</b></i> Right-end of the scale indicates a <i>very large item</i>, which covers a large portion of the white rectangle. Left-end indicates a <i>very tiny</i> item which covers a tiny portion of the white rectangle.<br><br><i><u>Remember</i></u>: everything that is not the white background also contributes to item size (e.g. packing, plates, ect.)<br><br> Please keep in mind that if the accuracy of ratings do not allign well with actual sizes, the experiment will end.  As a result it will be consider incomplete and therefore no payment would be made. Good luck!<br><br></div><br>","0","","","","","","","","","","","","",""
"image-slider-response","88","333284","0.0-20.0-0.0-0.0","2025","pics2/FR1.jpg","","","81","null","","","","","","","","","",""
"image-slider-response","89","335704","0.0-20.0-0.0-0.1","2210","pics2/SA1.jpg","","","66","null","","","","","","","","","",""
"image-slider-response","90","338203","0.0-20.0-0.0-0.2","2288","pics2/VE2.jpg","","","22","null","","","","","","","","","",""
"image-slider-response","91","340918","0.0-20.0-0.0-0.3","2504","pics2/SW5.jpg","","","34","null","","","","","","","","","",""
"image-slider-response","92","344087","0.0-20.0-0.0-0.4","2963","pics2/VE4.jpg","","","68","null","","","","","","","","","",""
"image-slider-response","93","346833","0.0-20.0-0.0-0.5","2539","pics2/SW3.jpg","","","92","null","","","","","","","","","",""
"image-slider-response","94","348930","0.0-20.0-0.0-0.6","1892","pics2/SW6.jpg","","","73","null","","","","","","","","","",""
"image-slider-response","95","351223","0.0-20.0-0.0-0.7","2080","pics2/VE1.jpg","","","30","null","","","","","","","","","",""
"image-slider-response","96","353695","0.0-20.0-0.0-0.8","2262","pics2/VE3.jpg","","","50","null","","","","","","","","","",""
"image-slider-response","97","356509","0.0-20.0-0.0-0.9","2605","pics2/FR2.jpg","","","69","null","","","","","","","","","",""
"image-slider-response","98","359365","0.0-20.0-0.0-0.10","2650","pics2/FR3.jpg","","","23","null","","","","","","","","","",""
"image-slider-response","99","361726","0.0-20.0-0.0-0.11","2152","pics2/SW1.jpg","","","75","null","","","","","","","","","",""
"image-slider-response","100","363643","0.0-20.0-0.0-0.12","1713","pics2/FR5.jpg","","","25","null","","","","","","","","","",""
"image-slider-response","101","365534","0.0-20.0-0.0-0.13","1681","pics2/FR6.jpg","","","19","null","","","","","","","","","",""
"image-slider-response","102","368653","0.0-20.0-0.0-0.14","2910","pics2/FR4.jpg","","","18","null","","","","","","","","","",""
"image-slider-response","103","371782","0.0-20.0-0.0-0.15","2920","pics2/SA2.jpg","","","94","null","","","","","","","","","",""
"image-slider-response","104","374618","0.0-20.0-0.0-0.16","2628","pics2/SA6.jpg","","","68","null","","","","","","","","","",""
"image-slider-response","105","377303","0.0-20.0-0.0-0.17","2479","pics2/VE6.jpg","","","29","null","","","","","","","","","",""
"image-slider-response","106","380512","0.0-20.0-0.0-0.18","3000","pics2/VE5.jpg","","","31","null","","","","","","","","","",""
"image-slider-response","107","385311","0.0-20.0-0.0-0.19","4585","pics2/SW2.jpg","","","66","null","","","","","","","","","",""
"image-slider-response","108","387876","0.0-20.0-0.0-0.20","2350","pics2/SA5.jpg","","","36","null","","","","","","","","","",""
"image-slider-response","109","390336","0.0-20.0-0.0-0.21","2251","pics2/SA4.jpg","","","80","null","","","","","","","","","",""
"image-slider-response","110","393142","0.0-20.0-0.0-0.22","2598","pics2/SA3.jpg","","","36","null","","","","","","","","","",""
"image-slider-response","111","395885","0.0-20.0-0.0-0.23","2531","pics2/SW4.jpg","","","65","null","","","","","","","","","",""
"call-function","112","396098","0.0-21.0","","","","","","","","","","","","","","","",""
"html-button-response","113","397333","0.0-22.0","1233","<div style='width: 900px;'> <font size = 6><b> End of the second rating</b><br><br>","0","","","","","","","","","","","","",""
"pavlovia","114","397351","0.0-23.0","","","","","","","","","","","","","","","",""
"html-keyboard-response","115","402373","0.0-24.0","null","<div style='width: 700px;'> <font size=6><b>SHORT BREAK</font></b><br><br><i> Please wait 5 seconds to continue</i></div> ","","","","","","null","","","","","","","",""
"pavlovia","116","402377","0.0-25.0","","","","","","","","","","","","","","","",""
"html-button-response","117","610164","0.0-26.0","207784","<div style='width: 700px;'>In the main part of the study, you will be choosing between 2 items. When it's time to choose,  this symbol will appear: <br><br><img src='chooseS.png'></img><br><br>Below, a cue will signify the type of choice: </div><br><div style='width: 700px;'><div style='float: left; width: 50%'><img src='heartS.png'></img><p class='small'>Heart cue means you should choose the item you <b><i>prefer</b></i> more.</p></div><div class='float: right; width:50%'><img src='sizeS.png'></img><p class='small'>Size cue means you should choose the <b><i>larger</b></i> item. </p></div></div><br><div style='width: 700px;'>When you click, a green square will appear around the item you chose.<br></div><div><br>","0","","","","","","","","","","","","",""
"image-selector-fb-tut","118","614582","0.0-27.0","3409","0232.jpg,0123.jpg","","","","","","","true","1","","","","","",""
"image-selector-fb-tut","119","615913","0.0-28.0","319","0232.jpg,0123.jpg","","","","","","","false","0","","","","","",""
"html-button-response","120","619823","0.0-29.0","3908","<div style='width: 900px;'>Your choices should be both <b><i>fast and accurate</b></i>. <br><br>You will have <i>4 seconds</i> to make each choice, which should be enough consider the options and click on one of the items.<br><br>","0","","","","","","","","","","","","",""
"html-button-response","121","629680","0.0-30.0","9855","<div style='width: 900px;'>Additionally, on some choice trials you will see the <b><i>no-choice cue</b></i>: <br><br><img src='noS.png'></img> <br><br>This cue means you can't make any choice. You can examine the items, but  can't click on any of them. Just wait patiently for the cue to dissapear.<br><br>","0","","","","","","","","","","","","",""
"image-selector-fb-tut","122","631700","0.0-31.0","null","0232.jpg,0123.jpg","","","","","","","false","null","","","","","",""
"html-button-response","123","646101","0.0-32.0","14396","<div style='width: 900px;'>After each choice the items will remain on the screen and you will see this symbol: <br><br><img src='judgeS.png'></img> <br><br>This means you should rate<b> the magnitude of the difference</b> between the items using a scale: </div><br><div style='width: 900px; '><div style='float: left; width: 50%; margin-right: 2.5em; align-self:left'><img src='heartS.png'></img><p class='small' style = 'text-align: justify;'>Heart cue means you should rate <b>how much you prefer</b> one of the items over the other. Moving the scale indicator to the left means you prefer the left one; moving it to the right - right one. The more you prefer one of them, the more towards that side you should move the scale indicator. </p></div><div class='float: right; width: 50%; margin-left: 2.5em;'><img src='sizeS.png'></img><p class='small' style='text-align: justify'>Size cue means you should rate <b>how much larger</b> is one of the items over the other. Moving the scale indicator to the left means you think the left is larger; moving it to the right - right one. The greater the difference in size, the more towards that side you should move the scale indicator.</div><br>","0","","","","","","","","","","","","",""
"image-slider-2AFC-tut","124","652888","0.0-33.0","6782","","","","96","","","","","","5329","96","","","",""
"image-slider-2AFC-tut","125","660642","0.0-34.0","7749","","","","13","","","","","","6382","13","","","",""
"html-button-response","126","684799","0.0-35.0","24155","<br><br><font size = 36><b> Examples </b></font><br><br><i> 1) I would like to eat some croissants a <b>lot more</b> than doritos right now:</i><br><img src='ex1.PNG', width='62%'></img><br><br><br><i> 2) I would like to eat some doritos a <b>bit more</b> than croissants right now, but just slightly:</i><br><img src='ex2.PNG' width='62%'></img>","0","","","","","","","","","","","","",""
"html-button-response","127","689640","0.0-36.0","4838","<div style='width: 900px;'><i>Now you know everything you need to do the task!</i> <br><br>Let's start by doing a <b>short training</b>, so you'll get used to how it works. </div><br>","0","","","","","","","","","","","","",""
"image-selector-fb","128","692931","0.0-37.0-0.0","2779","pics2/SW1.jpg,pics2/SA3.jpg","","","","","","","false","0","","","sizeS.png","","",""
"image-slider-2AFC","129","697937","0.0-37.0-1.0","null","","","","null","","","","","","","","heartS.png","4440","-37",""
"html-keyboard-response","130","698800","0.0-37.0-2.0","null","","","","","","","null","","","","","","","",""
"image-selector-fb","131","702404","0.0-37.1-0.1","3094","pics2/SA2.jpg,pics2/SA3.jpg","","","","","","","false","0","","","sizeS.png","","",""
"image-slider-2AFC","132","705572","0.0-37.1-1.1","3166","","","","-57","","","","","","","","heartS.png","2268","-57",""
"html-keyboard-response","133","706289","0.0-37.1-2.1","null","","","","","","","null","","","","","","","",""
"image-selector-fb","134","708970","0.0-37.2-0.2","2170","pics2/SA2.jpg,pics2/SA5.jpg","","","","","","","false","0","","","sizeS.png","","",""
"image-slider-2AFC","135","712123","0.0-37.2-1.2","3149","","","","-55","","","","","","","","sizeS.png","2361","-55",""
"html-keyboard-response","136","712982","0.0-37.2-2.2","null","","","","","","","null","","","","","","","",""
"image-selector-fb","137","715940","0.0-37.3-0.3","2447","pics2/SA2.jpg,pics2/VE6.jpg","","","","","","","false","0","","","sizeS.png","","",""
"image-slider-2AFC","138","718825","0.0-37.3-1.3","2880","","","","-90","","","","","","","","heartS.png","1925","-90",""
"html-keyboard-response","139","719691","0.0-37.3-2.3","null","","","","","","","null","","","","","","","",""
"image-selector-fb","140","722710","0.0-37.4-0.4","null","pics2/VE4.jpg,pics2/VE6.jpg","","","","","","","false","null","","","noS.png","","",""
"image-slider-2AFC","141","726579","0.0-37.4-1.4","3864","","","","50","","","","","","","","heartS.png","2536","50",""
"html-keyboard-response","142","727390","0.0-37.4-2.4","null","","","","","","","null","","","","","","","",""
"image-selector-fb","143","730401","0.0-37.5-0.5","null","pics2/VE6.jpg,pics2/SW2.jpg","","","","","","","false","null","","","noS.png","","",""
"image-slider-2AFC","144","733833","0.0-37.5-1.5","3428","","","","49","","","","","","","","heartS.png","2437","49",""
"html-keyboard-response","145","734650","0.0-37.5-2.5","null","","","","","","","null","","","","","","","",""
"image-selector-fb","146","737156","0.0-37.6-0.6","1991","pics2/SA3.jpg,pics2/SA5.jpg","","","","","","","true","1","","","sizeS.png","","",""
"image-slider-2AFC","147","740974","0.0-37.6-1.6","3815","","","","-40","","","","","","","","heartS.png","3127","-40",""
"html-keyboard-response","148","741689","0.0-37.6-2.6","null","","","","","","","null","","","","","","","",""
"image-selector-fb","149","743755","0.0-37.7-0.7","1554","pics2/SW1.jpg,pics2/VE4.jpg","","","","","","","false","0","","","sizeS.png","","",""
"image-slider-2AFC","150","748768","0.0-37.7-1.7","null","","","","null","","","","","","","","sizeS.png","4620","-40",""
"html-keyboard-response","151","749630","0.0-37.7-2.7","null","","","","","","","null","","","","","","","",""
"image-selector-fb","152","751561","0.0-37.8-0.8","1415","pics2/SA2.jpg,pics2/VE1.jpg","","","","","","","false","0","","","sizeS.png","","",""
"image-slider-2AFC","153","754169","0.0-37.8-1.8","2604","","","","-84","","","","","","","","heartS.png","1670","-84",""
"html-keyboard-response","154","754940","0.0-37.8-2.8","null","","","","","","","null","","","","","","","",""
"image-selector-fb","155","757376","0.0-37.9-0.9","1923","pics2/SA2.jpg,pics2/SA1.jpg","","","","","","","false","0","","","sizeS.png","","",""
"image-slider-2AFC","156","759886","0.0-37.9-1.9","2505","","","","-46","","","","","","","","sizeS.png","1738","-46",""
"html-keyboard-response","157","760750","0.0-37.9-2.9","null","","","","","","","null","","","","","","","",""
"image-selector-fb","158","763120","0.0-37.10-0.10","1859","pics2/SA5.jpg,pics2/VE6.jpg","","","","","","","false","0","","","heartS.png","","",""
"image-slider-2AFC","159","765898","0.0-37.10-1.10","2776","","","","-41","","","","","","","","sizeS.png","1781","-41",""
"html-keyboard-response","160","766663","0.0-37.10-2.10","null","","","","","","","null","","","","","","","",""
"image-selector-fb","161","768313","0.0-37.11-0.11","1138","pics2/SW1.jpg,pics2/SW5.jpg","","","","","","","false","0","","","sizeS.png","","",""
"image-slider-2AFC","162","772331","0.0-37.11-1.11","4014","","","","-58","","","","","","","","heartS.png","3187","-58",""
"html-keyboard-response","163","773099","0.0-37.11-2.11","null","","","","","","","null","","","","","","","",""
"html-button-response","164","776013","0.0-38.0","2910","<i><font size=10>Good job!</font></i> <br><br>Before we begin, you have a chance to review the rules, in case something was not clear.<br><br>","0","","","","","","","","","","","","",""
"instructions","165","779885","0.0-39.0","3871","","","","","","","","","","","","","","","[{""page_index"":0,""viewing_time"":1303},{""page_index"":1,""viewing_time"":1220},{""page_index"":2,""viewing_time"":1347}]"
"html-button-response","166","780960","0.0-40.0","1072","<div style='width: 900px;'> <font size='40'>Great! Now you're ready to begin</font><br><br>The main part of the experiment will consist of <u>3 blocks</u>. Each block consists of 66 decisions and judgements. You will have time for a short break between blocks.<br><br><br><i><u>Do your best to respond within the time limit.</u></i><br><br><i> Press the button to start the experiment<br><br></i>","0","","","","","","","","","","","","",""
"image-selector-fb","167","782722","0.0-41.0-0.0","1252","pics2/SW4.jpg,pics2/SW6.jpg","","","","","","","false","0","","","heartS.png","","",""
"image-slider-2AFC","168","785905","0.0-41.0-1.0","3179","","","","-47","","","","","","","","heartS.png","1931","-47",""
"html-keyboard-response","169","786680","0.0-41.0-2.0","null","","","","","","","null","","","","","","","",""
"image-selector-fb","170","788611","0.0-41.1-0.1","1415","pics2/VE3.jpg,pics2/FR6.jpg","","","","","","","false","0","","","sizeS.png","","",""
"image-slider-2AFC","171","793619","0.0-41.1-1.1","null","","","","null","","","","","","","","sizeS.png","","",""
"html-keyboard-response","172","794487","0.0-41.1-2.1","null","","","","","","","null","","","","","","","",""
"image-selector-fb","173","796509","0.0-41.2-0.2","1510","pics2/FR6.jpg,pics2/SW4.jpg","","","","","","","true","1","","","sizeS.png","","",""
"image-slider-2AFC","174","799884","0.0-41.2-1.2","3371","","","","63","","","","","","","","heartS.png","2546","63",""
"html-keyboard-response","175","800749","0.0-41.2-2.2","null","","","","","","","null","","","","","","","",""
"image-selector-fb","176","802620","0.0-41.3-0.3","1365","pics2/VE5.jpg,pics2/VE3.jpg","","","","","","","true","1","","","heartS.png","","",""
"image-slider-2AFC","177","805364","0.0-41.3-1.3","2741","","","","63","","","","","","","","heartS.png","1748","63",""
"html-keyboard-response","178","806130","0.0-41.3-2.3","null","","","","","","","null","","","","","","","",""
"image-selector-fb","179","809151","0.0-41.4-0.4","null","pics2/VE3.jpg,pics2/VE5.jpg","","","","","","","false","null","","","noS.png","","",""
"image-slider-2AFC","180","812309","0.0-41.4-1.4","3155","","","","-87","","","","","","","","heartS.png","1650","-87",""
"html-keyboard-response","181","813172","0.0-41.4-2.4","null","","","","","","","null","","","","","","","",""
"image-selector-fb","182","815214","0.0-41.5-0.5","1534","pics2/FR3.jpg,pics2/SA4.jpg","","","","","","","true","1","","","sizeS.png","","",""
"image-slider-2AFC","183","818388","0.0-41.5-1.5","3172","","","","-51","","","","","","","","heartS.png","2406","-51",""
"html-keyboard-response","184","819145","0.0-41.5-2.5","null","","","","","","","null","","","","","","","",""
"image-selector-fb","185","821263","0.0-41.6-0.6","1601","pics2/FR6.jpg,pics2/SW6.jpg","","","","","","","true","1","","","sizeS.png","","",""
"image-slider-2AFC","186","823849","0.0-41.6-1.6","2583","","","","71","","","","","","","","heartS.png","1757","71",""
"html-keyboard-response","187","824564","0.0-41.6-2.6","null","","","","","","","null","","","","","","","",""
"image-selector-fb","188","826549","0.0-41.7-0.7","1475","pics2/FR2.jpg,pics2/FR1.jpg","","","","","","","true","1","","","sizeS.png","","",""
"image-slider-2AFC","189","829643","0.0-41.7-1.7","3091","","","","57","","","","","","","","sizeS.png","2011","57",""
"html-keyboard-response","190","830460","0.0-41.7-2.7","null","","","","","","","null","","","","","","","",""
"image-selector-fb","191","832318","0.0-41.8-0.8","1353","pics2/SW4.jpg,pics2/VE2.jpg","","","","","","","false","0","","","heartS.png","","",""
"image-slider-2AFC","192","834649","0.0-41.8-1.8","2328","","","","-48","","","","","","","","sizeS.png","1602","-48",""
"html-keyboard-response","193","835464","0.0-41.8-2.8","null","","","","","","","null","","","","","","","",""
"image-selector-fb","194","837131","0.0-41.9-0.9","1161","pics2/SW6.jpg,pics2/VE5.jpg","","","","","","","false","0","","","sizeS.png","","",""
"image-slider-2AFC","195","839362","0.0-41.9-1.9","2228","","","","-54","","","","","","","","heartS.png","1589","-54",""
"html-keyboard-response","196","840129","0.0-41.9-2.9","null","","","","","","","null","","","","","","","",""
"image-selector-fb","197","841998","0.0-41.10-0.10","1363","pics2/VE3.jpg,pics2/SW4.jpg","","","","","","","true","1","","","sizeS.png","","",""
"image-slider-2AFC","198","844615","0.0-41.10-1.10","2614","","","","69","","","","","","","","sizeS.png","1729","69",""
"html-keyboard-response","199","845369","0.0-41.10-2.10","null","","","","","","","null","","","","","","","",""
"image-selector-fb","200","847575","0.0-41.11-0.11","1699","pics2/FR2.jpg,pics2/FR3.jpg","","","","","","","false","0","","","sizeS.png","","",""
"image-slider-2AFC","201","849584","0.0-41.11-1.11","2004","","","","-60","","","","","","","","sizeS.png","1148","-60",""
"html-keyboard-response","202","850459","0.0-41.11-2.11","null","","","","","","","null","","","","","","","",""
"image-selector-fb","203","852256","0.0-41.12-0.12","1285","pics2/FR4.jpg,pics2/FR5.jpg","","","","","","","true","1","","","sizeS.png","","",""
"image-slider-2AFC","204","854235","0.0-41.12-1.12","1975","","","","-45","","","","","","","","heartS.png","1356","-45",""
"html-keyboard-response","205","855096","0.0-41.12-2.12","null","","","","","","","null","","","","","","","",""
"image-selector-fb","206","858110","0.0-41.13-0.13","null","pics2/FR3.jpg,pics2/VE3.jpg","","","","","","","false","null","","","noS.png","","",""
"image-slider-2AFC","207","863120","0.0-41.13-1.13","null","","","","null","","","","","","","","sizeS.png","4641","53",""
"html-keyboard-response","208","863989","0.0-41.13-2.13","null","","","","","","","null","","","","","","","",""
"image-selector-fb","209","865891","0.0-41.14-0.14","1389","pics2/FR5.jpg,pics2/SW6.jpg","","","","","","","true","1","","","heartS.png","","",""
"image-slider-2AFC","210","868630","0.0-41.14-1.14","2735","","","","-50","","","","","","","","sizeS.png","2005","-50",""
"html-keyboard-response","211","869500","0.0-41.14-2.14","null","","","","","","","null","","","","","","","",""
"image-selector-fb","212","871879","0.0-41.15-0.15","1869","pics2/VE3.jpg,pics2/FR3.jpg","","","","","","","true","1","","","heartS.png","","",""
"image-slider-2AFC","213","873802","0.0-41.15-1.15","1918","","","","42","","","","","","","","heartS.png","1151","42",""
"html-keyboard-response","214","874670","0.0-41.15-2.15","null","","","","","","","null","","","","","","","",""
"image-selector-fb","215","877389","0.0-41.16-0.16","2207","pics2/FR3.jpg,pics2/FR5.jpg","","","","","","","true","1","","","sizeS.png","","",""
"image-slider-2AFC","216","879793","0.0-41.16-1.16","2400","","","","38","","","","","","","","sizeS.png","1742","38",""
"html-keyboard-response","217","880561","0.0-41.16-2.16","null","","","","","","","null","","","","","","","",""
"image-selector-fb","218","883579","0.0-41.17-0.17","null","pics2/VE5.jpg,pics2/FR1.jpg","","","","","","","false","null","","","noS.png","","",""
"image-slider-2AFC","219","887694","0.0-41.17-1.17","4111","","","","58","","","","","","","","heartS.png","3490","58",""
"html-keyboard-response","220","888409","0.0-41.17-2.17","null","","","","","","","null","","","","","","","",""
"image-selector-fb","221","891180","0.0-41.18-0.18","2261","pics2/VE2.jpg,pics2/FR4.jpg","","","","","","","false","0","","","sizeS.png","","",""
"image-slider-2AFC","222","893183","0.0-41.18-1.18","1999","","","","-43","","","","","","","","sizeS.png","1272","-43",""
"html-keyboard-response","223","894046","0.0-41.18-2.18","null","","","","","","","null","","","","","","","",""
"image-selector-fb","224","895886","0.0-41.19-0.19","1328","pics2/FR3.jpg,pics2/SW4.jpg","","","","","","","true","1","","","sizeS.png","","",""
"image-slider-2AFC","225","898291","0.0-41.19-1.19","2402","","","","-26","","","","","","","","heartS.png","1635","-26",""
"html-keyboard-response","226","899160","0.0-41.19-2.19","null","","","","","","","null","","","","","","","",""
"image-selector-fb","227","901260","0.0-41.20-0.20","1585","pics2/FR6.jpg,pics2/FR4.jpg","","","","","","","false","0","","","sizeS.png","","",""
"image-slider-2AFC","228","903357","0.0-41.20-1.20","2094","","","","-43","","","","","","","","sizeS.png","1417","-43",""
"html-keyboard-response","229","904069","0.0-41.20-2.20","null","","","","","","","null","","","","","","","",""
"image-selector-fb","230","905564","0.0-41.21-0.21","987","pics2/FR4.jpg,pics2/VE3.jpg","","","","","","","false","0","","","heartS.png","","",""
"image-slider-2AFC","231","907933","0.0-41.21-1.21","2367","","","","43","","","","","","","","sizeS.png","1660","43",""
"html-keyboard-response","232","908641","0.0-41.21-2.21","null","","","","","","","null","","","","","","","",""
"image-selector-fb","233","910316","0.0-41.22-0.22","1169","pics2/FR4.jpg,pics2/SW6.jpg","","","","","","","true","1","","","heartS.png","","",""
"image-slider-2AFC","234","913414","0.0-41.22-1.22","3094","","","","74","","","","","","","","sizeS.png","2181","74",""
"html-keyboard-response","235","914181","0.0-41.22-2.22","null","","","","","","","null","","","","","","","",""
"image-selector-fb","236","917201","0.0-41.23-0.23","null","pics2/FR4.jpg,pics2/VE5.jpg","","","","","","","false","null","","","noS.png","","",""
"image-slider-2AFC","237","921777","0.0-41.23-1.23","4573","","","","56","","","","","","","","sizeS.png","3738","56",""
"html-keyboard-response","238","922641","0.0-41.23-2.23","null","","","","","","","null","","","","","","","",""
"image-selector-fb","239","925338","0.0-41.24-0.24","2189","pics2/VE2.jpg,pics2/VE3.jpg","","","","","","","false","0","","","heartS.png","","",""
"image-slider-2AFC","240","927424","0.0-41.24-1.24","2083","","","","-48","","","","","","","","heartS.png","1416","-48",""
"html-keyboard-response","241","928130","0.0-41.24-2.24","null","","","","","","","null","","","","","","","",""
"image-selector-fb","242","930101","0.0-41.25-0.25","1456","pics2/FR1.jpg,pics2/FR5.jpg","","","","","","","false","0","","","sizeS.png","","",""
"image-slider-2AFC","243","932760","0.0-41.25-1.25","2655","","","","-64","","","","","","","","heartS.png","1620","-64",""
"html-keyboard-response","244","933530","0.0-41.25-2.25","null","","","","","","","null","","","","","","","",""
"image-selector-fb","245","936551","0.0-41.26-0.26","null","pics2/FR2.jpg,pics2/FR1.jpg","","","","","","","false","null","","","noS.png","","",""
"image-slider-2AFC","246","939193","0.0-41.26-1.26","2639","","","","95","","","","","","","","sizeS.png","1625","95",""
"html-keyboard-response","247","939960","0.0-41.26-2.26","null","","","","","","","null","","","","","","","",""
"image-selector-fb","248","941633","0.0-41.27-0.27","1162","pics2/SW4.jpg,pics2/FR2.jpg","","","","","","","true","1","","","heartS.png","","",""
"image-slider-2AFC","249","944132","0.0-41.27-1.27","2496","","","","44","","","","","","","","heartS.png","1709","44",""
"html-keyboard-response","250","944850","0.0-41.27-2.27","null","","","","","","","null","","","","","","","",""
"image-selector-fb","251","947866","0.0-41.28-0.28","null","pics2/FR3.jpg,pics2/FR4.jpg","","","","","","","false","null","","","noS.png","","",""
"image-slider-2AFC","252","950094","0.0-41.28-1.28","2225","","","","-46","","","","","","","","sizeS.png","1477","-46",""
"html-keyboard-response","253","950861","0.0-41.28-2.28","null","","","","","","","null","","","","","","","",""
"image-selector-fb","254","953880","0.0-41.29-0.29","null","pics2/FR6.jpg,pics2/FR3.jpg","","","","","","","false","null","","","noS.png","","",""
"image-slider-2AFC","255","956478","0.0-41.29-1.29","2596","","","","75","","","","","","","","sizeS.png","1661","75",""
"html-keyboard-response","256","957342","0.0-41.29-2.29","null","","","","","","","null","","","","","","","",""
"image-selector-fb","257","959106","0.0-41.30-0.30","1257","pics2/VE5.jpg,pics2/SW6.jpg","","","","","","","true","1","","","heartS.png","","",""
"image-slider-2AFC","258","961114","0.0-41.30-1.30","2004","","","","57","","","","","","","","heartS.png","1217","57",""
"html-keyboard-response","259","961881","0.0-41.30-2.30","null","","","","","","","null","","","","","","","",""
"image-selector-fb","260","963612","0.0-41.31-0.31","1213","pics2/SW4.jpg,pics2/VE5.jpg","","","","","","","false","0","","","sizeS.png","","",""
"image-slider-2AFC","261","965709","0.0-41.31-1.31","2094","","","","-47","","","","","","","","sizeS.png","1385","-47",""
"html-keyboard-response","262","966474","0.0-41.31-2.31","null","","","","","","","null","","","","","","","",""
"image-selector-fb","263","969491","0.0-41.32-0.32","null","pics2/SW6.jpg,pics2/FR1.jpg","","","","","","","false","null","","","noS.png","","",""
"image-slider-2AFC","264","972032","0.0-41.32-1.32","2539","","","","94","","","","","","","","sizeS.png","1546","94",""
"html-keyboard-response","265","972892","0.0-41.32-2.32","null","","","","","","","null","","","","","","","",""
"image-selector-fb","266","974547","0.0-41.33-0.33","1148","pics2/FR4.jpg,pics2/FR3.jpg","","","","","","","false","0","","","heartS.png","","",""
"image-slider-2AFC","267","977032","0.0-41.33-1.33","2483","","","","-76","","","","","","","","heartS.png","1698","-76",""
"html-keyboard-response","268","977842","0.0-41.33-2.33","null","","","","","","","null","","","","","","","",""
"image-selector-fb","269","980861","0.0-41.34-0.34","null","pics2/FR2.jpg,pics2/SA4.jpg","","","","","","","false","null","","","noS.png","","",""
"image-slider-2AFC","270","984652","0.0-41.34-1.34","3788","","","","60","","","","","","","","sizeS.png","3058","60",""
"html-keyboard-response","271","985420","0.0-41.34-2.34","null","","","","","","","null","","","","","","","",""
"image-selector-fb","272","987014","0.0-41.35-0.35","1087","pics2/VE2.jpg,pics2/SW6.jpg","","","","","","","true","1","","","sizeS.png","","",""
"image-slider-2AFC","273","989225","0.0-41.35-1.35","2208","","","","44","","","","","","","","heartS.png","1559","44",""
"html-keyboard-response","274","989990","0.0-41.35-2.35","null","","","","","","","null","","","","","","","",""
"image-selector-fb","275","991531","0.0-41.36-0.36","1032","pics2/FR5.jpg,pics2/SA4.jpg","","","","","","","true","1","","","heartS.png","","",""
"image-slider-2AFC","276","993861","0.0-41.36-1.36","2328","","","","63","","","","","","","","sizeS.png","1471","63",""
"html-keyboard-response","277","994632","0.0-41.36-2.36","null","","","","","","","null","","","","","","","",""
"image-selector-fb","278","996448","0.0-41.37-0.37","1311","pics2/SA4.jpg,pics2/SW6.jpg","","","","","","","false","0","","","heartS.png","","",""
"image-slider-2AFC","279","998407","0.0-41.37-1.37","1957","","","","-34","","","","","","","","sizeS.png","1277","-34",""
"html-keyboard-response","280","999170","0.0-41.37-2.37","null","","","","","","","null","","","","","","","",""
"image-selector-fb","281","1002190","0.0-41.38-0.38","null","pics2/SW6.jpg,pics2/VE3.jpg","","","","","","","false","null","","","noS.png","","",""
"image-slider-2AFC","282","1006563","0.0-41.38-1.38","4369","","","","-42","","","","","","","","heartS.png","3622","-42",""
"html-keyboard-response","283","1007322","0.0-41.38-2.38","null","","","","","","","null","","","","","","","",""
"image-selector-fb","284","1009074","0.0-41.39-0.39","1237","pics2/FR2.jpg,pics2/SW4.jpg","","","","","","","true","1","","","sizeS.png","","",""
"image-slider-2AFC","285","1012627","0.0-41.39-1.39","3549","","","","67","","","","","","","","heartS.png","2821","67",""
"html-keyboard-response","286","1013440","0.0-41.39-2.39","null","","","","","","","null","","","","","","","",""
"image-selector-fb","287","1015466","0.0-41.40-0.40","1514","pics2/SW6.jpg,pics2/FR6.jpg","","","","","","","false","0","","","heartS.png","","",""
"image-slider-2AFC","288","1017900","0.0-41.40-1.40","2430","","","","-80","","","","","","","","sizeS.png","915,1625","-1,-80",""
"html-keyboard-response","289","1018671","0.0-41.40-2.40","null","","","","","","","null","","","","","","","",""
"image-selector-fb","290","1020290","0.0-41.41-0.41","1107","pics2/SW4.jpg,pics2/FR5.jpg","","","","","","","false","0","","","sizeS.png","","",""
"image-slider-2AFC","291","1024032","0.0-41.41-1.41","3740","","","","-13","","","","","","","","sizeS.png","2492","-13",""
"html-keyboard-response","292","1024841","0.0-41.41-2.41","null","","","","","","","null","","","","","","","",""
"image-selector-fb","293","1027861","0.0-41.42-0.42","null","pics2/FR6.jpg,pics2/FR2.jpg","","","","","","","false","null","","","noS.png","","",""
"image-slider-2AFC","294","1030251","0.0-41.42-1.42","2386","","","","56","","","","","","","","heartS.png","1727","56",""
"html-keyboard-response","295","1031021","0.0-41.42-2.42","null","","","","","","","null","","","","","","","",""
"image-selector-fb","296","1034036","0.0-41.43-0.43","null","pics2/VE2.jpg,pics2/VE5.jpg","","","","","","","false","null","","","noS.png","","",""
"image-slider-2AFC","297","1038586","0.0-41.43-1.43","4548","","","","72","","","","","","","","sizeS.png","3683","72",""
"html-keyboard-response","298","1039447","0.0-41.43-2.43","null","","","","","","","null","","","","","","","",""
"image-selector-fb","299","1041098","0.0-41.44-0.44","1144","pics2/VE2.jpg,pics2/FR1.jpg","","","","","","","true","1","","","heartS.png","","",""
"image-slider-2AFC","300","1043330","0.0-41.44-1.44","2229","","","","76","","","","","","","","sizeS.png","1333","76",""
"html-keyboard-response","301","1044052","0.0-41.44-2.44","null","","","","","","","null","","","","","","","",""
"image-selector-fb","302","1047070","0.0-41.45-0.45","null","pics2/FR3.jpg,pics2/SW4.jpg","","","","","","","false","null","","","noS.png","","",""
"image-slider-2AFC","303","1051044","0.0-41.45-1.45","3970","","","","72","","","","","","","","sizeS.png","3204","72",""
"html-keyboard-response","304","1051860","0.0-41.45-2.45","null","","","","","","","null","","","","","","","",""
"image-selector-fb","305","1053548","0.0-41.46-0.46","1179","pics2/FR6.jpg,pics2/FR5.jpg","","","","","","","true","1","","","sizeS.png","","",""
"image-slider-2AFC","306","1056752","0.0-41.46-1.46","3201","","","","63","","","","","","","","sizeS.png","2415","63",""
"html-keyboard-response","307","1057471","0.0-41.46-2.46","null","","","","","","","null","","","","","","","",""
"image-selector-fb","308","1059610","0.0-41.47-0.47","1630","pics2/SW4.jpg,pics2/FR6.jpg","","","","","","","false","0","","","heartS.png","","",""
"image-slider-2AFC","309","1061970","0.0-41.47-1.47","2356","","","","-34","","","","","","","","heartS.png","1587","-34",""
"html-keyboard-response","310","1062749","0.0-41.47-2.47","null","","","","","","","null","","","","","","","",""
"image-selector-fb","311","1065562","0.0-41.48-0.48","2296","pics2/FR4.jpg,pics2/FR2.jpg","","","","","","","false","0","","","heartS.png","","",""
"image-slider-2AFC","312","1068809","0.0-41.48-1.48","3244","","","","81","","","","","","","","sizeS.png","1818,2525","1,81",""
"html-keyboard-response","313","1069581","0.0-41.48-2.48","null","","","","","","","null","","","","","","","",""
"image-selector-fb","314","1072601","0.0-41.49-0.49","null","pics2/FR1.jpg,pics2/SA4.jpg","","","","","","","false","null","","","noS.png","","",""
"image-slider-2AFC","315","1075963","0.0-41.49-1.49","3360","","","","44","","","","","","","","sizeS.png","2395","44",""
"html-keyboard-response","316","1076729","0.0-41.49-2.49","null","","","","","","","null","","","","","","","",""
"image-selector-fb","317","1078541","0.0-41.50-0.50","1305","pics2/VE5.jpg,pics2/FR1.jpg","","","","","","","true","1","","","heartS.png","","",""
"image-slider-2AFC","318","1080932","0.0-41.50-1.50","2388","","","","81","","","","","","","","sizeS.png","1561","81",""
"html-keyboard-response","319","1081750","0.0-41.50-2.50","null","","","","","","","null","","","","","","","",""
"image-selector-fb","320","1083275","0.0-41.51-0.51","1018","pics2/FR5.jpg,pics2/FR4.jpg","","","","","","","true","1","","","heartS.png","","",""
"image-slider-2AFC","321","1086018","0.0-41.51-1.51","2738","","","","47","","","","","","","","heartS.png","1855","47",""
"html-keyboard-response","322","1086736","0.0-41.51-2.51","null","","","","","","","null","","","","","","","",""
"image-selector-fb","323","1088361","0.0-41.52-0.52","1109","pics2/VE5.jpg,pics2/FR5.jpg","","","","","","","true","1","","","sizeS.png","","",""
"image-slider-2AFC","324","1091530","0.0-41.52-1.52","3166","","","","34","","","","","","","","sizeS.png","2339","34",""
"html-keyboard-response","325","1092250","0.0-41.52-2.52","null","","","","","","","null","","","","","","","",""
"image-selector-fb","326","1093939","0.0-41.53-0.53","1177","pics2/VE2.jpg,pics2/SW4.jpg","","","","","","","true","1","","","sizeS.png","","",""
"image-slider-2AFC","327","1095732","0.0-41.53-1.53","1787","","","","64","","","","","","","","heartS.png","873","64",""
"html-keyboard-response","328","1096450","0.0-41.53-2.53","null","","","","","","","null","","","","","","","",""
"image-selector-fb","329","1098940","0.0-41.54-0.54","1985","pics2/FR2.jpg,pics2/VE2.jpg","","","","","","","false","0","","","sizeS.png","","",""
"image-slider-2AFC","330","1101282","0.0-41.54-1.54","2338","","","","-60","","","","","","","","sizeS.png","1386","-60",""
"html-keyboard-response","331","1102146","0.0-41.54-2.54","null","","","","","","","null","","","","","","","",""
"image-selector-fb","332","1104199","0.0-41.55-0.55","1543","pics2/FR2.jpg,pics2/VE5.jpg","","","","","","","false","0","","","sizeS.png","","",""
"image-slider-2AFC","333","1106389","0.0-41.55-1.55","2185","","","","-48","","","","","","","","sizeS.png","1361","-48",""
"html-keyboard-response","334","1107155","0.0-41.55-2.55","null","","","","","","","null","","","","","","","",""
"image-selector-fb","335","1110171","0.0-41.56-0.56","null","pics2/VE2.jpg,pics2/SW4.jpg","","","","","","","false","null","","","noS.png","","",""
"image-slider-2AFC","336","1113593","0.0-41.56-1.56","3420","","","","59","","","","","","","","heartS.png","2769","59",""
"html-keyboard-response","337","1114311","0.0-41.56-2.56","null","","","","","","","null","","","","","","","",""
"image-selector-fb","338","1117329","0.0-41.57-0.57","null","pics2/SW6.jpg,pics2/FR3.jpg","","","","","","","false","null","","","noS.png","","",""
"image-slider-2AFC","339","1120109","0.0-41.57-1.57","2776","","","","-49","","","","","","","","sizeS.png","2049","-49",""
"html-keyboard-response","340","1120969","0.0-41.57-2.57","null","","","","","","","null","","","","","","","",""
"image-selector-fb","341","1123990","0.0-41.58-0.58","null","pics2/FR4.jpg,pics2/SA4.jpg","","","","","","","false","null","","","noS.png","","",""
"image-slider-2AFC","342","1128090","0.0-41.58-1.58","4097","","","","26","","","","","","","","sizeS.png","2542","26",""
"html-keyboard-response","343","1128959","0.0-41.58-2.58","null","","","","","","","null","","","","","","","",""
"image-selector-fb","344","1130623","0.0-41.59-0.59","1152","pics2/FR6.jpg,pics2/VE5.jpg","","","","","","","true","1","","","sizeS.png","","",""
"image-slider-2AFC","345","1135631","0.0-41.59-1.59","null","","","","null","","","","","","","","sizeS.png","4162","89",""
"html-keyboard-response","346","1136500","0.0-41.59-2.59","null","","","","","","","null","","","","","","","",""
"image-selector-fb","347","1138960","0.0-41.60-0.60","1944","pics2/FR3.jpg,pics2/SW6.jpg","","","","","","","true","1","","","sizeS.png","","",""
"image-slider-2AFC","348","1140752","0.0-41.60-1.60","1788","","","","43","","","","","","","","heartS.png","1179","43",""
"html-keyboard-response","349","1141619","0.0-41.60-2.60","null","","","","","","","null","","","","","","","",""
"image-selector-fb","350","1143965","0.0-41.61-0.61","1838","pics2/SW6.jpg,pics2/VE2.jpg","","","","","","","false","0","","","heartS.png","","",""
"image-slider-2AFC","351","1146703","0.0-41.61-1.61","2735","","","","-43","","","","","","","","heartS.png","2155","-43",""
"html-keyboard-response","352","1147564","0.0-41.61-2.61","null","","","","","","","null","","","","","","","",""
"image-selector-fb","353","1149048","0.0-41.62-0.62","975","pics2/FR5.jpg,pics2/SW4.jpg","","","","","","","true","1","","","heartS.png","","",""
"image-slider-2AFC","354","1151114","0.0-41.62-1.62","2063","","","","53","","","","","","","","sizeS.png","1292","53",""
"html-keyboard-response","355","1151880","0.0-41.62-2.62","null","","","","","","","null","","","","","","","",""
"image-selector-fb","356","1153510","0.0-41.63-0.63","1119","pics2/VE5.jpg,pics2/VE2.jpg","","","","","","","true","1","","","heartS.png","","",""
"image-slider-2AFC","357","1155953","0.0-41.63-1.63","2439","","","","36","","","","","","","","sizeS.png","1572","36",""
"html-keyboard-response","358","1156670","0.0-41.63-2.63","null","","","","","","","null","","","","","","","",""
"image-selector-fb","359","1159696","0.0-41.64-0.64","null","pics2/SW6.jpg,pics2/SW4.jpg","","","","","","","false","null","","","noS.png","","",""
"image-slider-2AFC","360","1162949","0.0-41.64-1.64","3250","","","","50","","","","","","","","heartS.png","2541","50",""
"html-keyboard-response","361","1163760","0.0-41.64-2.64","null","","","","","","","null","","","","","","","",""
"image-selector-fb","362","1165259","0.0-41.65-0.65","987","pics2/FR4.jpg,pics2/FR6.jpg","","","","","","","false","0","","","heartS.png","","",""
"image-slider-2AFC","363","1167604","0.0-41.65-1.65","2342","","","","34","","","","","","","","sizeS.png","1475","34",""
"html-keyboard-response","364","1168317","0.0-41.65-2.65","null","","","","","","","null","","","","","","","",""
"pavlovia","365","1168354","0.0-42.0","","","","","","","","","","","","","","","",""
"html-keyboard-response","366","1173362","0.0-43.0","null","<div style='width: 700px;'> <font size=6><b>SHORT BREAK</font></b><br><br><i> Please wait 5 seconds to continue</i></div> ","","","","","","null","","","","","","","",""
"pavlovia","367","1173365","0.0-44.0","","","","","","","","","","","","","","","",""
"html-button-response","368","1249904","0.0-45.0","76536","<div style='width: 700px;'> <font size=6><b>BLOCK 2</font></b><br><br>Press the button whenever you feel ready to start the second block (there are 3 in total)</div>","0","","","","","","","","","","","","",""
"image-selector-fb","369","1252920","0.0-46.0-0.0","null","pics2/VE2.jpg,pics2/SA4.jpg","","","","","","","false","null","","","noS.png","","",""
"image-slider-2AFC","370","1257016","0.0-46.0-1.0","4092","","","","43","","","","","","","","sizeS.png","3511","43",""
"html-keyboard-response","371","1257780","0.0-46.0-2.0","null","","","","","","","null","","","","","","","",""
"image-selector-fb","372","1260271","0.0-46.1-0.1","1977","pics2/FR6.jpg,pics2/VE2.jpg","","","","","","","true","1","","","sizeS.png","","",""
"image-slider-2AFC","373","1263844","0.0-46.1-1.1","3568","","","","28","","","","","","","","sizeS.png","3070","28",""
"html-keyboard-response","374","1264610","0.0-46.1-2.1","null","","","","","","","null","","","","","","","",""
"image-selector-fb","375","1266127","0.0-46.2-0.2","1002","pics2/VE2.jpg,pics2/VE5.jpg","","","","","","","true","1","","","sizeS.png","","",""
"image-slider-2AFC","376","1268478","0.0-46.2-1.2","2348","","","","27","","","","","","","","sizeS.png","1452","27",""
"html-keyboard-response","377","1269289","0.0-46.2-2.2","null","","","","","","","null","","","","","","","",""
"image-selector-fb","378","1270765","0.0-46.3-0.3","965","pics2/FR6.jpg,pics2/VE3.jpg","","","","","","","true","1","","","heartS.png","","",""
"image-slider-2AFC","379","1273193","0.0-46.3-1.3","2425","","","","29","","","","","","","","heartS.png","1746","29",""
"html-keyboard-response","380","1273951","0.0-46.3-2.3","null","","","","","","","null","","","","","","","",""
"image-selector-fb","381","1275382","0.0-46.4-0.4","919","pics2/FR1.jpg,pics2/FR2.jpg","","","","","","","false","0","","","heartS.png","","",""
"image-slider-2AFC","382","1277148","0.0-46.4-1.4","1762","","","","-31","","","","","","","","sizeS.png","1239","-31",""
"html-keyboard-response","383","1278016","0.0-46.4-2.4","null","","","","","","","null","","","","","","","",""
"image-selector-fb","384","1279417","0.0-46.5-0.5","889","pics2/VE5.jpg,pics2/SA4.jpg","","","","","","","true","1","","","sizeS.png","","",""
"image-slider-2AFC","385","1281929","0.0-46.5-1.5","2508","","","","57","","","","","","","","heartS.png","1798","57",""
"html-keyboard-response","386","1282639","0.0-46.5-2.5","null","","","","","","","null","","","","","","","",""
"image-selector-fb","387","1285289","0.0-46.6-0.6","2140","pics2/FR3.jpg,pics2/FR6.jpg","","","","","","","false","0","","","sizeS.png","","",""
"image-slider-2AFC","388","1287508","0.0-46.6-1.6","2216","","","","-36","","","","","","","","heartS.png","1295","-36",""
"html-keyboard-response","389","1288229","0.0-46.6-2.6","null","","","","","","","null","","","","","","","",""
"image-selector-fb","390","1289760","0.0-46.7-0.7","1018","pics2/SA4.jpg,pics2/FR4.jpg","","","","","","","true","1","","","heartS.png","","",""
"image-slider-2AFC","391","1292123","0.0-46.7-1.7","2360","","","","68","","","","","","","","heartS.png","1555","68",""
"html-keyboard-response","392","1292840","0.0-46.7-2.7","null","","","","","","","null","","","","","","","",""
"image-selector-fb","393","1295081","0.0-46.8-0.8","1730","pics2/SA4.jpg,pics2/VE5.jpg","","","","","","","false","0","","","heartS.png","","",""
"image-slider-2AFC","394","1297318","0.0-46.8-1.8","2234","","","","-32","","","","","","","","heartS.png","1574","-32",""
"html-keyboard-response","395","1298131","0.0-46.8-2.8","null","","","","","","","null","","","","","","","",""
"image-selector-fb","396","1301150","0.0-46.9-0.9","null","pics2/FR6.jpg,pics2/VE3.jpg","","","","","","","false","null","","","noS.png","","",""
"image-slider-2AFC","397","1305261","0.0-46.9-1.9","4108","","","","53","","","","","","","","heartS.png","3222","53",""
"html-keyboard-response","398","1306131","0.0-46.9-2.9","null","","","","","","","null","","","","","","","",""
"image-selector-fb","399","1309141","0.0-46.10-0.10","null","pics2/VE2.jpg,pics2/FR1.jpg","","","","","","","false","null","","","noS.png","","",""
"image-slider-2AFC","400","1312296","0.0-46.10-1.10","3151","","","","53","","","","","","","","sizeS.png","2442","53",""
"html-keyboard-response","401","1313108","0.0-46.10-2.10","null","","","","","","","null","","","","","","","",""
"image-selector-fb","402","1316121","0.0-46.11-0.11","null","pics2/SW6.jpg,pics2/FR4.jpg","","","","","","","false","null","","","noS.png","","",""
"image-slider-2AFC","403","1318435","0.0-46.11-1.11","2309","","","","54","","","","","","","","heartS.png","1547","54",""
"html-keyboard-response","404","1319250","0.0-46.11-2.11","null","","","","","","","null","","","","","","","",""
"image-selector-fb","405","1322270","0.0-46.12-0.12","null","pics2/FR6.jpg,pics2/FR4.jpg","","","","","","","false","null","","","noS.png","","",""
"image-slider-2AFC","406","1324389","0.0-46.12-1.12","2116","","","","52","","","","","","","","heartS.png","1311","52",""
"html-keyboard-response","407","1325208","0.0-46.12-2.12","null","","","","","","","null","","","","","","","",""
"image-selector-fb","408","1328237","0.0-46.13-0.13","null","pics2/FR5.jpg,pics2/VE5.jpg","","","","","","","false","null","","","noS.png","","",""
"image-slider-2AFC","409","1332086","0.0-46.13-1.13","3845","","","","84","","","","","","","","heartS.png","3225","84",""
"html-keyboard-response","410","1332950","0.0-46.13-2.13","null","","","","","","","null","","","","","","","",""
"image-selector-fb","411","1335971","0.0-46.14-0.14","null","pics2/FR6.jpg,pics2/SW4.jpg","","","","","","","false","null","","","noS.png","","",""
"image-slider-2AFC","412","1337862","0.0-46.14-1.14","1887","","","","40","","","","","","","","heartS.png","1238","40",""
"html-keyboard-response","413","1338720","0.0-46.14-2.14","null","","","","","","","null","","","","","","","",""
"image-selector-fb","414","1340720","0.0-46.15-0.15","1489","pics2/FR1.jpg,pics2/FR3.jpg","","","","","","","true","1","","","heartS.png","","",""
"image-slider-2AFC","415","1343198","0.0-46.15-1.15","2474","","","","48","","","","","","","","heartS.png","1705","48",""
"html-keyboard-response","416","1344060","0.0-46.15-2.15","null","","","","","","","null","","","","","","","",""
"image-selector-fb","417","1345612","0.0-46.16-0.16","1042","pics2/SA4.jpg,pics2/FR2.jpg","","","","","","","false","0","","","heartS.png","","",""
"image-slider-2AFC","418","1348038","0.0-46.16-1.16","2423","","","","-85","","","","","","","","sizeS.png","1448","-85",""
"html-keyboard-response","419","1348844","0.0-46.16-2.16","null","","","","","","","null","","","","","","","",""
"image-selector-fb","420","1350495","0.0-46.17-0.17","1140","pics2/SW6.jpg,pics2/FR2.jpg","","","","","","","false","0","","","heartS.png","","",""
"image-slider-2AFC","421","1352862","0.0-46.17-1.17","2362","","","","-42","","","","","","","","sizeS.png","1783","-42",""
"html-keyboard-response","422","1353622","0.0-46.17-2.17","null","","","","","","","null","","","","","","","",""
"image-selector-fb","423","1355429","0.0-46.18-0.18","1297","pics2/VE2.jpg,pics2/FR2.jpg","","","","","","","true","1","","","heartS.png","","",""
"image-slider-2AFC","424","1357723","0.0-46.18-1.18","2291","","","","54","","","","","","","","heartS.png","1504","54",""
"html-keyboard-response","425","1358439","0.0-46.18-2.18","null","","","","","","","null","","","","","","","",""
"image-selector-fb","426","1360557","0.0-46.19-0.19","1610","pics2/FR5.jpg,pics2/FR3.jpg","","","","","","","true","1","","","heartS.png","","",""
"image-slider-2AFC","427","1362962","0.0-46.19-1.19","2401","","","","75","","","","","","","","heartS.png","1531","75",""
"html-keyboard-response","428","1363765","0.0-46.19-2.19","null","","","","","","","null","","","","","","","",""
"image-selector-fb","429","1365140","0.0-46.20-0.20","865","pics2/SA4.jpg,pics2/FR3.jpg","","","","","","","false","0","","","heartS.png","","",""
"image-slider-2AFC","430","1367990","0.0-46.20-1.20","2847","","","","-35","","","","","","","","heartS.png","2267","-35",""
"html-keyboard-response","431","1368858","0.0-46.20-2.20","null","","","","","","","null","","","","","","","",""
"image-selector-fb","432","1370579","0.0-46.21-0.21","1208","pics2/VE5.jpg,pics2/SW4.jpg","","","","","","","true","1","","","heartS.png","","",""
"image-slider-2AFC","433","1372767","0.0-46.21-1.21","2182","","","","19","","","","","","","","heartS.png","1501","19",""
"html-keyboard-response","434","1373479","0.0-46.21-2.21","null","","","","","","","null","","","","","","","",""
"image-selector-fb","435","1376500","0.0-46.22-0.22","null","pics2/SW6.jpg,pics2/VE2.jpg","","","","","","","false","null","","","noS.png","","",""
"image-slider-2AFC","436","1378662","0.0-46.22-1.22","2159","","","","-51","","","","","","","","sizeS.png","1313","-51",""
"html-keyboard-response","437","1379380","0.0-46.22-2.22","null","","","","","","","null","","","","","","","",""
"image-selector-fb","438","1380767","0.0-46.23-0.23","873","pics2/SA4.jpg,pics2/SW4.jpg","","","","","","","false","0","","","heartS.png","","",""
"image-slider-2AFC","439","1382788","0.0-46.23-1.23","2016","","","","-35","","","","","","","","sizeS.png","1415","-35",""
"html-keyboard-response","440","1383500","0.0-46.23-2.23","null","","","","","","","null","","","","","","","",""
"image-selector-fb","441","1384949","0.0-46.24-0.24","940","pics2/SW6.jpg,pics2/FR3.jpg","","","","","","","false","0","","","heartS.png","","",""
"image-slider-2AFC","442","1386656","0.0-46.24-1.24","1703","","","","-42","","","","","","","","heartS.png","1104","-42",""
"html-keyboard-response","443","1387519","0.0-46.24-2.24","null","","","","","","","null","","","","","","","",""
"image-selector-fb","444","1389166","0.0-46.25-0.25","1142","pics2/VE3.jpg,pics2/VE5.jpg","","","","","","","true","1","","","sizeS.png","","",""
"image-slider-2AFC","445","1391196","0.0-46.25-1.25","2027","","","","57","","","","","","","","heartS.png","1446","57",""
"html-keyboard-response","446","1392009","0.0-46.25-2.25","null","","","","","","","null","","","","","","","",""
"image-selector-fb","447","1393391","0.0-46.26-0.26","875","pics2/FR1.jpg,pics2/SA4.jpg","","","","","","","true","1","","","sizeS.png","","",""
"image-slider-2AFC","448","1395251","0.0-46.26-1.26","1857","","","","49","","","","","","","","sizeS.png","1031","49",""
"html-keyboard-response","449","1396120","0.0-46.26-2.26","null","","","","","","","null","","","","","","","",""
"image-selector-fb","450","1397907","0.0-46.27-0.27","1276","pics2/FR2.jpg,pics2/VE3.jpg","","","","","","","false","0","","","sizeS.png","","",""
"image-slider-2AFC","451","1399721","0.0-46.27-1.27","1811","","","","-47","","","","","","","","heartS.png","1125","-47",""
"html-keyboard-response","452","1400440","0.0-46.27-2.27","null","","","","","","","null","","","","","","","",""
"image-selector-fb","453","1403457","0.0-46.28-0.28","null","pics2/SW6.jpg,pics2/FR6.jpg","","","","","","","false","null","","","noS.png","","",""
"image-slider-2AFC","454","1407401","0.0-46.28-1.28","3940","","","","-88","","","","","","","","sizeS.png","3153","-88",""
"html-keyboard-response","455","1408170","0.0-46.28-2.28","null","","","","","","","null","","","","","","","",""
"image-selector-fb","456","1411189","0.0-46.29-0.29","null","pics2/FR4.jpg,pics2/FR2.jpg","","","","","","","false","null","","","noS.png","","",""
"image-slider-2AFC","457","1413768","0.0-46.29-1.29","2577","","","","-36","","","","","","","","heartS.png","2046","-36",""
"html-keyboard-response","458","1414639","0.0-46.29-2.29","null","","","","","","","null","","","","","","","",""
"image-selector-fb","459","1418474","0.0-46.30-0.30","3329","pics2/FR1.jpg,pics2/FR4.jpg","","","","","","","false","0","","","sizeS.png","","",""
"image-slider-2AFC","460","1421083","0.0-46.30-1.30","2605","","","","42","","","","","","","","heartS.png","1975","42",""
"html-keyboard-response","461","1421850","0.0-46.30-2.30","null","","","","","","","null","","","","","","","",""
"image-selector-fb","462","1424869","0.0-46.31-0.31","null","pics2/FR6.jpg,pics2/VE5.jpg","","","","","","","false","null","","","noS.png","","",""
"image-slider-2AFC","463","1427551","0.0-46.31-1.31","2678","","","","72","","","","","","","","sizeS.png","2042","72",""
"html-keyboard-response","464","1428259","0.0-46.31-2.31","null","","","","","","","null","","","","","","","",""
"image-selector-fb","465","1431280","0.0-46.32-0.32","null","pics2/VE3.jpg,pics2/FR1.jpg","","","","","","","false","null","","","noS.png","","",""
"image-slider-2AFC","466","1436286","0.0-46.32-1.32","null","","","","null","","","","","","","","heartS.png","","",""
"html-keyboard-response","467","1437046","0.0-46.32-2.32","null","","","","","","","null","","","","","","","",""
"image-selector-fb","468","1438606","0.0-46.33-0.33","1050","pics2/VE2.jpg,pics2/FR3.jpg","","","","","","","true","1","","","heartS.png","","",""
"image-slider-2AFC","469","1440858","0.0-46.33-1.33","2249","","","","50","","","","","","","","sizeS.png","1404","50",""
"html-keyboard-response","470","1441631","0.0-46.33-2.33","null","","","","","","","null","","","","","","","",""
"image-selector-fb","471","1444649","0.0-46.34-0.34","null","pics2/VE3.jpg,pics2/SA4.jpg","","","","","","","false","null","","","noS.png","","",""
"image-slider-2AFC","472","1447186","0.0-46.34-1.34","2535","","","","44","","","","","","","","heartS.png","1748","44",""
"html-keyboard-response","473","1448048","0.0-46.34-2.34","null","","","","","","","null","","","","","","","",""
"image-selector-fb","474","1451165","0.0-46.35-0.35","2611","pics2/FR4.jpg,pics2/VE5.jpg","","","","","","","false","0","","","sizeS.png","","",""
"image-slider-2AFC","475","1453625","0.0-46.35-1.35","2456","","","","-65","","","","","","","","heartS.png","1586","-65",""
"html-keyboard-response","476","1454483","0.0-46.35-2.35","null","","","","","","","null","","","","","","","",""
"image-selector-fb","477","1456840","0.0-46.36-0.36","1846","pics2/FR2.jpg,pics2/FR5.jpg","","","","","","","false","0","","","sizeS.png","","",""
"image-slider-2AFC","478","1459031","0.0-46.36-1.36","2187","","","","-29","","","","","","","","sizeS.png","1481","-29",""
"html-keyboard-response","479","1459799","0.0-46.36-2.36","null","","","","","","","null","","","","","","","",""
"image-selector-fb","480","1462001","0.0-46.37-0.37","1687","pics2/FR6.jpg,pics2/FR2.jpg","","","","","","","true","1","","","heartS.png","","",""
"image-slider-2AFC","481","1464052","0.0-46.37-1.37","2046","","","","29","","","","","","","","heartS.png","1491","29",""
"html-keyboard-response","482","1464868","0.0-46.37-2.37","null","","","","","","","null","","","","","","","",""
"image-selector-fb","483","1467558","0.0-46.38-0.38","2179","pics2/SA4.jpg,pics2/VE3.jpg","","","","","","","false","0","","","heartS.png","","",""
"image-slider-2AFC","484","1469599","0.0-46.38-1.38","2036","","","","-41","","","","","","","","sizeS.png","1373","-41",""
"html-keyboard-response","485","1470318","0.0-46.38-2.38","null","","","","","","","null","","","","","","","",""
"image-selector-fb","486","1471756","0.0-46.39-0.39","932","pics2/VE3.jpg,pics2/FR2.jpg","","","","","","","true","1","","","heartS.png","","",""
"image-slider-2AFC","487","1473578","0.0-46.39-1.39","1818","","","","46","","","","","","","","sizeS.png","1030","46",""
"html-keyboard-response","488","1474450","0.0-46.39-2.39","null","","","","","","","null","","","","","","","",""
"image-selector-fb","489","1477467","0.0-46.40-0.40","null","pics2/FR3.jpg,pics2/FR2.jpg","","","","","","","false","null","","","noS.png","","",""
"image-slider-2AFC","490","1480283","0.0-46.40-1.40","2812","","","","50","","","","","","","","sizeS.png","2064","50",""
"html-keyboard-response","491","1481099","0.0-46.40-2.40","null","","","","","","","null","","","","","","","",""
"image-selector-fb","492","1484119","0.0-46.41-0.41","null","pics2/FR6.jpg,pics2/FR1.jpg","","","","","","","false","null","","","noS.png","","",""
"image-slider-2AFC","493","1487231","0.0-46.41-1.41","3109","","","","52","","","","","","","","sizeS.png","1681,2489","2,52",""
"html-keyboard-response","494","1488099","0.0-46.41-2.41","null","","","","","","","null","","","","","","","",""
"image-selector-fb","495","1490756","0.0-46.42-0.42","2151","pics2/FR6.jpg,pics2/SA4.jpg","","","","","","","true","1","","","sizeS.png","","",""
"image-slider-2AFC","496","1492816","0.0-46.42-1.42","2056","","","","48","","","","","","","","heartS.png","1416","48",""
"html-keyboard-response","497","1493630","0.0-46.42-2.42","null","","","","","","","null","","","","","","","",""
"image-selector-fb","498","1496646","0.0-46.43-0.43","null","pics2/VE2.jpg,pics2/VE3.jpg","","","","","","","false","null","","","noS.png","","",""
"image-slider-2AFC","499","1498734","0.0-46.43-1.43","2084","","","","41","","","","","","","","heartS.png","1503","41",""
"html-keyboard-response","500","1499551","0.0-46.43-2.43","null","","","","","","","null","","","","","","","",""
"image-selector-fb","501","1502499","0.0-46.44-0.44","2439","pics2/VE3.jpg,pics2/FR5.jpg","","","","","","","true","1","","","sizeS.png","","",""
"image-slider-2AFC","502","1504779","0.0-46.44-1.44","2277","","","","-30","","","","","","","","heartS.png","1746","-30",""
"html-keyboard-response","503","1505648","0.0-46.44-2.44","null","","","","","","","null","","","","","","","",""
"image-selector-fb","504","1507650","0.0-46.45-0.45","1491","pics2/FR5.jpg,pics2/FR6.jpg","","","","","","","true","1","","","heartS.png","","",""
"image-slider-2AFC","505","1509751","0.0-46.45-1.45","2097","","","","30","","","","","","","","sizeS.png","1480","30",""
"html-keyboard-response","506","1510612","0.0-46.45-2.45","null","","","","","","","null","","","","","","","",""
"image-selector-fb","507","1512617","0.0-46.46-0.46","1497","pics2/FR1.jpg,pics2/FR6.jpg","","","","","","","false","0","","","sizeS.png","","",""
"image-slider-2AFC","508","1514252","0.0-46.46-1.46","1632","","","","-32","","","","","","","","sizeS.png","1106","-32",""
"html-keyboard-response","509","1514971","0.0-46.46-2.46","null","","","","","","","null","","","","","","","",""
"image-selector-fb","510","1516827","0.0-46.47-0.47","1344","pics2/FR1.jpg,pics2/SW4.jpg","","","","","","","true","1","","","sizeS.png","","",""
"image-slider-2AFC","511","1518571","0.0-46.47-1.47","1740","","","","38","","","","","","","","sizeS.png","955","38",""
"html-keyboard-response","512","1519380","0.0-46.47-2.47","null","","","","","","","null","","","","","","","",""
"image-selector-fb","513","1522400","0.0-46.48-0.48","null","pics2/FR3.jpg,pics2/VE2.jpg","","","","","","","false","null","","","noS.png","","",""
"image-slider-2AFC","514","1525818","0.0-46.48-1.48","3415","","","","-38","","","","","","","","heartS.png","2952","-38",""
"html-keyboard-response","515","1526540","0.0-46.48-2.48","null","","","","","","","null","","","","","","","",""
"image-selector-fb","516","1529549","0.0-46.49-0.49","null","pics2/FR6.jpg,pics2/SA4.jpg","","","","","","","false","null","","","noS.png","","",""
"image-slider-2AFC","517","1532127","0.0-46.49-1.49","2574","","","","43","","","","","","","","sizeS.png","1994","43",""
"html-keyboard-response","518","1532941","0.0-46.49-2.49","null","","","","","","","null","","","","","","","",""
"image-selector-fb","519","1536302","0.0-46.50-0.50","2845","pics2/VE2.jpg,pics2/FR5.jpg","","","","","","","true","1","","","sizeS.png","","",""
"image-slider-2AFC","520","1538153","0.0-46.50-1.50","1848","","","","39","","","","","","","","sizeS.png","1288","39",""
"html-keyboard-response","521","1538864","0.0-46.50-2.50","null","","","","","","","null","","","","","","","",""
"image-selector-fb","522","1541880","0.0-46.51-0.51","null","pics2/SW6.jpg,pics2/FR5.jpg","","","","","","","false","null","","","noS.png","","",""
"image-slider-2AFC","523","1545139","0.0-46.51-1.51","3258","","","","-30","","","","","","","","heartS.png","2825","-30",""
"html-keyboard-response","524","1545860","0.0-46.51-2.51","null","","","","","","","null","","","","","","","",""
"image-selector-fb","525","1547856","0.0-46.52-0.52","1491","pics2/FR3.jpg,pics2/FR1.jpg","","","","","","","true","1","","","sizeS.png","","",""
"image-slider-2AFC","526","1549718","0.0-46.52-1.52","1859","","","","49","","","","","","","","sizeS.png","1217","49",""
"html-keyboard-response","527","1550430","0.0-46.52-2.52","null","","","","","","","null","","","","","","","",""
"image-selector-fb","528","1552002","0.0-46.53-0.53","1065","pics2/FR2.jpg,pics2/FR6.jpg","","","","","","","false","0","","","sizeS.png","","",""
"image-slider-2AFC","529","1553979","0.0-46.53-1.53","1974","","","","-36","","","","","","","","heartS.png","1377","-36",""
"html-keyboard-response","530","1554796","0.0-46.53-2.53","null","","","","","","","null","","","","","","","",""
"image-selector-fb","531","1556266","0.0-46.54-0.54","962","pics2/FR2.jpg,pics2/SA4.jpg","","","","","","","true","1","","","sizeS.png","","",""
"image-slider-2AFC","532","1558745","0.0-46.54-1.54","2476","","","","41","","","","","","","","heartS.png","1333","41",""
"html-keyboard-response","533","1559509","0.0-46.54-2.54","null","","","","","","","null","","","","","","","",""
"image-selector-fb","534","1561107","0.0-46.55-0.55","1093","pics2/SW6.jpg,pics2/FR1.jpg","","","","","","","false","0","","","heartS.png","","",""
"image-slider-2AFC","535","1562742","0.0-46.55-1.55","1633","","","","-35","","","","","","","","heartS.png","1135","-35",""
"html-keyboard-response","536","1563560","0.0-46.55-2.55","null","","","","","","","null","","","","","","","",""
"image-selector-fb","537","1566579","0.0-46.56-0.56","null","pics2/FR1.jpg,pics2/SW4.jpg","","","","","","","false","null","","","noS.png","","",""
"image-slider-2AFC","538","1568962","0.0-46.56-1.56","2379","","","","48","","","","","","","","heartS.png","1558","48",""
"html-keyboard-response","539","1569824","0.0-46.56-2.56","null","","","","","","","null","","","","","","","",""
"image-selector-fb","540","1572840","0.0-46.57-0.57","null","pics2/VE3.jpg,pics2/FR2.jpg","","","","","","","false","null","","","noS.png","","",""
"image-slider-2AFC","541","1575126","0.0-46.57-1.57","2283","","","","46","","","","","","","","sizeS.png","1584","46",""
"html-keyboard-response","542","1575982","0.0-46.57-2.57","null","","","","","","","null","","","","","","","",""
"image-selector-fb","543","1579002","0.0-46.58-0.58","null","pics2/FR5.jpg,pics2/SA4.jpg","","","","","","","false","null","","","noS.png","","",""
"image-slider-2AFC","544","1580903","0.0-46.58-1.58","1896","","","","36","","","","","","","","heartS.png","1187","36",""
"html-keyboard-response","545","1581719","0.0-46.58-2.58","null","","","","","","","null","","","","","","","",""
"image-selector-fb","546","1584740","0.0-46.59-0.59","null","pics2/FR3.jpg,pics2/FR1.jpg","","","","","","","false","null","","","noS.png","","",""
"image-slider-2AFC","547","1586672","0.0-46.59-1.59","1929","","","","-35","","","","","","","","heartS.png","1239","-35",""
"html-keyboard-response","548","1587438","0.0-46.59-2.59","null","","","","","","","null","","","","","","","",""
"image-selector-fb","549","1589125","0.0-46.60-0.60","1180","pics2/SW6.jpg,pics2/SA4.jpg","","","","","","","true","1","","","sizeS.png","","",""
"image-slider-2AFC","550","1592245","0.0-46.60-1.60","3116","","","","37","","","","","","","","sizeS.png","2390","37",""
"html-keyboard-response","551","1593008","0.0-46.60-2.60","null","","","","","","","null","","","","","","","",""
"image-selector-fb","552","1595217","0.0-46.61-0.61","1699","pics2/FR4.jpg,pics2/SW4.jpg","","","","","","","true","1","","","sizeS.png","","",""
"image-slider-2AFC","553","1596883","0.0-46.61-1.61","1663","","","","33","","","","","","","","sizeS.png","1143","33",""
"html-keyboard-response","554","1597750","0.0-46.61-2.61","null","","","","","","","null","","","","","","","",""
"image-selector-fb","555","1599782","0.0-46.62-0.62","1518","pics2/SW4.jpg,pics2/FR1.jpg","","","","","","","true","1","","","heartS.png","","",""
"image-slider-2AFC","556","1601992","0.0-46.62-1.62","2206","","","","30","","","","","","","","sizeS.png","1703","30",""
"html-keyboard-response","557","1602859","0.0-46.62-2.62","null","","","","","","","null","","","","","","","",""
"image-selector-fb","558","1604359","0.0-46.63-0.63","991","pics2/SA4.jpg,pics2/VE2.jpg","","","","","","","false","0","","","heartS.png","","",""
"image-slider-2AFC","559","1606217","0.0-46.63-1.63","1853","","","","-35","","","","","","","","heartS.png","1356","-35",""
"html-keyboard-response","560","1606979","0.0-46.63-2.63","null","","","","","","","null","","","","","","","",""
"image-selector-fb","561","1610000","0.0-46.64-0.64","null","pics2/SW6.jpg,pics2/VE5.jpg","","","","","","","false","null","","","noS.png","","",""
"image-slider-2AFC","562","1613502","0.0-46.64-1.64","3500","","","","70","","","","","","","","sizeS.png","2021,2888","-2,70",""
"html-keyboard-response","563","1614365","0.0-46.64-2.64","null","","","","","","","null","","","","","","","",""
"image-selector-fb","564","1615866","0.0-46.65-0.65","993","pics2/FR1.jpg,pics2/VE2.jpg","","","","","","","false","0","","","sizeS.png","","",""
"image-slider-2AFC","565","1618494","0.0-46.65-1.65","2625","","","","-65","","","","","","","","heartS.png","1913","-65",""
"html-keyboard-response","566","1619259","0.0-46.65-2.65","null","","","","","","","null","","","","","","","",""
"pavlovia","567","1619313","0.0-47.0","","","","","","","","","","","","","","","",""
"html-keyboard-response","568","1624320","0.0-48.0","null","<div style='width: 700px;'> <font size=6><b>SHORT BREAK</font></b><br><br><i> Please wait 5 seconds to continue</i></div> ","","","","","","null","","","","","","","",""
"pavlovia","569","1624323","0.0-49.0","","","","","","","","","","","","","","","",""
"html-button-response","570","1745843","0.0-50.0","121518","<div style='width: 700px;'> <font size=6><b>BLOCK 3</font></b><br><br>Press the button whenever you feel ready to start the third and final block</div>","0","","","","","","","","","","","","",""
"image-selector-fb","571","1748859","0.0-51.0-0.0","null","pics2/FR4.jpg,pics2/SW4.jpg","","","","","","","false","null","","","noS.png","","",""
"image-slider-2AFC","572","1750401","0.0-51.0-1.0","1538","","","","-32","","","","","","","","heartS.png","1094","-32",""
"html-keyboard-response","573","1751119","0.0-51.0-2.0","null","","","","","","","null","","","","","","","",""
"image-selector-fb","574","1754138","0.0-51.1-0.1","null","pics2/FR3.jpg,pics2/SA4.jpg","","","","","","","false","null","","","noS.png","","",""
"image-slider-2AFC","575","1759148","0.0-51.1-1.1","null","","","","null","","","","","","","","heartS.png","","",""
"html-keyboard-response","576","1759968","0.0-51.1-2.1","null","","","","","","","null","","","","","","","",""
"image-selector-fb","577","1762979","0.0-51.2-0.2","null","pics2/VE3.jpg,pics2/SW4.jpg","","","","","","","false","null","","","noS.png","","",""
"image-slider-2AFC","578","1765024","0.0-51.2-1.2","2040","","","","36","","","","","","","","sizeS.png","1461","36",""
"html-keyboard-response","579","1765838","0.0-51.2-2.2","null","","","","","","","null","","","","","","","",""
"image-selector-fb","580","1767453","0.0-51.3-0.3","1102","pics2/VE5.jpg,pics2/FR6.jpg","","","","","","","true","1","","","heartS.png","","",""
"image-slider-2AFC","581","1769681","0.0-51.3-1.3","2224","","","","37","","","","","","","","heartS.png","1575","37",""
"html-keyboard-response","582","1770398","0.0-51.3-2.3","null","","","","","","","null","","","","","","","",""
"image-selector-fb","583","1773410","0.0-51.4-0.4","null","pics2/FR5.jpg,pics2/FR1.jpg","","","","","","","false","null","","","noS.png","","",""
"image-slider-2AFC","584","1778419","0.0-51.4-1.4","null","","","","null","","","","","","","","heartS.png","","",""
"html-keyboard-response","585","1779139","0.0-51.4-2.4","null","","","","","","","null","","","","","","","",""
"image-selector-fb","586","1782158","0.0-51.5-0.5","null","pics2/FR5.jpg,pics2/FR3.jpg","","","","","","","false","null","","","noS.png","","",""
"image-slider-2AFC","587","1784611","0.0-51.5-1.5","2450","","","","49","","","","","","","","heartS.png","1357","49",""
"html-keyboard-response","588","1785325","0.0-51.5-2.5","null","","","","","","","null","","","","","","","",""
"image-selector-fb","589","1787703","0.0-51.6-0.6","1871","pics2/FR3.jpg,pics2/VE3.jpg","","","","","","","true","1","","","sizeS.png","","",""
"image-slider-2AFC","590","1790203","0.0-51.6-1.6","2496","","","","51","","","","","","","","heartS.png","1641","51",""
"html-keyboard-response","591","1790968","0.0-51.6-2.6","null","","","","","","","null","","","","","","","",""
"image-selector-fb","592","1792816","0.0-51.7-0.7","1336","pics2/SW6.jpg,pics2/FR5.jpg","","","","","","","false","0","","","sizeS.png","","",""
"image-slider-2AFC","593","1795253","0.0-51.7-1.7","2434","","","","-64","","","","","","","","heartS.png","1628","-64",""
"html-keyboard-response","594","1795970","0.0-51.7-2.7","null","","","","","","","null","","","","","","","",""
"image-selector-fb","595","1797420","0.0-51.8-0.8","933","pics2/FR4.jpg,pics2/VE2.jpg","","","","","","","false","0","","","heartS.png","","",""
"image-slider-2AFC","596","1799308","0.0-51.8-1.8","1885","","","","-34","","","","","","","","heartS.png","1413","-34",""
"html-keyboard-response","597","1800179","0.0-51.8-2.8","null","","","","","","","null","","","","","","","",""
"image-selector-fb","598","1803200","0.0-51.9-0.9","null","pics2/VE5.jpg,pics2/FR2.jpg","","","","","","","false","null","","","noS.png","","",""
"image-slider-2AFC","599","1805557","0.0-51.9-1.9","2354","","","","45","","","","","","","","sizeS.png","1458","45",""
"html-keyboard-response","600","1806270","0.0-51.9-2.9","null","","","","","","","null","","","","","","","",""
"image-selector-fb","601","1807899","0.0-51.10-0.10","1123","pics2/VE3.jpg,pics2/SA4.jpg","","","","","","","true","1","","","sizeS.png","","",""
"image-slider-2AFC","602","1809799","0.0-51.10-1.10","1897","","","","72","","","","","","","","sizeS.png","1110","72",""
"html-keyboard-response","603","1810520","0.0-51.10-2.10","null","","","","","","","null","","","","","","","",""
"image-selector-fb","604","1811854","0.0-51.11-0.11","828","pics2/FR6.jpg,pics2/FR3.jpg","","","","","","","true","1","","","heartS.png","","",""
"image-slider-2AFC","605","1814040","0.0-51.11-1.11","2183","","","","47","","","","","","","","sizeS.png","1474","47",""
"html-keyboard-response","606","1814750","0.0-51.11-2.11","null","","","","","","","null","","","","","","","",""
"image-selector-fb","607","1817768","0.0-51.12-0.12","null","pics2/SW6.jpg,pics2/SA4.jpg","","","","","","","false","null","","","noS.png","","",""
"image-slider-2AFC","608","1819706","0.0-51.12-1.12","1935","","","","46","","","","","","","","sizeS.png","1169","46",""
"html-keyboard-response","609","1820417","0.0-51.12-2.12","null","","","","","","","null","","","","","","","",""
"image-selector-fb","610","1822250","0.0-51.13-0.13","1322","pics2/FR3.jpg,pics2/FR4.jpg","","","","","","","false","0","","","sizeS.png","","",""
"image-slider-2AFC","611","1825899","0.0-51.13-1.13","3646","","","","-36","","","","","","","","sizeS.png","2406","-36",""
"html-keyboard-response","612","1826619","0.0-51.13-2.13","null","","","","","","","null","","","","","","","",""
"image-selector-fb","613","1828601","0.0-51.14-0.14","1471","pics2/SW4.jpg,pics2/FR4.jpg","","","","","","","true","1","","","heartS.png","","",""
"image-slider-2AFC","614","1830802","0.0-51.14-1.14","2198","","","","-29","","","","","","","","sizeS.png","1579","-29",""
"html-keyboard-response","615","1831670","0.0-51.14-2.14","null","","","","","","","null","","","","","","","",""
"image-selector-fb","616","1833693","0.0-51.15-0.15","1508","pics2/FR2.jpg,pics2/SW6.jpg","","","","","","","false","0","","","sizeS.png","","",""
"image-slider-2AFC","617","1836037","0.0-51.15-1.15","2341","","","","56","","","","","","","","heartS.png","1533","56",""
"html-keyboard-response","618","1836799","0.0-51.15-2.15","null","","","","","","","null","","","","","","","",""
"image-selector-fb","619","1839829","0.0-51.16-0.16","null","pics2/FR6.jpg,pics2/FR5.jpg","","","","","","","false","null","","","noS.png","","",""
"image-slider-2AFC","620","1842328","0.0-51.16-1.16","2496","","","","48","","","","","","","","heartS.png","1836","48",""
"html-keyboard-response","621","1843049","0.0-51.16-2.16","null","","","","","","","null","","","","","","","",""
"image-selector-fb","622","1846070","0.0-51.17-0.17","null","pics2/VE5.jpg,pics2/SW4.jpg","","","","","","","false","null","","","noS.png","","",""
"image-slider-2AFC","623","1850046","0.0-51.17-1.17","3973","","","","58","","","","","","","","sizeS.png","3032","58",""
"html-keyboard-response","624","1850860","0.0-51.17-2.17","null","","","","","","","null","","","","","","","",""
"image-selector-fb","625","1853880","0.0-51.18-0.18","null","pics2/FR6.jpg,pics2/VE2.jpg","","","","","","","false","null","","","noS.png","","",""
"image-slider-2AFC","626","1857142","0.0-51.18-1.18","3258","","","","37","","","","","","","","sizeS.png","2510","37",""
"html-keyboard-response","627","1857859","0.0-51.18-2.18","null","","","","","","","null","","","","","","","",""
"image-selector-fb","628","1860880","0.0-51.19-0.19","null","pics2/FR4.jpg,pics2/FR1.jpg","","","","","","","false","null","","","noS.png","","",""
"image-slider-2AFC","629","1862606","0.0-51.19-1.19","1721","","","","-41","","","","","","","","sizeS.png","935","-41",""
"html-keyboard-response","630","1863469","0.0-51.19-2.19","null","","","","","","","null","","","","","","","",""
"image-selector-fb","631","1865309","0.0-51.20-0.20","1330","pics2/VE2.jpg,pics2/SA4.jpg","","","","","","","true","1","","","sizeS.png","","",""
"image-slider-2AFC","632","1867263","0.0-51.20-1.20","1950","","","","69","","","","","","","","heartS.png","1181","69",""
"html-keyboard-response","633","1867978","0.0-51.20-2.20","null","","","","","","","null","","","","","","","",""
"image-selector-fb","634","1869327","0.0-51.21-0.21","839","pics2/VE5.jpg,pics2/FR3.jpg","","","","","","","true","1","","","heartS.png","","",""
"image-slider-2AFC","635","1871019","0.0-51.21-1.21","1688","","","","69","","","","","","","","sizeS.png","1053","69",""
"html-keyboard-response","636","1871840","0.0-51.21-2.21","null","","","","","","","null","","","","","","","",""
"image-selector-fb","637","1873901","0.0-51.22-0.22","1550","pics2/FR5.jpg,pics2/FR2.jpg","","","","","","","true","1","","","heartS.png","","",""
"image-slider-2AFC","638","1876622","0.0-51.22-1.22","2718","","","","7","","","","","","","","sizeS.png","1912","7",""
"html-keyboard-response","639","1877434","0.0-51.22-2.22","null","","","","","","","null","","","","","","","",""
"image-selector-fb","640","1878765","0.0-51.23-0.23","821","pics2/SW6.jpg,pics2/VE3.jpg","","","","","","","true","1","","","heartS.png","","",""
"image-slider-2AFC","641","1880847","0.0-51.23-1.23","2077","","","","-60","","","","","","","","sizeS.png","1514","-60",""
"html-keyboard-response","642","1881609","0.0-51.23-2.23","null","","","","","","","null","","","","","","","",""
"image-selector-fb","643","1883097","0.0-51.24-0.24","974","pics2/VE3.jpg,pics2/FR1.jpg","","","","","","","true","1","","","sizeS.png","","",""
"image-slider-2AFC","644","1885106","0.0-51.24-1.24","2004","","","","38","","","","","","","","heartS.png","1239","38",""
"html-keyboard-response","645","1885972","0.0-51.24-2.24","null","","","","","","","null","","","","","","","",""
"image-selector-fb","646","1888990","0.0-51.25-0.25","null","pics2/FR5.jpg,pics2/VE3.jpg","","","","","","","false","null","","","noS.png","","",""
"image-slider-2AFC","647","1890658","0.0-51.25-1.25","1664","","","","56","","","","","","","","sizeS.png","1059","56",""
"html-keyboard-response","648","1891531","0.0-51.25-2.25","null","","","","","","","null","","","","","","","",""
"image-selector-fb","649","1894541","0.0-51.26-0.26","null","pics2/FR4.jpg,pics2/VE3.jpg","","","","","","","false","null","","","noS.png","","",""
"image-slider-2AFC","650","1897084","0.0-51.26-1.26","2539","","","","-37","","","","","","","","heartS.png","1918","-37",""
"html-keyboard-response","651","1897800","0.0-51.26-2.26","null","","","","","","","null","","","","","","","",""
"image-selector-fb","652","1899308","0.0-51.27-0.27","984","pics2/FR5.jpg,pics2/VE2.jpg","","","","","","","false","0","","","heartS.png","","",""
"image-slider-2AFC","653","1901268","0.0-51.27-1.27","1956","","","","39","","","","","","","","heartS.png","1296","39",""
"html-keyboard-response","654","1902039","0.0-51.27-2.27","null","","","","","","","null","","","","","","","",""
"image-selector-fb","655","1903323","0.0-51.28-0.28","779","pics2/VE5.jpg,pics2/FR4.jpg","","","","","","","true","1","","","heartS.png","","",""
"image-slider-2AFC","656","1905352","0.0-51.28-1.28","2026","","","","-32","","","","","","","","sizeS.png","1397","-32",""
"html-keyboard-response","657","1906069","0.0-51.28-2.28","null","","","","","","","null","","","","","","","",""
"image-selector-fb","658","1908635","0.0-51.29-0.29","2055","pics2/SW4.jpg,pics2/FR3.jpg","","","","","","","false","0","","","heartS.png","","",""
"image-slider-2AFC","659","1910032","0.0-51.29-1.29","1393","","","","-38","","","","","","","","sizeS.png","895","-38",""
"html-keyboard-response","660","1910748","0.0-51.29-2.29","null","","","","","","","null","","","","","","","",""
"image-selector-fb","661","1912176","0.0-51.30-0.30","920","pics2/VE5.jpg,pics2/FR2.jpg","","","","","","","true","1","","","heartS.png","","",""
"image-slider-2AFC","662","1914191","0.0-51.30-1.30","2012","","","","72","","","","","","","","heartS.png","1205","72",""
"html-keyboard-response","663","1914898","0.0-51.30-2.30","null","","","","","","","null","","","","","","","",""
"image-selector-fb","664","1916486","0.0-51.31-0.31","1071","pics2/VE3.jpg,pics2/FR4.jpg","","","","","","","true","1","","","sizeS.png","","",""
"image-slider-2AFC","665","1919606","0.0-51.31-1.31","3115","","","","71","","","","","","","","heartS.png","2280","71",""
"html-keyboard-response","666","1920418","0.0-51.31-2.31","null","","","","","","","null","","","","","","","",""
"image-selector-fb","667","1921685","0.0-51.32-0.32","759","pics2/FR5.jpg,pics2/VE3.jpg","","","","","","","true","1","","","heartS.png","","",""
"image-slider-2AFC","668","1923682","0.0-51.32-1.32","1993","","","","52","","","","","","","","sizeS.png","1167","52",""
"html-keyboard-response","669","1924505","0.0-51.32-2.32","null","","","","","","","null","","","","","","","",""
"image-selector-fb","670","1925935","0.0-51.33-0.33","916","pics2/FR6.jpg,pics2/FR1.jpg","","","","","","","true","1","","","heartS.png","","",""
"image-slider-2AFC","671","1927719","0.0-51.33-1.33","1781","","","","60","","","","","","","","sizeS.png","1121","60",""
"html-keyboard-response","672","1928535","0.0-51.33-2.33","null","","","","","","","null","","","","","","","",""
"image-selector-fb","673","1931085","0.0-51.34-0.34","2036","pics2/SW6.jpg,pics2/SW4.jpg","","","","","","","true","1","","","sizeS.png","","",""
"image-slider-2AFC","674","1933500","0.0-51.34-1.34","2410","","","","68","","","","","","","","sizeS.png","1001,1769","1,68",""
"html-keyboard-response","675","1934270","0.0-51.34-2.34","null","","","","","","","null","","","","","","","",""
"image-selector-fb","676","1937289","0.0-51.35-0.35","null","pics2/FR5.jpg,pics2/FR2.jpg","","","","","","","false","null","","","noS.png","","",""
"image-slider-2AFC","677","1938840","0.0-51.35-1.35","1547","","","","59","","","","","","","","sizeS.png","1046","59",""
"html-keyboard-response","678","1939604","0.0-51.35-2.35","null","","","","","","","null","","","","","","","",""
"image-selector-fb","679","1941058","0.0-51.36-0.36","946","pics2/FR1.jpg,pics2/VE5.jpg","","","","","","","false","0","","","sizeS.png","","",""
"image-slider-2AFC","680","1943220","0.0-51.36-1.36","2158","","","","-47","","","","","","","","heartS.png","1608","-47",""
"html-keyboard-response","681","1944089","0.0-51.36-2.36","null","","","","","","","null","","","","","","","",""
"image-selector-fb","682","1945469","0.0-51.37-0.37","870","pics2/FR1.jpg,pics2/VE3.jpg","","","","","","","false","0","","","heartS.png","","",""
"image-slider-2AFC","683","1947964","0.0-51.37-1.37","2492","","","","-55","","","","","","","","sizeS.png","1399","-55",""
"html-keyboard-response","684","1948778","0.0-51.37-2.37","null","","","","","","","null","","","","","","","",""
"image-selector-fb","685","1950474","0.0-51.38-0.38","1190","pics2/FR5.jpg,pics2/VE5.jpg","","","","","","","false","0","","","heartS.png","","",""
"image-slider-2AFC","686","1952235","0.0-51.38-1.38","1757","","","","-43","","","","","","","","heartS.png","1217","-43",""
"html-keyboard-response","687","1953050","0.0-51.38-2.38","null","","","","","","","null","","","","","","","",""
"image-selector-fb","688","1954542","0.0-51.39-0.39","986","pics2/FR3.jpg,pics2/VE5.jpg","","","","","","","false","0","","","sizeS.png","","",""
"image-slider-2AFC","689","1959547","0.0-51.39-1.39","null","","","","null","","","","","","","","sizeS.png","","",""
"html-keyboard-response","690","1960410","0.0-51.39-2.39","null","","","","","","","null","","","","","","","",""
"image-selector-fb","691","1961789","0.0-51.40-0.40","868","pics2/FR1.jpg,pics2/SW6.jpg","","","","","","","false","0","","","sizeS.png","","",""
"image-slider-2AFC","692","1963810","0.0-51.40-1.40","2018","","","","-55","","","","","","","","sizeS.png","1122","-55",""
"html-keyboard-response","693","1964628","0.0-51.40-2.40","null","","","","","","","null","","","","","","","",""
"image-selector-fb","694","1967650","0.0-51.41-0.41","null","pics2/SW6.jpg,pics2/FR2.jpg","","","","","","","false","null","","","noS.png","","",""
"image-slider-2AFC","695","1969724","0.0-51.41-1.41","2072","","","","75","","","","","","","","heartS.png","1450","75",""
"html-keyboard-response","696","1970440","0.0-51.41-2.41","null","","","","","","","null","","","","","","","",""
"image-selector-fb","697","1973459","0.0-51.42-0.42","null","pics2/SW4.jpg,pics2/SA4.jpg","","","","","","","false","null","","","noS.png","","",""
"image-slider-2AFC","698","1976180","0.0-51.42-1.42","2717","","","","-49","","","","","","","","heartS.png","1015,1743","1,-49",""
"html-keyboard-response","699","1977049","0.0-51.42-2.42","null","","","","","","","null","","","","","","","",""
"image-selector-fb","700","1980068","0.0-51.43-0.43","null","pics2/FR5.jpg,pics2/VE2.jpg","","","","","","","false","null","","","noS.png","","",""
"image-slider-2AFC","701","1982073","0.0-51.43-1.43","2002","","","","41","","","","","","","","heartS.png","1403","41",""
"html-keyboard-response","702","1982788","0.0-51.43-2.43","null","","","","","","","null","","","","","","","",""
"image-selector-fb","703","1984246","0.0-51.44-0.44","944","pics2/SA4.jpg,pics2/FR1.jpg","","","","","","","false","0","","","heartS.png","","",""
"image-slider-2AFC","704","1986068","0.0-51.44-1.44","1818","","","","23","","","","","","","","heartS.png","1159","23",""
"html-keyboard-response","705","1986786","0.0-51.44-2.44","null","","","","","","","null","","","","","","","",""
"image-selector-fb","706","1988632","0.0-51.45-0.45","1336","pics2/SW4.jpg,pics2/SA4.jpg","","","","","","","true","1","","","sizeS.png","","",""
"image-slider-2AFC","707","1990604","0.0-51.45-1.45","1967","","","","38","","","","","","","","heartS.png","1446","38",""
"html-keyboard-response","708","1991368","0.0-51.45-2.45","null","","","","","","","null","","","","","","","",""
"image-selector-fb","709","1992668","0.0-51.46-0.46","788","pics2/SA4.jpg,pics2/FR5.jpg","","","","","","","false","0","","","sizeS.png","","",""
"image-slider-2AFC","710","1994492","0.0-51.46-1.46","1820","","","","-43","","","","","","","","heartS.png","1289","-43",""
