"trial_type","trial_index","time_elapsed","internal_node_id","rt","stimulus","button_pressed","success","response","cat","value","key_press","correct","image_click","first_click_rt","first_click_val","symbol","all_click_rt","all_click_val","view_history"
"pavlovia","0","6","0.0-0.0","","","","","","","","","","","","","","","",""
"html-button-response","1","5403","0.0-1.0","5395","<div style='width: 700px; font-size: 150%'><font size='40'>  Welcome to our study!</font><br><br><br> <small> Our experiment is about <i>decision making</i>. You will choose and rate different food items, such as these: <br><br> <div><img src='food_combo2.png', height = '400px'></img></div>","0","","","","","","","","","","","","",""
"html-button-response","2","13304","0.0-2.0","7900","<div style='width: 700px; font-size: 150%'><br><br><br><small> <u><i>This is a multi-part study.</i></u><br><br> In the first part you will rate 24 food items twice.<br><br><div><img src=""rat1.png"" style=""width: 25%""></img></div><br>In the second part (longest) you will make repeated choices and judgements concerning the food items.<br><br><div><img src=""mainx.png"" style=""width: 50%""></img></div><br>In the third and final part, you will rate the items again and answer few short questionnaires.<br><br><div><img src=""rat2.png"" style=""width: 50%""></img></div><br><br>","0","","","","","","","","","","","","",""
"fullscreen","3","15788","0.0-3.0","","","","true","","","","","","","","","","","",""
"html-button-response","4","19290","0.0-4.0","3500","<div style='width: 900px; font-size: 150%;' <font size='20%'> In the first part of the task you will use the mouse to rate food items on <i>2 scales</i> </font></div><br><br><div style='width: 900px'><div style='float: left; width: 50%; margin-right:2.5em'><img src='heartS.png'></img><p class='small' style='text-align: justify'>When you see the heart cue you will rate food items in terms of how much like them/would like to eat them <i>right now</i>. You will rate them on a continuous scale from left (strong dislike) to right (strong liking). Before submitting your rating, try imagining how the item tastes and how much you desire it.<br><br></p></div><div ><img src='sizeS.png'></img><p class='small' style='text-align: justify'>When you see the size cue, you will rate the same food items in terms of their size. The scale goes from left (tiny) to right (very large). You should assess picture size <i><u>relative</i></u> to the white background. <b>Remember:</b> rate the size of the picture, <u>not</u> the size of the item in real life. </p></div><div style='width: 900px'><br><br><b><i>Notice:</b> by starting the rating you agree that your sumbission might be rejected at an early stage and the experiment might end, if your size ratings are not at least modestly related to objective sizes, or if you repeat the same value ratings too many times. If you don't agree, please exit by closing the browser window. </i><br><br><br>","0","","","","","","","","","","","","",""
"html-button-response","5","21376","0.0-5.0","2085","<div><img src='heartS.png'></img></div><br><div style='text-align: justify; width: 700px'>Using the mouse, rate the <b><i>likeness</b></i> of the food items (how much you like them/would like to eat them <i>right now</i>). Far right-end of the scale indicates an item you <i>like a lot</i>. Far left-end indicates an item you <i>dislike a lot</i>. Think about each answer.   <ul><li>Try <b><i>not</b></i> to give identical rating to different items.</li><li>Use the whole scale, and <b><i>not</b></i> just the extremes</ul></div><br>","0","","","","","","","","","","","","",""
"image-slider-response","6","23076","0.0-6.0-0.0-0.0","1695","pics2/SW5.jpg","","","73","SW","","","","","","","","","",""
"image-slider-response","7","24576","0.0-6.0-0.0-0.1","1298","pics2/FR6.jpg","","","73","FR","","","","","","","","","",""
"image-slider-response","8","25449","0.0-6.0-0.0-0.2","670","pics2/FR2.jpg","","","49","FR","","","","","","","","","",""
"image-slider-response","9","26376","0.0-6.0-0.0-0.3","723","pics2/FR3.jpg","","","63","FR","","","","","","","","","",""
"image-slider-response","10","27394","0.0-6.0-0.0-0.4","814","pics2/SW3.jpg","","","43","SW","","","","","","","","","",""
"image-slider-response","11","29126","0.0-6.0-0.0-0.5","1531","pics2/VE6.jpg","","","72","VE","","","","","","","","","",""
"image-slider-response","12","30161","0.0-6.0-0.0-0.6","832","pics2/SA2.jpg","","","71","SA","","","","","","","","","",""
"image-slider-response","13","31493","0.0-6.0-0.0-0.7","1128","pics2/FR4.jpg","","","47","FR","","","","","","","","","",""
"image-slider-response","14","32577","0.0-6.0-0.0-0.8","880","pics2/VE3.jpg","","","65","VE","","","","","","","","","",""
"image-slider-response","15","33652","0.0-6.0-0.0-0.9","872","pics2/SA3.jpg","","","63","SA","","","","","","","","","",""
"image-slider-response","16","34659","0.0-6.0-0.0-0.10","804","pics2/SA4.jpg","","","68","SA","","","","","","","","","",""
"image-slider-response","17","35999","0.0-6.0-0.0-0.11","1138","pics2/SA1.jpg","","","43","SA","","","","","","","","","",""
"image-slider-response","18","37487","0.0-6.0-0.0-0.12","1284","pics2/SW4.jpg","","","56","SW","","","","","","","","","",""
"image-slider-response","19","39809","0.0-6.0-0.0-0.13","2118","pics2/FR1.jpg","","","12","FR","","","","","","","","","",""
"image-slider-response","20","40894","0.0-6.0-0.0-0.14","883","pics2/VE2.jpg","","","66","VE","","","","","","","","","",""
"image-slider-response","21","41921","0.0-6.0-0.0-0.15","824","pics2/SW1.jpg","","","72","SW","","","","","","","","","",""
"image-slider-response","22","42923","0.0-6.0-0.0-0.16","798","pics2/VE1.jpg","","","41","VE","","","","","","","","","",""
"image-slider-response","23","43951","0.0-6.0-0.0-0.17","823","pics2/SW6.jpg","","","66","SW","","","","","","","","","",""
"image-slider-response","24","45082","0.0-6.0-0.0-0.18","928","pics2/VE4.jpg","","","38","VE","","","","","","","","","",""
"image-slider-response","25","46815","0.0-6.0-0.0-0.19","1529","pics2/SA6.jpg","","","62","SA","","","","","","","","","",""
"image-slider-response","26","47931","0.0-6.0-0.0-0.20","911","pics2/VE5.jpg","","","44","VE","","","","","","","","","",""
"image-slider-response","27","48932","0.0-6.0-0.0-0.21","798","pics2/FR5.jpg","","","62","FR","","","","","","","","","",""
"image-slider-response","28","49969","0.0-6.0-0.0-0.22","832","pics2/SW2.jpg","","","34","SW","","","","","","","","","",""
"image-slider-response","29","50895","0.0-6.0-0.0-0.23","723","pics2/SA5.jpg","","","59","SA","","","","","","","","","",""
"html-button-response","30","52127","0.0-7.0","1028","<div style='width: 900px;'> <font size = 6><b> End of the first rating</b><br><br>","0","","","","","","","","","","","","",""
"html-button-response","31","53048","0.0-9.0","918","<div ><img src='sizeS.png'></img></div><br><div style='text-align: justify; width: 700px'> Using the mouse, rate the <b><i>size</b></i> of the food items <b><i> relative to the white background.</b></i> Right-end of the scale indicates a <i>very large item</i>, which covers a large portion of the white rectangle. Left-end indicates a <i>very tiny</i> item which covers a tiny portion of the white rectangle.<br><br><i><u>Remember</i></u>: everything that is not the white background also contributes to item size (e.g. packing, plates, ect.)<br><br> Please keep in mind that if the accuracy of ratings do not allign well with actual sizes, the experiment will end.  As a result it will be consider incomplete and therefore no payment would be made. Good luck!<br><br></div><br>","0","","","","","","","","","","","","",""
"html-button-response","32","57433","0.0-10.0","4383","<div ><img src='sizeS.png'></img></div><br><b><font size=6>Examples of items that you might encounter</b><br><div style='width: 750px;'><div style='width: 33.33%; float:left'><br><br><br><i>Large Item</i><br><br><img src='large.jpg', width=200px></img></div><div style='float:right'><br><br><br><i>Small Item</i><br><br><img src='small.jpg', width=200px></img></div><div ><br><br><br><i>Medium Item</i><br><br><img src='med.jpg', width=200px></img></div></div><br><br>","0","","","","","","","","","","","","",""
"image-slider-response","33","59101","0.0-11.0-0.0-0.0","1664","pics2/VE3.jpg","","","68","null","","","","","","","","","",""
"image-slider-response","34","60216","0.0-11.0-0.0-0.1","913","pics2/SA2.jpg","","","67","null","","","","","","","","","",""
"image-slider-response","35","61472","0.0-11.0-0.0-0.2","1053","pics2/SW1.jpg","","","63","null","","","","","","","","","",""
"image-slider-response","36","62918","0.0-11.0-0.0-0.3","1241","pics2/VE4.jpg","","","62","null","","","","","","","","","",""
"image-slider-response","37","63977","0.0-11.0-0.0-0.4","858","pics2/FR1.jpg","","","73","null","","","","","","","","","",""
"image-slider-response","38","65481","0.0-11.0-0.0-0.5","1297","pics2/SA5.jpg","","","77","null","","","","","","","","","",""
"image-slider-response","39","66899","0.0-11.0-0.0-0.6","1216","pics2/SW2.jpg","","","67","null","","","","","","","","","",""
"image-slider-response","40","68486","0.0-11.0-0.0-0.7","1385","pics2/VE6.jpg","","","71","null","","","","","","","","","",""
"image-slider-response","41","70035","0.0-11.0-0.0-0.8","1346","pics2/SA6.jpg","","","50","null","","","","","","","","","",""
"image-slider-response","42","70915","0.0-11.0-0.0-0.9","676","pics2/VE2.jpg","","","50","null","","","","","","","","","",""
"image-slider-response","43","71654","0.0-11.0-0.0-0.10","535","pics2/FR2.jpg","","","50","null","","","","","","","","","",""
"image-slider-response","44","73249","0.0-11.0-0.0-0.11","1391","pics2/SA1.jpg","","","84","null","","","","","","","","","",""
"image-slider-response","45","74218","0.0-11.0-0.0-0.12","766","pics2/SW4.jpg","","","50","null","","","","","","","","","",""
"image-slider-response","46","75186","0.0-11.0-0.0-0.13","764","pics2/VE1.jpg","","","50","null","","","","","","","","","",""
"image-slider-response","47","76071","0.0-11.0-0.0-0.14","683","pics2/FR4.jpg","","","50","null","","","","","","","","","",""
"image-slider-response","48","77552","0.0-11.0-0.0-0.15","1276","pics2/SA3.jpg","","","72","null","","","","","","","","","",""
"image-slider-response","49","79473","0.0-11.0-0.0-0.16","1718","pics2/SA4.jpg","","","11","null","","","","","","","","","",""
"image-slider-response","50","80245","0.0-11.0-0.0-0.17","568","pics2/FR5.jpg","","","50","null","","","","","","","","","",""
"image-slider-response","51","80949","0.0-11.0-0.0-0.18","500","pics2/SW5.jpg","","","50","null","","","","","","","","","",""
"image-slider-response","52","82856","0.0-11.0-0.0-0.19","1701","pics2/FR6.jpg","","","28","null","","","","","","","","","",""
"image-slider-response","53","83732","0.0-11.0-0.0-0.20","671","pics2/SW3.jpg","","","50","null","","","","","","","","","",""
"image-slider-response","54","84397","0.0-11.0-0.0-0.21","460","pics2/FR3.jpg","","","50","null","","","","","","","","","",""
"image-slider-response","55","85040","0.0-11.0-0.0-0.22","441","pics2/VE5.jpg","","","50","null","","","","","","","","","",""
"image-slider-response","56","86671","0.0-11.0-0.0-0.23","1428","pics2/SW6.jpg","","","31","null","","","","","","","","","",""
"html-button-response","57","87863","0.0-12.0","989","<div style='width: 900px;'> <font size = 6><b> End of the second rating</b><br><br>","0","","","","","","","","","","","","",""
"html-button-response","58","88719","0.0-13.0","854","<div style='width: 900px;'>Now please rate the items for the second time. <br><br>This is not a memory test - you don't need to be consistent with your previous ratings. Just as before, try to make accurate judgements.<br><br>","0","","","","","","","","","","","","",""
"html-button-response","59","89803","0.0-14.0","1082","<div><img src='heartS.png'></img></div><br><div style='text-align: justify; width: 700px'>Using the mouse, rate the <b><i>likeness</b></i> of the food items (how much you like them/would like to eat them <i>right now</i>). Far right-end of the scale indicates an item you <i>like a lot</i>. Far left-end indicates an item you <i>dislike a lot</i>. Think about each answer.   <ul><li>Try <b><i>not</b></i> to give identical rating to different items.</li><li>Use the whole scale, and <b><i>not</b></i> just the extremes</ul></div><br>","0","","","","","","","","","","","","",""
"image-slider-response","60","91199","0.0-15.0-0.0-0.0","1392","pics2/VE3.jpg","","","59","VE","","","","","","","","","",""
"image-slider-response","61","92308","0.0-15.0-0.0-0.1","904","pics2/SW6.jpg","","","65","SW","","","","","","","","","",""
"image-slider-response","62","93177","0.0-15.0-0.0-0.2","665","pics2/FR5.jpg","","","64","FR","","","","","","","","","",""
"image-slider-response","63","94064","0.0-15.0-0.0-0.3","683","pics2/SA6.jpg","","","69","SA","","","","","","","","","",""
"image-slider-response","64","94950","0.0-15.0-0.0-0.4","684","pics2/SW4.jpg","","","62","SW","","","","","","","","","",""
"image-slider-response","65","95803","0.0-15.0-0.0-0.5","651","pics2/FR1.jpg","","","56","FR","","","","","","","","","",""
"image-slider-response","66","96700","0.0-15.0-0.0-0.6","692","pics2/FR4.jpg","","","63","FR","","","","","","","","","",""
"image-slider-response","67","97603","0.0-15.0-0.0-0.7","700","pics2/VE5.jpg","","","66","VE","","","","","","","","","",""
"image-slider-response","68","98439","0.0-15.0-0.0-0.8","634","pics2/VE6.jpg","","","38","VE","","","","","","","","","",""
"image-slider-response","69","99631","0.0-15.0-0.0-0.9","989","pics2/SW5.jpg","","","61","SW","","","","","","","","","",""
"image-slider-response","70","100971","0.0-15.0-0.0-0.10","1133","pics2/VE1.jpg","","","36","VE","","","","","","","","","",""
"image-slider-response","71","102603","0.0-15.0-0.0-0.11","1427","pics2/VE4.jpg","","","41","VE","","","","","","","","","",""
"image-slider-response","72","103590","0.0-15.0-0.0-0.12","782","pics2/VE2.jpg","","","37","VE","","","","","","","","","",""
"image-slider-response","73","107427","0.0-15.0-0.0-0.13","3312","pics2/SW2.jpg","","","58","SW","","","","","","","","","",""
"image-slider-response","74","108959","0.0-15.0-0.0-0.14","1325","pics2/SW1.jpg","","","54","SW","","","","","","","","","",""
"image-slider-response","75","109945","0.0-15.0-0.0-0.15","782","pics2/SW3.jpg","","","44","SW","","","","","","","","","",""
"image-slider-response","76","110875","0.0-15.0-0.0-0.16","726","pics2/SA4.jpg","","","57","SA","","","","","","","","","",""
"image-slider-response","77","112245","0.0-15.0-0.0-0.17","1165","pics2/FR2.jpg","","","50","FR","","","","","","","","","",""
"image-slider-response","78","112820","0.0-15.0-0.0-0.18","371","pics2/FR6.jpg","","","50","FR","","","","","","","","","",""
"image-slider-response","79","113288","0.0-15.0-0.0-0.19","264","pics2/SA1.jpg","","","50","SA","","","","","","","","","",""
"image-slider-response","80","114476","0.0-15.0-0.0-0.20","986","pics2/FR3.jpg","","","34","FR","","","","","","","","","",""
"image-slider-response","81","115521","0.0-15.0-0.0-0.21","842","pics2/SA3.jpg","","","56","SA","","","","","","","","","",""
"image-slider-response","82","116530","0.0-15.0-0.0-0.22","804","pics2/SA5.jpg","","","40","SA","","","","","","","","","",""
"image-slider-response","83","117056","0.0-15.0-0.0-0.23","323","pics2/SA2.jpg","","","50","SA","","","","","","","","","",""
"call-function","84","117272","0.0-16.0","","","","","","","","","","","","","","","",""
"call-function","85","117274","0.0-17.0","","","","","","","","","","","","","","","",""
"html-button-response","86","118107","0.0-18.0","832","<div style='width: 900px;'> <font size = 6><b> End of the first rating</b><br><br>","0","","","","","","","","","","","","",""
"html-button-response","87","119332","0.0-19.0","1225","<div ><img src='sizeS.png'></img></div><br><div style='text-align: justify; width: 700px'> Using the mouse, rate the <b><i>size</b></i> of the food items <b><i> relative to the white background.</b></i> Right-end of the scale indicates a <i>very large item</i>, which covers a large portion of the white rectangle. Left-end indicates a <i>very tiny</i> item which covers a tiny portion of the white rectangle.<br><br><i><u>Remember</i></u>: everything that is not the white background also contributes to item size (e.g. packing, plates, ect.)<br><br> Please keep in mind that if the accuracy of ratings do not allign well with actual sizes, the experiment will end.  As a result it will be consider incomplete and therefore no payment would be made. Good luck!<br><br></div><br>","0","","","","","","","","","","","","",""
"image-slider-response","88","120999","0.0-20.0-0.0-0.0","1665","pics2/SW1.jpg","","","61","null","","","","","","","","","",""
"image-slider-response","89","121910","0.0-20.0-0.0-0.1","707","pics2/SW3.jpg","","","58","null","","","","","","","","","",""
"image-slider-response","90","122574","0.0-20.0-0.0-0.2","457","pics2/VE5.jpg","","","50","null","","","","","","","","","",""
"image-slider-response","91","123110","0.0-20.0-0.0-0.3","331","pics2/SW2.jpg","","","50","null","","","","","","","","","",""
"image-slider-response","92","123757","0.0-20.0-0.0-0.4","443","pics2/VE2.jpg","","","50","null","","","","","","","","","",""
"image-slider-response","93","124331","0.0-20.0-0.0-0.5","371","pics2/VE1.jpg","","","50","null","","","","","","","","","",""
"image-slider-response","94","125004","0.0-20.0-0.0-0.6","470","pics2/SW4.jpg","","","50","null","","","","","","","","","",""
"image-slider-response","95","125669","0.0-20.0-0.0-0.7","462","pics2/SA6.jpg","","","50","null","","","","","","","","","",""
"image-slider-response","96","127308","0.0-20.0-0.0-0.8","1435","pics2/SA5.jpg","","","31","null","","","","","","","","","",""
"image-slider-response","97","127946","0.0-20.0-0.0-0.9","431","pics2/SA4.jpg","","","50","null","","","","","","","","","",""
"image-slider-response","98","128743","0.0-20.0-0.0-0.10","594","pics2/FR2.jpg","","","50","null","","","","","","","","","",""
"image-slider-response","99","130738","0.0-20.0-0.0-0.11","1791","pics2/SA1.jpg","","","85","null","","","","","","","","","",""
"image-slider-response","100","131279","0.0-20.0-0.0-0.12","339","pics2/FR5.jpg","","","50","null","","","","","","","","","",""
"image-slider-response","101","131838","0.0-20.0-0.0-0.13","355","pics2/FR4.jpg","","","50","null","","","","","","","","","",""
"image-slider-response","102","132273","0.0-20.0-0.0-0.14","232","pics2/VE6.jpg","","","50","null","","","","","","","","","",""
"image-slider-response","103","132725","0.0-20.0-0.0-0.15","248","pics2/FR1.jpg","","","50","null","","","","","","","","","",""
"image-slider-response","104","133086","0.0-20.0-0.0-0.16","156","pics2/FR6.jpg","","","50","null","","","","","","","","","",""
"image-slider-response","105","134301","0.0-20.0-0.0-0.17","1011","pics2/FR3.jpg","","","37","null","","","","","","","","","",""
"image-slider-response","106","134965","0.0-20.0-0.0-0.18","460","pics2/VE3.jpg","","","50","null","","","","","","","","","",""
"image-slider-response","107","135547","0.0-20.0-0.0-0.19","378","pics2/SW6.jpg","","","50","null","","","","","","","","","",""
"image-slider-response","108","137148","0.0-20.0-0.0-0.20","1398","pics2/VE4.jpg","","","37","null","","","","","","","","","",""
"image-slider-response","109","137832","0.0-20.0-0.0-0.21","479","pics2/SA2.jpg","","","50","null","","","","","","","","","",""
"image-slider-response","110","138578","0.0-20.0-0.0-0.22","542","pics2/SW5.jpg","","","50","null","","","","","","","","","",""
"image-slider-response","111","140162","0.0-20.0-0.0-0.23","1382","pics2/SA3.jpg","","","78","null","","","","","","","","","",""
"call-function","112","140368","0.0-21.0","","","","","","","","","","","","","","","",""
"html-button-response","113","141394","0.0-22.0","1024","<div style='width: 900px;'> <font size = 6><b> End of the second rating</b><br><br>","0","","","","","","","","","","","","",""
"pavlovia","114","141415","0.0-23.0","","","","","","","","","","","","","","","",""
"html-keyboard-response","115","146418","0.0-24.0","null","<div style='width: 700px;'> <font size=6><b>SHORT BREAK</font></b><br><br><i> Please wait 5 seconds to continue</i></div> ","","","","","","null","","","","","","","",""
"pavlovia","116","146420","0.0-25.0","","","","","","","","","","","","","","","",""
"html-button-response","117","148140","0.0-26.0","1719","<div style='width: 700px;'>In the main part of the study, you will be choosing between 2 items. When it's time to choose,  this symbol will appear: <br><br><img src='chooseS.png'></img><br><br>Below, a cue will signify the type of choice: </div><br><div style='width: 700px;'><div style='float: left; width: 50%'><img src='heartS.png'></img><p class='small'>Heart cue means you should choose the item you <b><i>prefer</b></i> more.</p></div><div class='float: right; width:50%'><img src='sizeS.png'></img><p class='small'>Size cue means you should choose the <b><i>larger</b></i> item. </p></div></div><br><div style='width: 700px;'>When you click, a green square will appear around the item you chose.<br></div><div><br>","0","","","","","","","","","","","","",""
"image-selector-fb-tut","118","151022","0.0-27.0","1865","0232.jpg,0123.jpg","","","","","","","false","0","","","","","",""
"image-selector-fb-tut","119","153176","0.0-28.0","1149","0232.jpg,0123.jpg","","","","","","","false","0","","","","","",""
"html-button-response","120","154128","0.0-29.0","952","<div style='width: 900px;'>Your choices should be both <b><i>fast and accurate</b></i>. <br><br>You will have <i>4 seconds</i> to make each choice, which should be enough consider the options and click on one of the items.<br><br>","0","","","","","","","","","","","","",""
"html-button-response","121","155745","0.0-30.0","1616","<div style='width: 900px;'>Additionally, on some choice trials you will see the <b><i>no-choice cue</b></i>: <br><br><img src='noS.png'></img> <br><br>This cue means you can't make any choice. You can examine the items, but  can't click on any of them. Just wait patiently for the cue to dissapear.<br><br>","0","","","","","","","","","","","","",""
"image-selector-fb-tut","122","157750","0.0-31.0","null","0232.jpg,0123.jpg","","","","","","","false","null","","","","","",""
"html-button-response","123","158873","0.0-32.0","1122","<div style='width: 900px;'>After each choice the items will remain on the screen and you will see this symbol: <br><br><img src='judgeS.png'></img> <br><br>This means you should rate<b> the magnitude of the difference</b> between the items using a scale: </div><br><div style='width: 900px; '><div style='float: left; width: 50%; margin-right: 2.5em; align-self:left'><img src='heartS.png'></img><p class='small' style = 'text-align: justify;'>Heart cue means you should rate <b>how much you prefer</b> one of the items over the other. Moving the scale indicator to the left means you prefer the left one; moving it to the right - right one. The more you prefer one of them, the more towards that side you should move the scale indicator. </p></div><div class='float: right; width: 50%; margin-left: 2.5em;'><img src='sizeS.png'></img><p class='small' style='text-align: justify'>Size cue means you should rate <b>how much larger</b> is one of the items over the other. Moving the scale indicator to the left means you think the left is larger; moving it to the right - right one. The greater the difference in size, the more towards that side you should move the scale indicator.</div><br>","0","","","","","","","","","","","","",""
"image-slider-2AFC-tut","124","161423","0.0-33.0","2546","","","","65","","","","","","1933","65","","","",""
"image-slider-2AFC-tut","125","163057","0.0-34.0","1630","","","","45","","","","","","1208","45","","","",""
"html-button-response","126","165062","0.0-35.0","2004","<br><br><font size = 36><b> Examples </b></font><br><br><i> 1) I would like to eat some croissants a <b>lot more</b> than doritos right now:</i><br><img src='ex1.PNG', width='62%'></img><br><br><br><i> 2) I would like to eat some doritos a <b>bit more</b> than croissants right now, but just slightly:</i><br><img src='ex2.PNG' width='62%'></img>","0","","","","","","","","","","","","",""
"html-button-response","127","166510","0.0-36.0","1446","<div style='width: 900px;'><i>Now you know everything you need to do the task!</i> <br><br>Let's start by doing a <b>short training</b>, so you'll get used to how it works. </div><br>","0","","","","","","","","","","","","",""
"image-selector-fb","128","167916","0.0-37.0-0.0","898","pics2/VE1.jpg,pics2/FR1.jpg","","","","","","","true","1","","","heartS.png","","",""
"image-slider-2AFC","129","169507","0.0-37.0-1.0","1588","","","","21","","","","","","","","heartS.png","1177","21",""
"html-keyboard-response","130","170309","0.0-37.0-2.0","null","","","","","","","null","","","","","","","",""
"image-selector-fb","131","171493","0.0-37.1-0.1","676","pics2/SW3.jpg,pics2/FR3.jpg","","","","","","","true","1","","","heartS.png","","",""
"image-slider-2AFC","132","173629","0.0-37.1-1.1","2133","","","","-22","","","","","","","","sizeS.png","1735","-22",""
"html-keyboard-response","133","174381","0.0-37.1-2.1","null","","","","","","","null","","","","","","","",""
"image-selector-fb","134","177387","0.0-37.2-0.2","null","pics2/VE2.jpg,pics2/SW2.jpg","","","","","","","false","null","","","noS.png","","",""
"image-slider-2AFC","135","178751","0.0-37.2-1.2","1360","","","","-13","","","","","","","","sizeS.png","1024","-13",""
"html-keyboard-response","136","179605","0.0-37.2-2.2","null","","","","","","","null","","","","","","","",""
"image-selector-fb","137","180731","0.0-37.3-0.3","622","pics2/VE4.jpg,pics2/SW3.jpg","","","","","","","true","1","","","sizeS.png","","",""
"image-slider-2AFC","138","182414","0.0-37.3-1.3","1681","","","","16","","","","","","","","sizeS.png","1297","16",""
"html-keyboard-response","139","183219","0.0-37.3-2.3","null","","","","","","","null","","","","","","","",""
"image-selector-fb","140","184404","0.0-37.4-0.4","678","pics2/FR2.jpg,pics2/SA1.jpg","","","","","","","true","1","","","sizeS.png","","",""
"image-slider-2AFC","141","186750","0.0-37.4-1.4","2340","","","","-4","","","","","","","","heartS.png","1995","-4",""
"html-keyboard-response","142","187456","0.0-37.4-2.4","null","","","","","","","null","","","","","","","",""
"image-selector-fb","143","188624","0.0-37.5-0.5","665","pics2/FR2.jpg,pics2/SA5.jpg","","","","","","","true","1","","","sizeS.png","","",""
"image-slider-2AFC","144","189738","0.0-37.5-1.5","1113","","","","0","","","","","","","","heartS.png","581","0",""
"html-keyboard-response","145","190442","0.0-37.5-2.5","null","","","","","","","null","","","","","","","",""
"image-selector-fb","146","191514","0.0-37.6-0.6","567","pics2/VE1.jpg,pics2/VE2.jpg","","","","","","","false","0","","","heartS.png","","",""
"image-slider-2AFC","147","192447","0.0-37.6-1.6","931","","","","0","","","","","","","","heartS.png","637","0",""
"html-keyboard-response","148","193250","0.0-37.6-2.6","null","","","","","","","null","","","","","","","",""
"image-selector-fb","149","194710","0.0-37.7-0.7","955","pics2/FR2.jpg,pics2/VE6.jpg","","","","","","","false","0","","","sizeS.png","","",""
"image-slider-2AFC","150","195815","0.0-37.7-1.7","1101","","","","-10","","","","","","","","heartS.png","656","-10",""
"html-keyboard-response","151","196568","0.0-37.7-2.7","null","","","","","","","null","","","","","","","",""
"image-selector-fb","152","199577","0.0-37.8-0.8","null","pics2/SA5.jpg,pics2/SW2.jpg","","","","","","","false","null","","","noS.png","","",""
"image-slider-2AFC","153","200552","0.0-37.8-1.8","973","","","","-7","","","","","","","","sizeS.png","653","-7",""
"html-keyboard-response","154","201405","0.0-37.8-2.8","null","","","","","","","null","","","","","","","",""
"image-selector-fb","155","202716","0.0-37.9-0.9","805","pics2/SA5.jpg,pics2/VE6.jpg","","","","","","","true","1","","","heartS.png","","",""
"image-slider-2AFC","156","206113","0.0-37.9-1.9","3396","","","","5","","","","","","","","heartS.png","2614","5",""
"html-keyboard-response","157","206917","0.0-37.9-2.9","null","","","","","","","null","","","","","","","",""
"image-selector-fb","158","208249","0.0-37.10-0.10","829","pics2/VE1.jpg,pics2/VE6.jpg","","","","","","","true","1","","","heartS.png","","",""
"image-slider-2AFC","159","209281","0.0-37.10-1.10","1029","","","","4","","","","","","","","sizeS.png","652","4",""
"html-keyboard-response","160","210034","0.0-37.10-2.10","null","","","","","","","null","","","","","","","",""
"image-selector-fb","161","211370","0.0-37.11-0.11","830","pics2/SW3.jpg,pics2/SA1.jpg","","","","","","","false","0","","","heartS.png","","",""
"image-slider-2AFC","162","212517","0.0-37.11-1.11","1142","","","","-3","","","","","","","","sizeS.png","690","-3",""
"html-keyboard-response","163","213320","0.0-37.11-2.11","null","","","","","","","null","","","","","","","",""
"html-button-response","164","214391","0.0-38.0","1070","<i><font size=10>Good job!</font></i> <br><br>Before we begin, you have a chance to review the rules, in case something was not clear.<br><br>","0","","","","","","","","","","","","",""
"instructions","165","651398","0.0-39.0","437006","","","","","","","","","","","","","","","[{""page_index"":0,""viewing_time"":149803},{""page_index"":1,""viewing_time"":285904},{""page_index"":2,""viewing_time"":1290}]"
"html-button-response","166","652252","0.0-40.0","852","<div style='width: 900px;'> <font size='40'>Great! Now you're ready to begin</font><br><br>The main part of the experiment will consist of <u>3 blocks</u>. Each block consists of 66 decisions and judgements. You will have time for a short break between blocks.<br><br><br><i><u>Do your best to respond within the time limit.</u></i><br><br><i> Press the button to start the experiment<br><br></i>","0","","","","","","","","","","","","",""
"image-selector-fb","167","653464","0.0-41.0-0.0","701","pics2/SW1.jpg,pics2/SA4.jpg","","","","","","","true","1","","","heartS.png","","",""
"image-slider-2AFC","168","654607","0.0-41.0-1.0","1140","","","","4","","","","","","","","sizeS.png","655","4",""
"html-keyboard-response","169","655460","0.0-41.0-2.0","null","","","","","","","null","","","","","","","",""
"image-selector-fb","170","656550","0.0-41.1-0.1","584","pics2/SA4.jpg,pics2/SA2.jpg","","","","","","","false","0","","","sizeS.png","","",""
"image-slider-2AFC","171","657656","0.0-41.1-1.1","1103","","","","6","","","","","","","","sizeS.png","757","6",""
"html-keyboard-response","172","658459","0.0-41.1-2.1","null","","","","","","","null","","","","","","","",""
"image-selector-fb","173","659522","0.0-41.2-0.2","555","pics2/SW4.jpg,pics2/VE3.jpg","","","","","","","true","1","","","sizeS.png","","",""
"image-slider-2AFC","174","660309","0.0-41.2-1.2","782","","","","9","","","","","","","","heartS.png","404","9",""
"html-keyboard-response","175","661161","0.0-41.2-2.2","null","","","","","","","null","","","","","","","",""
"image-selector-fb","176","662399","0.0-41.3-0.3","730","pics2/SA4.jpg,pics2/SA3.jpg","","","","","","","false","0","","","heartS.png","","",""
"image-slider-2AFC","177","663191","0.0-41.3-1.3","788","","","","8","","","","","","","","heartS.png","436","8",""
"html-keyboard-response","178","663942","0.0-41.3-2.3","null","","","","","","","null","","","","","","","",""
"image-selector-fb","179","665247","0.0-41.4-0.4","798","pics2/FR5.jpg,pics2/SA2.jpg","","","","","","","true","1","","","sizeS.png","","",""
"image-slider-2AFC","180","665996","0.0-41.4-1.4","746","","","","4","","","","","","","","sizeS.png","470","4",""
"html-keyboard-response","181","666799","0.0-41.4-2.4","null","","","","","","","null","","","","","","","",""
"image-selector-fb","182","667764","0.0-41.5-0.5","460","pics2/VE5.jpg,pics2/FR5.jpg","","","","","","","false","0","","","heartS.png","","",""
"image-slider-2AFC","183","669266","0.0-41.5-1.5","1501","","","","3","","","","","","","","heartS.png","631","3",""
"html-keyboard-response","184","670018","0.0-41.5-2.5","null","","","","","","","null","","","","","","","",""
"image-selector-fb","185","671895","0.0-41.6-0.6","1372","pics2/VE5.jpg,pics2/SA3.jpg","","","","","","","false","0","","","heartS.png","","",""
"image-slider-2AFC","186","673546","0.0-41.6-1.6","1650","","","","-16","","","","","","","","heartS.png","859","-16",""
"html-keyboard-response","187","674299","0.0-41.6-2.6","null","","","","","","","null","","","","","","","",""
"image-selector-fb","188","677120","0.0-41.7-0.7","2315","pics2/SA4.jpg,pics2/SW5.jpg","","","","","","","true","1","","","sizeS.png","","",""
"image-slider-2AFC","189","678957","0.0-41.7-1.7","1834","","","","0","","","","","","","","heartS.png","1513","0",""
"html-keyboard-response","190","679710","0.0-41.7-2.7","null","","","","","","","null","","","","","","","",""
"image-selector-fb","191","680717","0.0-41.8-0.8","501","pics2/SA2.jpg,pics2/SA6.jpg","","","","","","","true","1","","","sizeS.png","","",""
"image-slider-2AFC","192","681616","0.0-41.8-1.8","895","","","","0","","","","","","","","heartS.png","584","0",""
"html-keyboard-response","193","682319","0.0-41.8-2.8","null","","","","","","","null","","","","","","","",""
"image-selector-fb","194","685326","0.0-41.9-0.9","null","pics2/SW4.jpg,pics2/FR6.jpg","","","","","","","false","null","","","noS.png","","",""
"image-slider-2AFC","195","686157","0.0-41.9-1.9","827","","","","0","","","","","","","","heartS.png","435","0",""
"html-keyboard-response","196","687009","0.0-41.9-2.9","null","","","","","","","null","","","","","","","",""
"image-selector-fb","197","690017","0.0-41.10-0.10","null","pics2/SA2.jpg,pics2/SA4.jpg","","","","","","","false","null","","","noS.png","","",""
"image-slider-2AFC","198","690821","0.0-41.10-1.10","801","","","","0","","","","","","","","sizeS.png","383","0",""
"html-keyboard-response","199","691623","0.0-41.10-2.10","null","","","","","","","null","","","","","","","",""
"image-selector-fb","200","692910","0.0-41.11-0.11","782","pics2/SW6.jpg,pics2/SW4.jpg","","","","","","","true","1","","","sizeS.png","","",""
"image-slider-2AFC","201","693944","0.0-41.11-1.11","1031","","","","0","","","","","","","","heartS.png","686","0",""
"html-keyboard-response","202","694747","0.0-41.11-2.11","null","","","","","","","null","","","","","","","",""
"image-selector-fb","203","695950","0.0-41.12-0.12","697","pics2/VE5.jpg,pics2/SW1.jpg","","","","","","","true","1","","","heartS.png","","",""
"image-slider-2AFC","204","696858","0.0-41.12-1.12","905","","","","0","","","","","","","","sizeS.png","584","0",""
"html-keyboard-response","205","697663","0.0-41.12-2.12","null","","","","","","","null","","","","","","","",""
"image-selector-fb","206","698665","0.0-41.13-0.13","496","pics2/SA3.jpg,pics2/SW5.jpg","","","","","","","false","0","","","sizeS.png","","",""
"image-slider-2AFC","207","699618","0.0-41.13-1.13","949","","","","0","","","","","","","","sizeS.png","612","0",""
"html-keyboard-response","208","700320","0.0-41.13-2.13","null","","","","","","","null","","","","","","","",""
"image-selector-fb","209","702055","0.0-41.14-0.14","1232","pics2/SW5.jpg,pics2/SA3.jpg","","","","","","","false","0","","","heartS.png","","",""
"image-slider-2AFC","210","702951","0.0-41.14-1.14","895","","","","-2","","","","","","","","sizeS.png","558","-2",""
"html-keyboard-response","211","703704","0.0-41.14-2.14","null","","","","","","","null","","","","","","","",""
"image-selector-fb","212","706709","0.0-41.15-0.15","null","pics2/FR5.jpg,pics2/SW6.jpg","","","","","","","false","null","","","noS.png","","",""
"image-slider-2AFC","213","708378","0.0-41.15-1.15","1666","","","","-5","","","","","","","","heartS.png","1315","-5",""
"html-keyboard-response","214","709230","0.0-41.15-2.15","null","","","","","","","null","","","","","","","",""
"image-selector-fb","215","712237","0.0-41.16-0.16","null","pics2/SA2.jpg,pics2/VE3.jpg","","","","","","","false","null","","","noS.png","","",""
"image-slider-2AFC","216","713123","0.0-41.16-1.16","885","","","","5","","","","","","","","sizeS.png","565","5",""
"html-keyboard-response","217","713827","0.0-41.16-2.16","null","","","","","","","null","","","","","","","",""
"image-selector-fb","218","715294","0.0-41.17-0.17","963","pics2/SA2.jpg,pics2/FR6.jpg","","","","","","","true","1","","","heartS.png","","",""
"image-slider-2AFC","219","716155","0.0-41.17-1.17","858","","","","17","","","","","","","","heartS.png","513","17",""
"html-keyboard-response","220","716858","0.0-41.17-2.17","null","","","","","","","null","","","","","","","",""
"image-selector-fb","221","718234","0.0-41.18-0.18","872","pics2/SA4.jpg,pics2/VE5.jpg","","","","","","","true","1","","","sizeS.png","","",""
"image-slider-2AFC","222","719505","0.0-41.18-1.18","1268","","","","8","","","","","","","","heartS.png","923","8",""
"html-keyboard-response","223","720210","0.0-41.18-2.18","null","","","","","","","null","","","","","","","",""
"image-selector-fb","224","721620","0.0-41.19-0.19","905","pics2/SW1.jpg,pics2/SA6.jpg","","","","","","","false","0","","","sizeS.png","","",""
"image-slider-2AFC","225","723982","0.0-41.19-1.19","2359","","","","-6","","","","","","","","heartS.png","1495","-6",""
"html-keyboard-response","226","724834","0.0-41.19-2.19","null","","","","","","","null","","","","","","","",""
"image-selector-fb","227","726117","0.0-41.20-0.20","780","pics2/SW1.jpg,pics2/SW6.jpg","","","","","","","true","1","","","heartS.png","","",""
"image-slider-2AFC","228","727594","0.0-41.20-1.20","1475","","","","0","","","","","","","","heartS.png","1155","0",""
"html-keyboard-response","229","728346","0.0-41.20-2.20","null","","","","","","","null","","","","","","","",""
"image-selector-fb","230","729192","0.0-41.21-0.21","339","pics2/SA6.jpg,pics2/SA4.jpg","","","","","","","true","1","","","heartS.png","","",""
"image-slider-2AFC","231","730140","0.0-41.21-1.21","945","","","","5","","","","","","","","heartS.png","590","5",""
"html-keyboard-response","232","730944","0.0-41.21-2.21","null","","","","","","","null","","","","","","","",""
"image-selector-fb","233","731677","0.0-41.22-0.22","228","pics2/FR5.jpg,pics2/SA3.jpg","","","","","","","false","0","","","heartS.png","","",""
"image-slider-2AFC","234","732594","0.0-41.22-1.22","914","","","","5","","","","","","","","heartS.png","522","5",""
"html-keyboard-response","235","733298","0.0-41.22-2.22","null","","","","","","","null","","","","","","","",""
"image-selector-fb","236","736309","0.0-41.23-0.23","null","pics2/VE3.jpg,pics2/SW1.jpg","","","","","","","false","null","","","noS.png","","",""
"image-slider-2AFC","237","737072","0.0-41.23-1.23","760","","","","1","","","","","","","","sizeS.png","441","1",""
"html-keyboard-response","238","737927","0.0-41.23-2.23","null","","","","","","","null","","","","","","","",""
"image-selector-fb","239","740932","0.0-41.24-0.24","null","pics2/FR5.jpg,pics2/SW1.jpg","","","","","","","false","null","","","noS.png","","",""
"image-slider-2AFC","240","741701","0.0-41.24-1.24","768","","","","1","","","","","","","","heartS.png","434","1",""
"html-keyboard-response","241","742506","0.0-41.24-2.24","null","","","","","","","null","","","","","","","",""
"image-selector-fb","242","743667","0.0-41.25-0.25","656","pics2/VE5.jpg,pics2/SW4.jpg","","","","","","","true","1","","","heartS.png","","",""
"image-slider-2AFC","243","745077","0.0-41.25-1.25","1408","","","","8","","","","","","","","sizeS.png","1103","8",""
"html-keyboard-response","244","745930","0.0-41.25-2.25","null","","","","","","","null","","","","","","","",""
"image-selector-fb","245","747205","0.0-41.26-0.26","772","pics2/SA3.jpg,pics2/VE5.jpg","","","","","","","true","1","","","sizeS.png","","",""
"image-slider-2AFC","246","748173","0.0-41.26-1.26","966","","","","6","","","","","","","","sizeS.png","646","6",""
"html-keyboard-response","247","748874","0.0-41.26-2.26","null","","","","","","","null","","","","","","","",""
"image-selector-fb","248","750058","0.0-41.27-0.27","678","pics2/SW4.jpg,pics2/SA4.jpg","","","","","","","false","0","","","heartS.png","","",""
"image-slider-2AFC","249","751293","0.0-41.27-1.27","1234","","","","-11","","","","","","","","heartS.png","719","-11",""
"html-keyboard-response","250","752147","0.0-41.27-2.27","null","","","","","","","null","","","","","","","",""
"image-selector-fb","251","753357","0.0-41.28-0.28","706","pics2/SW4.jpg,pics2/FR5.jpg","","","","","","","true","1","","","sizeS.png","","",""
"image-slider-2AFC","252","754274","0.0-41.28-1.28","913","","","","9","","","","","","","","heartS.png","570","9",""
"html-keyboard-response","253","755126","0.0-41.28-2.28","null","","","","","","","null","","","","","","","",""
"image-selector-fb","254","758132","0.0-41.29-0.29","null","pics2/FR5.jpg,pics2/SA4.jpg","","","","","","","false","null","","","noS.png","","",""
"image-slider-2AFC","255","759047","0.0-41.29-1.29","913","","","","11","","","","","","","","sizeS.png","578","11",""
"html-keyboard-response","256","759899","0.0-41.29-2.29","null","","","","","","","null","","","","","","","",""
"image-selector-fb","257","761128","0.0-41.30-0.30","723","pics2/SA3.jpg,pics2/SA4.jpg","","","","","","","false","0","","","sizeS.png","","",""
"image-slider-2AFC","258","762133","0.0-41.30-1.30","1002","","","","10","","","","","","","","sizeS.png","652","10",""
"html-keyboard-response","259","762985","0.0-41.30-2.30","null","","","","","","","null","","","","","","","",""
"image-selector-fb","260","764453","0.0-41.31-0.31","963","pics2/FR5.jpg,pics2/VE5.jpg","","","","","","","false","0","","","sizeS.png","","",""
"image-slider-2AFC","261","765238","0.0-41.31-1.31","783","","","","-6","","","","","","","","heartS.png","446","-6",""
"html-keyboard-response","262","765942","0.0-41.31-2.31","null","","","","","","","null","","","","","","","",""
"image-selector-fb","263","766801","0.0-41.32-0.32","354","pics2/FR6.jpg,pics2/SA6.jpg","","","","","","","true","1","","","sizeS.png","","",""
"image-slider-2AFC","264","767916","0.0-41.32-1.32","1112","","","","-7","","","","","","","","sizeS.png","750","-7",""
"html-keyboard-response","265","768620","0.0-41.32-2.32","null","","","","","","","null","","","","","","","",""
"image-selector-fb","266","769704","0.0-41.33-0.33","575","pics2/SW1.jpg,pics2/VE5.jpg","","","","","","","true","1","","","sizeS.png","","",""
"image-slider-2AFC","267","770865","0.0-41.33-1.33","1157","","","","12","","","","","","","","sizeS.png","482","12",""
"html-keyboard-response","268","771670","0.0-41.33-2.33","null","","","","","","","null","","","","","","","",""
"image-selector-fb","269","774675","0.0-41.34-0.34","null","pics2/SW6.jpg,pics2/SW5.jpg","","","","","","","false","null","","","noS.png","","",""
"image-slider-2AFC","270","776252","0.0-41.34-1.34","1575","","","","-15","","","","","","","","heartS.png","1048","-15",""
"html-keyboard-response","271","776953","0.0-41.34-2.34","null","","","","","","","null","","","","","","","",""
"image-selector-fb","272","778881","0.0-41.35-0.35","1424","pics2/SW1.jpg,pics2/FR5.jpg","","","","","","","false","0","","","sizeS.png","","",""
"image-slider-2AFC","273","781434","0.0-41.35-1.35","2551","","","","-31","","","","","","","","sizeS.png","1661","-31",""
"html-keyboard-response","274","782139","0.0-41.35-2.35","null","","","","","","","null","","","","","","","",""
"image-selector-fb","275","784588","0.0-41.36-0.36","1944","pics2/SW1.jpg,pics2/SA3.jpg","","","","","","","true","1","","","heartS.png","","",""
"image-slider-2AFC","276","786008","0.0-41.36-1.36","1417","","","","-16","","","","","","","","sizeS.png","1048","-16",""
"html-keyboard-response","277","786760","0.0-41.36-2.36","null","","","","","","","null","","","","","","","",""
"image-selector-fb","278","787873","0.0-41.37-0.37","608","pics2/SW6.jpg,pics2/FR5.jpg","","","","","","","true","1","","","sizeS.png","","",""
"image-slider-2AFC","279","789646","0.0-41.37-1.37","1770","","","","22","","","","","","","","sizeS.png","1392","22",""
"html-keyboard-response","280","790448","0.0-41.37-2.37","null","","","","","","","null","","","","","","","",""
"image-selector-fb","281","791698","0.0-41.38-0.38","745","pics2/FR6.jpg,pics2/SW5.jpg","","","","","","","true","1","","","sizeS.png","","",""
"image-slider-2AFC","282","793011","0.0-41.38-1.38","1311","","","","-3","","","","","","","","heartS.png","886","-3",""
"html-keyboard-response","283","793863","0.0-41.38-2.38","null","","","","","","","null","","","","","","","",""
"image-selector-fb","284","795091","0.0-41.39-0.39","723","pics2/VE3.jpg,pics2/SW6.jpg","","","","","","","true","1","","","heartS.png","","",""
"image-slider-2AFC","285","796642","0.0-41.39-1.39","1548","","","","4","","","","","","","","heartS.png","1039","4",""
"html-keyboard-response","286","797397","0.0-41.39-2.39","null","","","","","","","null","","","","","","","",""
"image-selector-fb","287","798869","0.0-41.40-0.40","967","pics2/SW4.jpg,pics2/SW1.jpg","","","","","","","true","1","","","heartS.png","","",""
"image-slider-2AFC","288","799986","0.0-41.40-1.40","1113","","","","7","","","","","","","","sizeS.png","688","7",""
"html-keyboard-response","289","800788","0.0-41.40-2.40","null","","","","","","","null","","","","","","","",""
"image-selector-fb","290","802074","0.0-41.41-0.41","779","pics2/SA6.jpg,pics2/SW6.jpg","","","","","","","true","1","","","heartS.png","","",""
"image-slider-2AFC","291","803506","0.0-41.41-1.41","1428","","","","6","","","","","","","","sizeS.png","713","6",""
"html-keyboard-response","292","804310","0.0-41.41-2.41","null","","","","","","","null","","","","","","","",""
"image-selector-fb","293","806261","0.0-41.42-0.42","1445","pics2/SA3.jpg,pics2/VE3.jpg","","","","","","","true","1","","","sizeS.png","","",""
"image-slider-2AFC","294","807392","0.0-41.42-1.42","1128","","","","5","","","","","","","","sizeS.png","783","5",""
"html-keyboard-response","295","808146","0.0-41.42-2.42","null","","","","","","","null","","","","","","","",""
"image-selector-fb","296","809379","0.0-41.43-0.43","728","pics2/FR6.jpg,pics2/VE3.jpg","","","","","","","true","1","","","sizeS.png","","",""
"image-slider-2AFC","297","811082","0.0-41.43-1.43","1702","","","","-11","","","","","","","","heartS.png","1362","-11",""
"html-keyboard-response","298","811837","0.0-41.43-2.43","null","","","","","","","null","","","","","","","",""
"image-selector-fb","299","813133","0.0-41.44-0.44","792","pics2/SA2.jpg,pics2/SW5.jpg","","","","","","","true","1","","","heartS.png","","",""
"image-slider-2AFC","300","814165","0.0-41.44-1.44","1030","","","","13","","","","","","","","sizeS.png","652","13",""
"html-keyboard-response","301","814869","0.0-41.44-2.44","null","","","","","","","null","","","","","","","",""
"image-selector-fb","302","817875","0.0-41.45-0.45","null","pics2/FR5.jpg,pics2/FR6.jpg","","","","","","","false","null","","","noS.png","","",""
"image-slider-2AFC","303","819132","0.0-41.45-1.45","1254","","","","6","","","","","","","","heartS.png","780","6",""
"html-keyboard-response","304","819836","0.0-41.45-2.45","null","","","","","","","null","","","","","","","",""
"image-selector-fb","305","821189","0.0-41.46-0.46","848","pics2/SA6.jpg,pics2/SW1.jpg","","","","","","","true","1","","","heartS.png","","",""
"image-slider-2AFC","306","822106","0.0-41.46-1.46","914","","","","5","","","","","","","","sizeS.png","584","5",""
"html-keyboard-response","307","822911","0.0-41.46-2.46","null","","","","","","","null","","","","","","","",""
"image-selector-fb","308","825918","0.0-41.47-0.47","null","pics2/SW6.jpg,pics2/SA4.jpg","","","","","","","false","null","","","noS.png","","",""
"image-slider-2AFC","309","828749","0.0-41.47-1.47","2829","","","","-4","","","","","","","","heartS.png","2394","-4",""
"html-keyboard-response","310","829455","0.0-41.47-2.47","null","","","","","","","null","","","","","","","",""
"image-selector-fb","311","830749","0.0-41.48-0.48","788","pics2/SA4.jpg,pics2/SA6.jpg","","","","","","","true","1","","","sizeS.png","","",""
"image-slider-2AFC","312","831830","0.0-41.48-1.48","1077","","","","7","","","","","","","","sizeS.png","714","7",""
"html-keyboard-response","313","832587","0.0-41.48-2.48","null","","","","","","","null","","","","","","","",""
"image-selector-fb","314","835592","0.0-41.49-0.49","null","pics2/VE3.jpg,pics2/SW6.jpg","","","","","","","false","null","","","noS.png","","",""
"image-slider-2AFC","315","837444","0.0-41.49-1.49","1849","","","","-8","","","","","","","","sizeS.png","1422","-8",""
"html-keyboard-response","316","838200","0.0-41.49-2.49","null","","","","","","","null","","","","","","","",""
"image-selector-fb","317","839651","0.0-41.50-0.50","944","pics2/SW1.jpg,pics2/SW4.jpg","","","","","","","false","0","","","sizeS.png","","",""
"image-slider-2AFC","318","841255","0.0-41.50-1.50","1602","","","","-7","","","","","","","","heartS.png","1242","-7",""
"html-keyboard-response","319","842009","0.0-41.50-2.50","null","","","","","","","null","","","","","","","",""
"image-selector-fb","320","845018","0.0-41.51-0.51","null","pics2/SW6.jpg,pics2/SW1.jpg","","","","","","","false","null","","","noS.png","","",""
"image-slider-2AFC","321","846208","0.0-41.51-1.51","1187","","","","7","","","","","","","","sizeS.png","794","7",""
"html-keyboard-response","322","846912","0.0-41.51-2.51","null","","","","","","","null","","","","","","","",""
"image-selector-fb","323","849917","0.0-41.52-0.52","null","pics2/SA3.jpg,pics2/SW1.jpg","","","","","","","false","null","","","noS.png","","",""
"image-slider-2AFC","324","851654","0.0-41.52-1.52","1733","","","","7","","","","","","","","heartS.png","1370","7",""
"html-keyboard-response","325","852408","0.0-41.52-2.52","null","","","","","","","null","","","","","","","",""
"image-selector-fb","326","854024","0.0-41.53-0.53","1115","pics2/SW5.jpg,pics2/SW6.jpg","","","","","","","true","1","","","heartS.png","","",""
"image-slider-2AFC","327","856151","0.0-41.53-1.53","2126","","","","9","","","","","","","","heartS.png","1772","9",""
"html-keyboard-response","328","857007","0.0-41.53-2.53","null","","","","","","","null","","","","","","","",""
"image-selector-fb","329","860010","0.0-41.54-0.54","null","pics2/SA6.jpg,pics2/SW4.jpg","","","","","","","false","null","","","noS.png","","",""
"image-slider-2AFC","330","861628","0.0-41.54-1.54","1617","","","","6","","","","","","","","sizeS.png","1264","6",""
"html-keyboard-response","331","862379","0.0-41.54-2.54","null","","","","","","","null","","","","","","","",""
"image-selector-fb","332","865384","0.0-41.55-0.55","null","pics2/SA2.jpg,pics2/SA3.jpg","","","","","","","false","null","","","noS.png","","",""
"image-slider-2AFC","333","867501","0.0-41.55-1.55","2113","","","","8","","","","","","","","sizeS.png","1752","8",""
"html-keyboard-response","334","868256","0.0-41.55-2.55","null","","","","","","","null","","","","","","","",""
"image-selector-fb","335","871262","0.0-41.56-0.56","null","pics2/SA6.jpg,pics2/VE5.jpg","","","","","","","false","null","","","noS.png","","",""
"image-slider-2AFC","336","873119","0.0-41.56-1.56","1854","","","","14","","","","","","","","heartS.png","1083","14",""
"html-keyboard-response","337","873827","0.0-41.56-2.56","null","","","","","","","null","","","","","","","",""
"image-selector-fb","338","875544","0.0-41.57-0.57","1212","pics2/SA6.jpg,pics2/FR6.jpg","","","","","","","true","1","","","heartS.png","","",""
"image-slider-2AFC","339","877890","0.0-41.57-1.57","2343","","","","6","","","","","","","","sizeS.png","1972","6",""
"html-keyboard-response","340","878595","0.0-41.57-2.57","null","","","","","","","null","","","","","","","",""
"image-selector-fb","341","880150","0.0-41.58-0.58","1049","pics2/SA2.jpg,pics2/SW4.jpg","","","","","","","true","1","","","heartS.png","","",""
"image-slider-2AFC","342","882323","0.0-41.58-1.58","2171","","","","6","","","","","","","","heartS.png","1857","6",""
"html-keyboard-response","343","883129","0.0-41.58-2.58","null","","","","","","","null","","","","","","","",""
"image-selector-fb","344","886135","0.0-41.59-0.59","null","pics2/SA6.jpg,pics2/SW6.jpg","","","","","","","false","null","","","noS.png","","",""
"image-slider-2AFC","345","888292","0.0-41.59-1.59","2153","","","","10","","","","","","","","sizeS.png","1799","10",""
"html-keyboard-response","346","889147","0.0-41.59-2.59","null","","","","","","","null","","","","","","","",""
"image-selector-fb","347","890411","0.0-41.60-0.60","756","pics2/SA4.jpg,pics2/FR5.jpg","","","","","","","true","1","","","sizeS.png","","",""
"image-slider-2AFC","348","891728","0.0-41.60-1.60","1314","","","","13","","","","","","","","heartS.png","922","13",""
"html-keyboard-response","349","892485","0.0-41.60-2.60","null","","","","","","","null","","","","","","","",""
"image-selector-fb","350","895492","0.0-41.61-0.61","null","pics2/SA2.jpg,pics2/SA6.jpg","","","","","","","false","null","","","noS.png","","",""
"image-slider-2AFC","351","898591","0.0-41.61-1.61","3098","","","","5","","","","","","","","heartS.png","2730","5",""
"html-keyboard-response","352","899445","0.0-41.61-2.61","null","","","","","","","null","","","","","","","",""
"image-selector-fb","353","902453","0.0-41.62-0.62","null","pics2/SW4.jpg,pics2/SW5.jpg","","","","","","","false","null","","","noS.png","","",""
"image-slider-2AFC","354","905504","0.0-41.62-1.62","3048","","","","5","","","","","","","","sizeS.png","2268","5",""
"html-keyboard-response","355","906356","0.0-41.62-2.62","null","","","","","","","null","","","","","","","",""
"image-selector-fb","356","907986","0.0-41.63-0.63","1123","pics2/SW6.jpg,pics2/VE5.jpg","","","","","","","false","0","","","sizeS.png","","",""
"image-slider-2AFC","357","909206","0.0-41.63-1.63","1217","","","","-11","","","","","","","","sizeS.png","822","-11",""
"html-keyboard-response","358","910060","0.0-41.63-2.63","null","","","","","","","null","","","","","","","",""
"image-selector-fb","359","911532","0.0-41.64-0.64","968","pics2/SW5.jpg,pics2/SW1.jpg","","","","","","","true","1","","","heartS.png","","",""
"image-slider-2AFC","360","912977","0.0-41.64-1.64","1442","","","","12","","","","","","","","heartS.png","1055","12",""
"html-keyboard-response","361","913831","0.0-41.64-2.64","null","","","","","","","null","","","","","","","",""
"image-selector-fb","362","916836","0.0-41.65-0.65","null","pics2/FR5.jpg,pics2/SW5.jpg","","","","","","","false","null","","","noS.png","","",""
"image-slider-2AFC","363","919142","0.0-41.65-1.65","2304","","","","-12","","","","","","","","sizeS.png","1926","-12",""
"html-keyboard-response","364","919894","0.0-41.65-2.65","null","","","","","","","null","","","","","","","",""
"pavlovia","365","919913","0.0-42.0","","","","","","","","","","","","","","","",""
"html-keyboard-response","366","924916","0.0-43.0","null","<div style='width: 700px;'> <font size=6><b>SHORT BREAK</font></b><br><br><i> Please wait 5 seconds to continue</i></div> ","","","","","","null","","","","","","","",""
"pavlovia","367","924918","0.0-44.0","","","","","","","","","","","","","","","",""
"html-button-response","368","1504411","0.0-45.0","579492","<div style='width: 700px;'> <font size=6><b>BLOCK 2</font></b><br><br>Press the button whenever you feel ready to start the second block (there are 3 in total)</div>","0","","","","","","","","","","","","",""
"image-selector-fb","369","1506263","0.0-46.0-0.0","1344","pics2/SW6.jpg,pics2/VE3.jpg","","","","","","","true","1","","","sizeS.png","","",""
"image-slider-2AFC","370","1508221","0.0-46.0-1.0","1956","","","","10","","","","","","","","sizeS.png","1447","10",""
"html-keyboard-response","371","1509078","0.0-46.0-2.0","null","","","","","","","null","","","","","","","",""
"image-selector-fb","372","1511361","0.0-46.1-0.1","1774","pics2/SW4.jpg,pics2/SA3.jpg","","","","","","","false","0","","","heartS.png","","",""
"image-slider-2AFC","373","1514172","0.0-46.1-1.1","2808","","","","-22","","","","","","","","heartS.png","2351","-22",""
"html-keyboard-response","374","1514975","0.0-46.1-2.1","null","","","","","","","null","","","","","","","",""
"image-selector-fb","375","1516236","0.0-46.2-0.2","757","pics2/SA4.jpg,pics2/FR6.jpg","","","","","","","true","1","","","heartS.png","","",""
"image-slider-2AFC","376","1517525","0.0-46.2-1.2","1286","","","","10","","","","","","","","sizeS.png","900","10",""
"html-keyboard-response","377","1518377","0.0-46.2-2.2","null","","","","","","","null","","","","","","","",""
"image-selector-fb","378","1520008","0.0-46.3-0.3","1127","pics2/SA6.jpg,pics2/FR5.jpg","","","","","","","true","1","","","heartS.png","","",""
"image-slider-2AFC","379","1521949","0.0-46.3-1.3","1938","","","","12","","","","","","","","heartS.png","1364","12",""
"html-keyboard-response","380","1522703","0.0-46.3-2.3","null","","","","","","","null","","","","","","","",""
"image-selector-fb","381","1524694","0.0-46.4-0.4","1487","pics2/SW4.jpg,pics2/VE5.jpg","","","","","","","false","0","","","sizeS.png","","",""
"image-slider-2AFC","382","1525835","0.0-46.4-1.4","1140","","","","9","","","","","","","","heartS.png","784","9",""
"html-keyboard-response","383","1526587","0.0-46.4-2.4","null","","","","","","","null","","","","","","","",""
"image-selector-fb","384","1529593","0.0-46.5-0.5","null","pics2/SA2.jpg,pics2/SW4.jpg","","","","","","","false","null","","","noS.png","","",""
"image-slider-2AFC","385","1530943","0.0-46.5-1.5","1346","","","","0","","","","","","","","heartS.png","574","0",""
"html-keyboard-response","386","1531796","0.0-46.5-2.5","null","","","","","","","null","","","","","","","",""
"image-selector-fb","387","1534937","0.0-46.6-0.6","2635","pics2/SA6.jpg,pics2/SA2.jpg","","","","","","","false","0","","","heartS.png","","",""
"image-slider-2AFC","388","1536264","0.0-46.6-1.6","1325","","","","11","","","","","","","","sizeS.png","939","11",""
"html-keyboard-response","389","1537016","0.0-46.6-2.6","null","","","","","","","null","","","","","","","",""
"image-selector-fb","390","1539154","0.0-46.7-0.7","1633","pics2/FR5.jpg,pics2/SW4.jpg","","","","","","","false","0","","","heartS.png","","",""
"image-slider-2AFC","391","1541131","0.0-46.7-1.7","1975","","","","10","","","","","","","","sizeS.png","1156","10",""
"html-keyboard-response","392","1541832","0.0-46.7-2.7","null","","","","","","","null","","","","","","","",""
"image-selector-fb","393","1544838","0.0-46.8-0.8","null","pics2/SW1.jpg,pics2/FR6.jpg","","","","","","","false","null","","","noS.png","","",""
"image-slider-2AFC","394","1546362","0.0-46.8-1.8","1521","","","","8","","","","","","","","heartS.png","1154","8",""
"html-keyboard-response","395","1547064","0.0-46.8-2.8","null","","","","","","","null","","","","","","","",""
"image-selector-fb","396","1549041","0.0-46.9-0.9","1473","pics2/SW5.jpg,pics2/VE5.jpg","","","","","","","true","1","","","sizeS.png","","",""
"image-slider-2AFC","397","1550157","0.0-46.9-1.9","1114","","","","10","","","","","","","","sizeS.png","770","10",""
"html-keyboard-response","398","1550961","0.0-46.9-2.9","null","","","","","","","null","","","","","","","",""
"image-selector-fb","399","1552465","0.0-46.10-0.10","1002","pics2/FR5.jpg,pics2/SW6.jpg","","","","","","","false","0","","","heartS.png","","",""
"image-slider-2AFC","400","1554352","0.0-46.10-1.10","1884","","","","-10","","","","","","","","sizeS.png","1211","-10",""
"html-keyboard-response","401","1555106","0.0-46.10-2.10","null","","","","","","","null","","","","","","","",""
"image-selector-fb","402","1558116","0.0-46.11-0.11","null","pics2/SA6.jpg,pics2/SW1.jpg","","","","","","","false","null","","","noS.png","","",""
"image-slider-2AFC","403","1559985","0.0-46.11-1.11","1867","","","","10","","","","","","","","sizeS.png","1177","10",""
"html-keyboard-response","404","1560838","0.0-46.11-2.11","null","","","","","","","null","","","","","","","",""
"image-selector-fb","405","1563846","0.0-46.12-0.12","null","pics2/SW4.jpg,pics2/VE5.jpg","","","","","","","false","null","","","noS.png","","",""
"image-slider-2AFC","406","1565542","0.0-46.12-1.12","1693","","","","4","","","","","","","","sizeS.png","1309","4",""
"html-keyboard-response","407","1566296","0.0-46.12-2.12","null","","","","","","","null","","","","","","","",""
"image-selector-fb","408","1569198","0.0-46.13-0.13","2397","pics2/SW6.jpg,pics2/FR6.jpg","","","","","","","true","1","","","sizeS.png","","",""
"image-slider-2AFC","409","1570397","0.0-46.13-1.13","1197","","","","-7","","","","","","","","heartS.png","752","-7",""
"html-keyboard-response","410","1571101","0.0-46.13-2.13","null","","","","","","","null","","","","","","","",""
"image-selector-fb","411","1572864","0.0-46.14-0.14","1255","pics2/FR5.jpg,pics2/SA6.jpg","","","","","","","false","0","","","sizeS.png","","",""
"image-slider-2AFC","412","1575903","0.0-46.14-1.14","3037","","","","-8","","","","","","","","sizeS.png","2570","-8",""
"html-keyboard-response","413","1576757","0.0-46.14-2.14","null","","","","","","","null","","","","","","","",""
"image-selector-fb","414","1579767","0.0-46.15-0.15","null","pics2/SA2.jpg,pics2/SW5.jpg","","","","","","","false","null","","","noS.png","","",""
"image-slider-2AFC","415","1583271","0.0-46.15-1.15","3500","","","","13","","","","","","","","sizeS.png","3040","13",""
"html-keyboard-response","416","1583974","0.0-46.15-2.15","null","","","","","","","null","","","","","","","",""
"image-selector-fb","417","1585787","0.0-46.16-0.16","1306","pics2/SW4.jpg,pics2/SW5.jpg","","","","","","","false","0","","","heartS.png","","",""
"image-slider-2AFC","418","1588524","0.0-46.16-1.16","2734","","","","-5","","","","","","","","heartS.png","2264","-5",""
"html-keyboard-response","419","1589377","0.0-46.16-2.16","null","","","","","","","null","","","","","","","",""
"image-selector-fb","420","1592384","0.0-46.17-0.17","null","pics2/SA3.jpg,pics2/SW6.jpg","","","","","","","false","null","","","noS.png","","",""
"image-slider-2AFC","421","1593674","0.0-46.17-1.17","1286","","","","12","","","","","","","","heartS.png","876","12",""
"html-keyboard-response","422","1594527","0.0-46.17-2.17","null","","","","","","","null","","","","","","","",""
"image-selector-fb","423","1597533","0.0-46.18-0.18","null","pics2/SA6.jpg,pics2/FR6.jpg","","","","","","","false","null","","","noS.png","","",""
"image-slider-2AFC","424","1599599","0.0-46.18-1.18","2065","","","","8","","","","","","","","sizeS.png","1722","8",""
"html-keyboard-response","425","1600353","0.0-46.18-2.18","null","","","","","","","null","","","","","","","",""
"image-selector-fb","426","1603831","0.0-46.19-0.19","2974","pics2/SW1.jpg,pics2/VE3.jpg","","","","","","","false","0","","","sizeS.png","","",""
"image-slider-2AFC","427","1608835","0.0-46.19-1.19","null","","","","null","","","","","","","","sizeS.png","","",""
"html-keyboard-response","428","1609689","0.0-46.19-2.19","null","","","","","","","null","","","","","","","",""
"image-selector-fb","429","1610975","0.0-46.20-0.20","783","pics2/SA3.jpg,pics2/SW1.jpg","","","","","","","false","0","","","sizeS.png","","",""
"image-slider-2AFC","430","1612404","0.0-46.20-1.20","1427","","","","6","","","","","","","","heartS.png","1069","6",""
"html-keyboard-response","431","1613207","0.0-46.20-2.20","null","","","","","","","null","","","","","","","",""
"image-selector-fb","432","1614853","0.0-46.21-0.21","1142","pics2/SA4.jpg,pics2/SW4.jpg","","","","","","","true","1","","","sizeS.png","","",""
"image-slider-2AFC","433","1616315","0.0-46.21-1.21","1459","","","","9","","","","","","","","sizeS.png","1063","9",""
"html-keyboard-response","434","1617019","0.0-46.21-2.21","null","","","","","","","null","","","","","","","",""
"image-selector-fb","435","1620027","0.0-46.22-0.22","null","pics2/SA2.jpg,pics2/VE5.jpg","","","","","","","false","null","","","noS.png","","",""
"image-slider-2AFC","436","1621806","0.0-46.22-1.22","1776","","","","11","","","","","","","","sizeS.png","1407","11",""
"html-keyboard-response","437","1622558","0.0-46.22-2.22","null","","","","","","","null","","","","","","","",""
"image-selector-fb","438","1625566","0.0-46.23-0.23","null","pics2/FR5.jpg,pics2/SA6.jpg","","","","","","","false","null","","","noS.png","","",""
"image-slider-2AFC","439","1628197","0.0-46.23-1.23","2628","","","","-33","","","","","","","","heartS.png","1993","-33",""
"html-keyboard-response","440","1628951","0.0-46.23-2.23","null","","","","","","","null","","","","","","","",""
"image-selector-fb","441","1630193","0.0-46.24-0.24","738","pics2/SW4.jpg,pics2/SA6.jpg","","","","","","","true","1","","","sizeS.png","","",""
"image-slider-2AFC","442","1631208","0.0-46.24-1.24","1012","","","","9","","","","","","","","sizeS.png","601","9",""
"html-keyboard-response","443","1632061","0.0-46.24-2.24","null","","","","","","","null","","","","","","","",""
"image-selector-fb","444","1633388","0.0-46.25-0.25","821","pics2/VE3.jpg,pics2/SA3.jpg","","","","","","","true","1","","","heartS.png","","",""
"image-slider-2AFC","445","1634683","0.0-46.25-1.25","1293","","","","-12","","","","","","","","sizeS.png","907","-12",""
"html-keyboard-response","446","1635437","0.0-46.25-2.25","null","","","","","","","null","","","","","","","",""
"image-selector-fb","447","1638444","0.0-46.26-0.26","null","pics2/SA2.jpg,pics2/FR6.jpg","","","","","","","false","null","","","noS.png","","",""
"image-slider-2AFC","448","1639887","0.0-46.26-1.26","1440","","","","6","","","","","","","","heartS.png","1113","6",""
"html-keyboard-response","449","1640740","0.0-46.26-2.26","null","","","","","","","null","","","","","","","",""
"image-selector-fb","450","1642191","0.0-46.27-0.27","945","pics2/FR5.jpg,pics2/SW1.jpg","","","","","","","false","0","","","heartS.png","","",""
"image-slider-2AFC","451","1643426","0.0-46.27-1.27","1231","","","","5","","","","","","","","sizeS.png","832","5",""
"html-keyboard-response","452","1644229","0.0-46.27-2.27","null","","","","","","","null","","","","","","","",""
"image-selector-fb","453","1645507","0.0-46.28-0.28","771","pics2/VE3.jpg,pics2/FR5.jpg","","","","","","","false","0","","","heartS.png","","",""
"image-slider-2AFC","454","1646760","0.0-46.28-1.28","1252","","","","5","","","","","","","","sizeS.png","866","5",""
"html-keyboard-response","455","1647562","0.0-46.28-2.28","null","","","","","","","null","","","","","","","",""
"image-selector-fb","456","1649530","0.0-46.29-0.29","1464","pics2/FR6.jpg,pics2/SA3.jpg","","","","","","","false","0","","","heartS.png","","",""
"image-slider-2AFC","457","1650695","0.0-46.29-1.29","1162","","","","-10","","","","","","","","heartS.png","719","-10",""
"html-keyboard-response","458","1651547","0.0-46.29-2.29","null","","","","","","","null","","","","","","","",""
"image-selector-fb","459","1652960","0.0-46.30-0.30","909","pics2/FR5.jpg,pics2/SA4.jpg","","","","","","","false","0","","","heartS.png","","",""
"image-slider-2AFC","460","1654021","0.0-46.30-1.30","1058","","","","-10","","","","","","","","heartS.png","697","-10",""
"html-keyboard-response","461","1654877","0.0-46.30-2.30","null","","","","","","","null","","","","","","","",""
"image-selector-fb","462","1656091","0.0-46.31-0.31","709","pics2/SA2.jpg,pics2/VE5.jpg","","","","","","","true","1","","","sizeS.png","","",""
"image-slider-2AFC","463","1657114","0.0-46.31-1.31","1020","","","","9","","","","","","","","sizeS.png","677","9",""
"html-keyboard-response","464","1657917","0.0-46.31-2.31","null","","","","","","","null","","","","","","","",""
"image-selector-fb","465","1659400","0.0-46.32-0.32","977","pics2/VE3.jpg,pics2/SA2.jpg","","","","","","","false","0","","","heartS.png","","",""
"image-slider-2AFC","466","1660637","0.0-46.32-1.32","1235","","","","-13","","","","","","","","heartS.png","787","-13",""
"html-keyboard-response","467","1661391","0.0-46.32-2.32","null","","","","","","","null","","","","","","","",""
"image-selector-fb","468","1664399","0.0-46.33-0.33","null","pics2/SW4.jpg,pics2/SW1.jpg","","","","","","","false","null","","","noS.png","","",""
"image-slider-2AFC","469","1666387","0.0-46.33-1.33","1986","","","","11","","","","","","","","heartS.png","1623","11",""
"html-keyboard-response","470","1667091","0.0-46.33-2.33","null","","","","","","","null","","","","","","","",""
"image-selector-fb","471","1670100","0.0-46.34-0.34","null","pics2/SW4.jpg,pics2/SA3.jpg","","","","","","","false","null","","","noS.png","","",""
"image-slider-2AFC","472","1671888","0.0-46.34-1.34","1785","","","","-11","","","","","","","","sizeS.png","1391","-11",""
"html-keyboard-response","473","1672591","0.0-46.34-2.34","null","","","","","","","null","","","","","","","",""
"image-selector-fb","474","1676731","0.0-46.35-0.35","3635","pics2/VE5.jpg,pics2/FR6.jpg","","","","","","","false","0","","","heartS.png","","",""
"image-slider-2AFC","475","1681737","0.0-46.35-1.35","null","","","","null","","","","","","","","sizeS.png","","",""
"html-keyboard-response","476","1682538","0.0-46.35-2.35","null","","","","","","","null","","","","","","","",""
"image-selector-fb","477","1684186","0.0-46.36-0.36","1144","pics2/SA2.jpg,pics2/SA3.jpg","","","","","","","true","1","","","heartS.png","","",""
"image-slider-2AFC","478","1685481","0.0-46.36-1.36","1293","","","","13","","","","","","","","sizeS.png","857","13",""
"html-keyboard-response","479","1686183","0.0-46.36-2.36","null","","","","","","","null","","","","","","","",""
"image-selector-fb","480","1687882","0.0-46.37-0.37","1194","pics2/FR6.jpg,pics2/VE5.jpg","","","","","","","true","1","","","sizeS.png","","",""
"image-slider-2AFC","481","1689055","0.0-46.37-1.37","1171","","","","-8","","","","","","","","heartS.png","753","-8",""
"html-keyboard-response","482","1689763","0.0-46.37-2.37","null","","","","","","","null","","","","","","","",""
"image-selector-fb","483","1692769","0.0-46.38-0.38","null","pics2/SA3.jpg,pics2/SA4.jpg","","","","","","","false","null","","","noS.png","","",""
"image-slider-2AFC","484","1693834","0.0-46.38-1.38","1062","","","","11","","","","","","","","sizeS.png","729","11",""
"html-keyboard-response","485","1694686","0.0-46.38-2.38","null","","","","","","","null","","","","","","","",""
"image-selector-fb","486","1697692","0.0-46.39-0.39","null","pics2/SA3.jpg,pics2/VE5.jpg","","","","","","","false","null","","","noS.png","","",""
"image-slider-2AFC","487","1699017","0.0-46.39-1.39","1321","","","","7","","","","","","","","sizeS.png","819","7",""
"html-keyboard-response","488","1699720","0.0-46.39-2.39","null","","","","","","","null","","","","","","","",""
"image-selector-fb","489","1702644","0.0-46.40-0.40","null","pics2/FR5.jpg,pics2/VE3.jpg","","","","","","","false","null","","","noS.png","","",""
"image-slider-2AFC","490","1704293","0.0-46.40-1.40","1648","","","","12","","","","","","","","sizeS.png","1220","12",""
"html-keyboard-response","491","1705097","0.0-46.40-2.40","null","","","","","","","null","","","","","","","",""
"image-selector-fb","492","1706646","0.0-46.41-0.41","1043","pics2/VE3.jpg,pics2/SA4.jpg","","","","","","","false","0","","","heartS.png","","",""
"image-slider-2AFC","493","1708737","0.0-46.41-1.41","2088","","","","-23","","","","","","","","sizeS.png","1626","-23",""
"html-keyboard-response","494","1709591","0.0-46.41-2.41","null","","","","","","","null","","","","","","","",""
"image-selector-fb","495","1712597","0.0-46.42-0.42","null","pics2/FR6.jpg,pics2/VE5.jpg","","","","","","","false","null","","","noS.png","","",""
"image-slider-2AFC","496","1713464","0.0-46.42-1.42","864","","","","1","","","","","","","","heartS.png","554","1",""
"html-keyboard-response","497","1714317","0.0-46.42-2.42","null","","","","","","","null","","","","","","","",""
"image-selector-fb","498","1716390","0.0-46.43-0.43","1567","pics2/FR5.jpg,pics2/FR6.jpg","","","","","","","true","1","","","heartS.png","","",""
"image-slider-2AFC","499","1718170","0.0-46.43-1.43","1779","","","","0","","","","","","","","sizeS.png","1483","0",""
"html-keyboard-response","500","1719024","0.0-46.43-2.43","null","","","","","","","null","","","","","","","",""
"image-selector-fb","501","1722030","0.0-46.44-0.44","null","pics2/SW6.jpg,pics2/VE5.jpg","","","","","","","false","null","","","noS.png","","",""
"image-slider-2AFC","502","1723089","0.0-46.44-1.44","1057","","","","0","","","","","","","","heartS.png","705","0",""
"html-keyboard-response","503","1723794","0.0-46.44-2.44","null","","","","","","","null","","","","","","","",""
"image-selector-fb","504","1726803","0.0-46.45-0.45","null","pics2/SW5.jpg,pics2/SW1.jpg","","","","","","","false","null","","","noS.png","","",""
"image-slider-2AFC","505","1727990","0.0-46.45-1.45","1186","","","","0","","","","","","","","sizeS.png","858","0",""
"html-keyboard-response","506","1728693","0.0-46.45-2.45","null","","","","","","","null","","","","","","","",""
"image-selector-fb","507","1731606","0.0-46.46-0.46","2408","pics2/SW5.jpg,pics2/SA6.jpg","","","","","","","true","1","","","sizeS.png","","",""
"image-slider-2AFC","508","1733526","0.0-46.46-1.46","1918","","","","-1","","","","","","","","heartS.png","1490","-1",""
"html-keyboard-response","509","1734278","0.0-46.46-2.46","null","","","","","","","null","","","","","","","",""
"image-selector-fb","510","1737287","0.0-46.47-0.47","null","pics2/SA3.jpg,pics2/SW5.jpg","","","","","","","false","null","","","noS.png","","",""
"image-slider-2AFC","511","1740966","0.0-46.47-1.47","3677","","","","-14","","","","","","","","sizeS.png","3283","-14",""
"html-keyboard-response","512","1741770","0.0-46.47-2.47","null","","","","","","","null","","","","","","","",""
"image-selector-fb","513","1743399","0.0-46.48-0.48","1122","pics2/VE5.jpg,pics2/SA2.jpg","","","","","","","true","1","","","heartS.png","","",""
"image-slider-2AFC","514","1744680","0.0-46.48-1.48","1279","","","","-4","","","","","","","","sizeS.png","901","-4",""
"html-keyboard-response","515","1745533","0.0-46.48-2.48","null","","","","","","","null","","","","","","","",""
"image-selector-fb","516","1746751","0.0-46.49-0.49","714","pics2/SW6.jpg,pics2/SA6.jpg","","","","","","","true","1","","","sizeS.png","","",""
"image-slider-2AFC","517","1748155","0.0-46.49-1.49","1401","","","","-4","","","","","","","","heartS.png","981","-4",""
"html-keyboard-response","518","1748862","0.0-46.49-2.49","null","","","","","","","null","","","","","","","",""
"image-selector-fb","519","1751870","0.0-46.50-0.50","null","pics2/FR5.jpg,pics2/VE5.jpg","","","","","","","false","null","","","noS.png","","",""
"image-slider-2AFC","520","1754055","0.0-46.50-1.50","2183","","","","-23","","","","","","","","sizeS.png","1632","-23",""
"html-keyboard-response","521","1754808","0.0-46.50-2.50","null","","","","","","","null","","","","","","","",""
"image-selector-fb","522","1757262","0.0-46.51-0.51","1946","pics2/SW6.jpg,pics2/SA2.jpg","","","","","","","true","1","","","sizeS.png","","",""
"image-slider-2AFC","523","1758531","0.0-46.51-1.51","1264","","","","-16","","","","","","","","heartS.png","856","-16",""
"html-keyboard-response","524","1759384","0.0-46.51-2.51","null","","","","","","","null","","","","","","","",""
"image-selector-fb","525","1762390","0.0-46.52-0.52","null","pics2/SA6.jpg,pics2/SA3.jpg","","","","","","","false","null","","","noS.png","","",""
"image-slider-2AFC","526","1763843","0.0-46.52-1.52","1452","","","","-7","","","","","","","","heartS.png","1011","-7",""
"html-keyboard-response","527","1764545","0.0-46.52-2.52","null","","","","","","","null","","","","","","","",""
"image-selector-fb","528","1766368","0.0-46.53-0.53","1317","pics2/SW5.jpg,pics2/FR5.jpg","","","","","","","true","1","","","sizeS.png","","",""
"image-slider-2AFC","529","1768640","0.0-46.53-1.53","2269","","","","22","","","","","","","","sizeS.png","1809","22",""
"html-keyboard-response","530","1769393","0.0-46.53-2.53","null","","","","","","","null","","","","","","","",""
"image-selector-fb","531","1772400","0.0-46.54-0.54","null","pics2/FR5.jpg,pics2/SW4.jpg","","","","","","","false","null","","","noS.png","","",""
"image-slider-2AFC","532","1774846","0.0-46.54-1.54","2444","","","","-11","","","","","","","","heartS.png","2057","-11",""
"html-keyboard-response","533","1775652","0.0-46.54-2.54","null","","","","","","","null","","","","","","","",""
"image-selector-fb","534","1777189","0.0-46.55-0.55","1034","pics2/SW6.jpg,pics2/SA3.jpg","","","","","","","false","0","","","sizeS.png","","",""
"image-slider-2AFC","535","1778434","0.0-46.55-1.55","1242","","","","-10","","","","","","","","sizeS.png","883","-10",""
"html-keyboard-response","536","1779136","0.0-46.55-2.55","null","","","","","","","null","","","","","","","",""
"image-selector-fb","537","1780991","0.0-46.56-0.56","1351","pics2/VE5.jpg,pics2/SW5.jpg","","","","","","","false","0","","","heartS.png","","",""
"image-slider-2AFC","538","1782394","0.0-46.56-1.56","1401","","","","-11","","","","","","","","heartS.png","1064","-11",""
"html-keyboard-response","539","1783251","0.0-46.56-2.56","null","","","","","","","null","","","","","","","",""
"image-selector-fb","540","1786257","0.0-46.57-0.57","null","pics2/SW5.jpg,pics2/VE5.jpg","","","","","","","false","null","","","noS.png","","",""
"image-slider-2AFC","541","1789336","0.0-46.57-1.57","3077","","","","30","","","","","","","","heartS.png","2283","30",""
"html-keyboard-response","542","1790190","0.0-46.57-2.57","null","","","","","","","null","","","","","","","",""
"image-selector-fb","543","1791639","0.0-46.58-0.58","941","pics2/SA2.jpg,pics2/VE3.jpg","","","","","","","true","1","","","sizeS.png","","",""
"image-slider-2AFC","544","1793066","0.0-46.58-1.58","1423","","","","10","","","","","","","","sizeS.png","1037","10",""
"html-keyboard-response","545","1793773","0.0-46.58-2.58","null","","","","","","","null","","","","","","","",""
"image-selector-fb","546","1796779","0.0-46.59-0.59","null","pics2/SW5.jpg,pics2/FR6.jpg","","","","","","","false","null","","","noS.png","","",""
"image-slider-2AFC","547","1798827","0.0-46.59-1.59","2044","","","","-15","","","","","","","","sizeS.png","1682","-15",""
"html-keyboard-response","548","1799682","0.0-46.59-2.59","null","","","","","","","null","","","","","","","",""
"image-selector-fb","549","1801117","0.0-46.60-0.60","929","pics2/SA3.jpg,pics2/FR5.jpg","","","","","","","true","1","","","sizeS.png","","",""
"image-slider-2AFC","550","1802406","0.0-46.60-1.60","1286","","","","19","","","","","","","","sizeS.png","860","19",""
"html-keyboard-response","551","1803161","0.0-46.60-2.60","null","","","","","","","null","","","","","","","",""
"image-selector-fb","552","1806166","0.0-46.61-0.61","null","pics2/VE3.jpg,pics2/FR6.jpg","","","","","","","false","null","","","noS.png","","",""
"image-slider-2AFC","553","1807193","0.0-46.61-1.61","1025","","","","-29","","","","","","","","sizeS.png","622","-29",""
"html-keyboard-response","554","1807895","0.0-46.61-2.61","null","","","","","","","null","","","","","","","",""
"image-selector-fb","555","1809175","0.0-46.62-0.62","775","pics2/SA3.jpg,pics2/SA2.jpg","","","","","","","true","1","","","sizeS.png","","",""
"image-slider-2AFC","556","1810380","0.0-46.62-1.62","1201","","","","10","","","","","","","","heartS.png","742","10",""
"html-keyboard-response","557","1811081","0.0-46.62-2.62","null","","","","","","","null","","","","","","","",""
"image-selector-fb","558","1814087","0.0-46.63-0.63","null","pics2/VE3.jpg,pics2/VE5.jpg","","","","","","","false","null","","","noS.png","","",""
"image-slider-2AFC","559","1815716","0.0-46.63-1.63","1627","","","","-24","","","","","","","","heartS.png","1052","-24",""
"html-keyboard-response","560","1816518","0.0-46.63-2.63","null","","","","","","","null","","","","","","","",""
"image-selector-fb","561","1817879","0.0-46.64-0.64","854","pics2/SW5.jpg,pics2/SW4.jpg","","","","","","","true","1","","","sizeS.png","","",""
"image-slider-2AFC","562","1820002","0.0-46.64-1.64","2121","","","","-10","","","","","","","","heartS.png","717,1762","6,-10",""
"html-keyboard-response","563","1820704","0.0-46.64-2.64","null","","","","","","","null","","","","","","","",""
"image-selector-fb","564","1823710","0.0-46.65-0.65","null","pics2/SW4.jpg,pics2/SA4.jpg","","","","","","","false","null","","","noS.png","","",""
"image-slider-2AFC","565","1825316","0.0-46.65-1.65","1603","","","","8","","","","","","","","sizeS.png","1226","8",""
"html-keyboard-response","566","1826171","0.0-46.65-2.65","null","","","","","","","null","","","","","","","",""
"pavlovia","567","1826202","0.0-47.0","","","","","","","","","","","","","","","",""
"html-keyboard-response","568","1831204","0.0-48.0","null","<div style='width: 700px;'> <font size=6><b>SHORT BREAK</font></b><br><br><i> Please wait 5 seconds to continue</i></div> ","","","","","","null","","","","","","","",""
"pavlovia","569","1831206","0.0-49.0","","","","","","","","","","","","","","","",""
"html-button-response","570","2421812","0.0-50.0","590605","<div style='width: 700px;'> <font size=6><b>BLOCK 3</font></b><br><br>Press the button whenever you feel ready to start the third and final block</div>","0","","","","","","","","","","","","",""
"image-selector-fb","571","2423919","0.0-51.0-0.0","1600","pics2/VE5.jpg,pics2/VE3.jpg","","","","","","","false","0","","","heartS.png","","",""
"image-slider-2AFC","572","2424842","0.0-51.0-1.0","920","","","","-6","","","","","","","","heartS.png","626","-6",""
"html-keyboard-response","573","2425695","0.0-51.0-2.0","null","","","","","","","null","","","","","","","",""
"image-selector-fb","574","2426949","0.0-51.1-0.1","746","pics2/SA3.jpg,pics2/SW4.jpg","","","","","","","true","1","","","sizeS.png","","",""
"image-slider-2AFC","575","2428498","0.0-51.1-1.1","1544","","","","-6","","","","","","","","heartS.png","837","-6",""
"html-keyboard-response","576","2429204","0.0-51.1-2.1","null","","","","","","","null","","","","","","","",""
"image-selector-fb","577","2432215","0.0-51.2-0.2","null","pics2/SA2.jpg,pics2/FR5.jpg","","","","","","","false","null","","","noS.png","","",""
"image-slider-2AFC","578","2433382","0.0-51.2-1.2","1164","","","","13","","","","","","","","sizeS.png","772","13",""
"html-keyboard-response","579","2434085","0.0-51.2-2.2","null","","","","","","","null","","","","","","","",""
"image-selector-fb","580","2436633","0.0-51.3-0.3","2037","pics2/SA3.jpg,pics2/SA6.jpg","","","","","","","false","0","","","sizeS.png","","",""
"image-slider-2AFC","581","2441568","0.0-51.3-1.3","4932","","","","18","","","","","","","","heartS.png","3389,4430","-37,18",""
"html-keyboard-response","582","2442273","0.0-51.3-2.3","null","","","","","","","null","","","","","","","",""
"image-selector-fb","583","2445887","0.0-51.4-0.4","3105","pics2/SW5.jpg,pics2/SA2.jpg","","","","","","","true","1","","","sizeS.png","","",""
"image-slider-2AFC","584","2448774","0.0-51.4-1.4","2883","","","","6","","","","","","","","heartS.png","2415","6",""
"html-keyboard-response","585","2449530","0.0-51.4-2.4","null","","","","","","","null","","","","","","","",""
"image-selector-fb","586","2452539","0.0-51.5-0.5","null","pics2/SA6.jpg,pics2/SW5.jpg","","","","","","","false","null","","","noS.png","","",""
"image-slider-2AFC","587","2453513","0.0-51.5-1.5","972","","","","-5","","","","","","","","heartS.png","617","-5",""
"html-keyboard-response","588","2454315","0.0-51.5-2.5","null","","","","","","","null","","","","","","","",""
"image-selector-fb","589","2456739","0.0-51.6-0.6","1921","pics2/FR6.jpg,pics2/SA2.jpg","","","","","","","true","1","","","sizeS.png","","",""
"image-slider-2AFC","590","2458743","0.0-51.6-1.6","2002","","","","8","","","","","","","","sizeS.png","1571","8",""
"html-keyboard-response","591","2459447","0.0-51.6-2.6","null","","","","","","","null","","","","","","","",""
"image-selector-fb","592","2462454","0.0-51.7-0.7","null","pics2/VE3.jpg,pics2/SW5.jpg","","","","","","","false","null","","","noS.png","","",""
"image-slider-2AFC","593","2463527","0.0-51.7-1.7","1071","","","","-11","","","","","","","","heartS.png","637","-11",""
"html-keyboard-response","594","2464329","0.0-51.7-2.7","null","","","","","","","null","","","","","","","",""
"image-selector-fb","595","2466694","0.0-51.8-0.8","1860","pics2/VE3.jpg,pics2/SW4.jpg","","","","","","","false","0","","","heartS.png","","",""
"image-slider-2AFC","596","2467856","0.0-51.8-1.8","1159","","","","-10","","","","","","","","heartS.png","855","-10",""
"html-keyboard-response","597","2468658","0.0-51.8-2.8","null","","","","","","","null","","","","","","","",""
"image-selector-fb","598","2472235","0.0-51.9-0.9","3073","pics2/SA6.jpg,pics2/SW4.jpg","","","","","","","false","0","","","heartS.png","","",""
"image-slider-2AFC","599","2473318","0.0-51.9-1.9","1078","","","","-10","","","","","","","","sizeS.png","682","-10",""
"html-keyboard-response","600","2474171","0.0-51.9-2.9","null","","","","","","","null","","","","","","","",""
"image-selector-fb","601","2475628","0.0-51.10-0.10","951","pics2/SA6.jpg,pics2/SA3.jpg","","","","","","","false","0","","","heartS.png","","",""
"image-slider-2AFC","602","2476640","0.0-51.10-1.10","1010","","","","-6","","","","","","","","heartS.png","684","-6",""
"html-keyboard-response","603","2477345","0.0-51.10-2.10","null","","","","","","","null","","","","","","","",""
"image-selector-fb","604","2480350","0.0-51.11-0.11","null","pics2/SW4.jpg,pics2/SW6.jpg","","","","","","","false","null","","","noS.png","","",""
"image-slider-2AFC","605","2482094","0.0-51.11-1.11","1742","","","","14","","","","","","","","heartS.png","1372","14",""
"html-keyboard-response","606","2482946","0.0-51.11-2.11","null","","","","","","","null","","","","","","","",""
"image-selector-fb","607","2487017","0.0-51.12-0.12","3565","pics2/SW5.jpg,pics2/FR6.jpg","","","","","","","false","0","","","heartS.png","","",""
"image-slider-2AFC","608","2488044","0.0-51.12-1.12","1022","","","","-9","","","","","","","","heartS.png","690","-9",""
"html-keyboard-response","609","2488798","0.0-51.12-2.12","null","","","","","","","null","","","","","","","",""
"image-selector-fb","610","2490095","0.0-51.13-0.13","791","pics2/SA2.jpg,pics2/SW1.jpg","","","","","","","true","1","","","heartS.png","","",""
"image-slider-2AFC","611","2491076","0.0-51.13-1.13","978","","","","7","","","","","","","","heartS.png","625","7",""
"html-keyboard-response","612","2491779","0.0-51.13-2.13","null","","","","","","","null","","","","","","","",""
"image-selector-fb","613","2493131","0.0-51.14-0.14","849","pics2/FR5.jpg,pics2/VE3.jpg","","","","","","","false","0","","","sizeS.png","","",""
"image-slider-2AFC","614","2494806","0.0-51.14-1.14","1673","","","","-6","","","","","","","","heartS.png","1195","-6",""
"html-keyboard-response","615","2495607","0.0-51.14-2.14","null","","","","","","","null","","","","","","","",""
"image-selector-fb","616","2498612","0.0-51.15-0.15","null","pics2/SA6.jpg,pics2/VE3.jpg","","","","","","","false","null","","","noS.png","","",""
"image-slider-2AFC","617","2500601","0.0-51.15-1.15","1986","","","","-12","","","","","","","","heartS.png","1639","-12",""
"html-keyboard-response","618","2501304","0.0-51.15-2.15","null","","","","","","","null","","","","","","","",""
"image-selector-fb","619","2504311","0.0-51.16-0.16","null","pics2/SW5.jpg,pics2/SA4.jpg","","","","","","","false","null","","","noS.png","","",""
"image-slider-2AFC","620","2506538","0.0-51.16-1.16","2224","","","","8","","","","","","","","heartS.png","1787","8",""
"html-keyboard-response","621","2507239","0.0-51.16-2.16","null","","","","","","","null","","","","","","","",""
"image-selector-fb","622","2509955","0.0-51.17-0.17","2210","pics2/SA6.jpg,pics2/VE3.jpg","","","","","","","false","0","","","heartS.png","","",""
"image-slider-2AFC","623","2510986","0.0-51.17-1.17","1029","","","","-4","","","","","","","","heartS.png","728","-4",""
"html-keyboard-response","624","2511788","0.0-51.17-2.17","null","","","","","","","null","","","","","","","",""
"image-selector-fb","625","2513861","0.0-51.18-0.18","1567","pics2/FR6.jpg,pics2/SW1.jpg","","","","","","","true","1","","","sizeS.png","","",""
"image-slider-2AFC","626","2516792","0.0-51.18-1.18","2929","","","","52","","","","","","","","sizeS.png","2313","52",""
"html-keyboard-response","627","2517497","0.0-51.18-2.18","null","","","","","","","null","","","","","","","",""
"image-selector-fb","628","2519553","0.0-51.19-0.19","1552","pics2/SA2.jpg,pics2/SA4.jpg","","","","","","","true","1","","","heartS.png","","",""
"image-slider-2AFC","629","2521258","0.0-51.19-1.19","1703","","","","-8","","","","","","","","sizeS.png","843","-8",""
"html-keyboard-response","630","2522014","0.0-51.19-2.19","null","","","","","","","null","","","","","","","",""
"image-selector-fb","631","2523750","0.0-51.20-0.20","1231","pics2/VE5.jpg,pics2/SA6.jpg","","","","","","","false","0","","","heartS.png","","",""
"image-slider-2AFC","632","2525481","0.0-51.20-1.20","1726","","","","-7","","","","","","","","sizeS.png","1331","-7",""
"html-keyboard-response","633","2526234","0.0-51.20-2.20","null","","","","","","","null","","","","","","","",""
"image-selector-fb","634","2528477","0.0-51.21-0.21","1737","pics2/SW1.jpg,pics2/SA2.jpg","","","","","","","false","0","","","sizeS.png","","",""
"image-slider-2AFC","635","2529763","0.0-51.21-1.21","1285","","","","20","","","","","","","","heartS.png","875","20",""
"html-keyboard-response","636","2530467","0.0-51.21-2.21","null","","","","","","","null","","","","","","","",""
"image-selector-fb","637","2532286","0.0-51.22-0.22","1316","pics2/SW1.jpg,pics2/FR6.jpg","","","","","","","true","1","","","heartS.png","","",""
"image-slider-2AFC","638","2533279","0.0-51.22-1.22","991","","","","13","","","","","","","","heartS.png","611","13",""
"html-keyboard-response","639","2533982","0.0-51.22-2.22","null","","","","","","","null","","","","","","","",""
"image-selector-fb","640","2536064","0.0-51.23-0.23","1577","pics2/SA3.jpg,pics2/SW6.jpg","","","","","","","true","1","","","heartS.png","","",""
"image-slider-2AFC","641","2537276","0.0-51.23-1.23","1210","","","","19","","","","","","","","heartS.png","791","19",""
"html-keyboard-response","642","2538129","0.0-51.23-2.23","null","","","","","","","null","","","","","","","",""
"image-selector-fb","643","2540289","0.0-51.24-0.24","1655","pics2/SA4.jpg,pics2/SW6.jpg","","","","","","","true","1","","","heartS.png","","",""
"image-slider-2AFC","644","2541478","0.0-51.24-1.24","1187","","","","-11","","","","","","","","sizeS.png","826","-11",""
"html-keyboard-response","645","2542330","0.0-51.24-2.24","null","","","","","","","null","","","","","","","",""
"image-selector-fb","646","2543517","0.0-51.25-0.25","682","pics2/SA3.jpg,pics2/FR6.jpg","","","","","","","true","1","","","sizeS.png","","",""
"image-slider-2AFC","647","2544564","0.0-51.25-1.25","1045","","","","3","","","","","","","","heartS.png","711","3",""
"html-keyboard-response","648","2545368","0.0-51.25-2.25","null","","","","","","","null","","","","","","","",""
"image-selector-fb","649","2547456","0.0-51.26-0.26","1583","pics2/SW6.jpg,pics2/SW5.jpg","","","","","","","false","0","","","sizeS.png","","",""
"image-slider-2AFC","650","2550058","0.0-51.26-1.26","2599","","","","41","","","","","","","","sizeS.png","2059","41",""
"html-keyboard-response","651","2550863","0.0-51.26-2.26","null","","","","","","","null","","","","","","","",""
"image-selector-fb","652","2552131","0.0-51.27-0.27","762","pics2/SA6.jpg,pics2/SW5.jpg","","","","","","","true","1","","","heartS.png","","",""
"image-slider-2AFC","653","2553828","0.0-51.27-1.27","1694","","","","-6","","","","","","","","heartS.png","1350","-6",""
"html-keyboard-response","654","2554581","0.0-51.27-2.27","null","","","","","","","null","","","","","","","",""
"image-selector-fb","655","2557587","0.0-51.28-0.28","null","pics2/SA2.jpg,pics2/SW6.jpg","","","","","","","false","null","","","noS.png","","",""
"image-slider-2AFC","656","2559617","0.0-51.28-1.28","2027","","","","11","","","","","","","","heartS.png","1707","11",""
"html-keyboard-response","657","2560472","0.0-51.28-2.28","null","","","","","","","null","","","","","","","",""
"image-selector-fb","658","2563479","0.0-51.29-0.29","null","pics2/SW1.jpg,pics2/VE5.jpg","","","","","","","false","null","","","noS.png","","",""
"image-slider-2AFC","659","2565052","0.0-51.29-1.29","1570","","","","-19","","","","","","","","sizeS.png","1152","-19",""
"html-keyboard-response","660","2565756","0.0-51.29-2.29","null","","","","","","","null","","","","","","","",""
"image-selector-fb","661","2568025","0.0-51.30-0.30","1766","pics2/SW6.jpg,pics2/SA4.jpg","","","","","","","false","0","","","sizeS.png","","",""
"image-slider-2AFC","662","2569397","0.0-51.30-1.30","1370","","","","-14","","","","","","","","sizeS.png","820","-14",""
"html-keyboard-response","663","2570102","0.0-51.30-2.30","null","","","","","","","null","","","","","","","",""
"image-selector-fb","664","2571409","0.0-51.31-0.31","803","pics2/FR6.jpg,pics2/FR5.jpg","","","","","","","true","1","","","sizeS.png","","",""
"image-slider-2AFC","665","2572739","0.0-51.31-1.31","1328","","","","9","","","","","","","","heartS.png","973","9",""
"html-keyboard-response","666","2573592","0.0-51.31-2.31","null","","","","","","","null","","","","","","","",""
"image-selector-fb","667","2574835","0.0-51.32-0.32","738","pics2/SA4.jpg,pics2/SW1.jpg","","","","","","","true","1","","","sizeS.png","","",""
"image-slider-2AFC","668","2575951","0.0-51.32-1.32","1113","","","","19","","","","","","","","sizeS.png","725","19",""
"html-keyboard-response","669","2576703","0.0-51.32-2.32","null","","","","","","","null","","","","","","","",""
"image-selector-fb","670","2578341","0.0-51.33-0.33","1133","pics2/SA6.jpg,pics2/VE5.jpg","","","","","","","true","1","","","sizeS.png","","",""
"image-slider-2AFC","671","2582437","0.0-51.33-1.33","4093","","","","10","","","","","","","","heartS.png","3602","10",""
"html-keyboard-response","672","2583142","0.0-51.33-2.33","null","","","","","","","null","","","","","","","",""
"image-selector-fb","673","2585403","0.0-51.34-0.34","1756","pics2/VE5.jpg,pics2/SW6.jpg","","","","","","","true","1","","","heartS.png","","",""
"image-slider-2AFC","674","2586500","0.0-51.34-1.34","1095","","","","7","","","","","","","","sizeS.png","750","7",""
"html-keyboard-response","675","2587256","0.0-51.34-2.34","null","","","","","","","null","","","","","","","",""
"image-selector-fb","676","2590263","0.0-51.35-0.35","null","pics2/VE3.jpg,pics2/SA4.jpg","","","","","","","false","null","","","noS.png","","",""
"image-slider-2AFC","677","2591461","0.0-51.35-1.35","1195","","","","-20","","","","","","","","heartS.png","638","-20",""
"html-keyboard-response","678","2592165","0.0-51.35-2.35","null","","","","","","","null","","","","","","","",""
"image-selector-fb","679","2593639","0.0-51.36-0.36","969","pics2/FR6.jpg,pics2/SW4.jpg","","","","","","","true","1","","","sizeS.png","","",""
"image-slider-2AFC","680","2595066","0.0-51.36-1.36","1424","","","","22","","","","","","","","sizeS.png","1047","22",""
"html-keyboard-response","681","2595869","0.0-51.36-2.36","null","","","","","","","null","","","","","","","",""
"image-selector-fb","682","2598878","0.0-51.37-0.37","null","pics2/SA6.jpg,pics2/SA4.jpg","","","","","","","false","null","","","noS.png","","",""
"image-slider-2AFC","683","2601325","0.0-51.37-1.37","2443","","","","-20","","","","","","","","heartS.png","1327","-20",""
"html-keyboard-response","684","2602079","0.0-51.37-2.37","null","","","","","","","null","","","","","","","",""
"image-selector-fb","685","2605084","0.0-51.38-0.38","null","pics2/SA3.jpg,pics2/FR6.jpg","","","","","","","false","null","","","noS.png","","",""
"image-slider-2AFC","686","2606925","0.0-51.38-1.38","1838","","","","7","","","","","","","","heartS.png","1008","7",""
"html-keyboard-response","687","2607778","0.0-51.38-2.38","null","","","","","","","null","","","","","","","",""
"image-selector-fb","688","2609579","0.0-51.39-0.39","1295","pics2/FR5.jpg,pics2/SW5.jpg","","","","","","","false","0","","","heartS.png","","",""
"image-slider-2AFC","689","2611431","0.0-51.39-1.39","1850","","","","-21","","","","","","","","heartS.png","1326","-21",""
"html-keyboard-response","690","2612185","0.0-51.39-2.39","null","","","","","","","null","","","","","","","",""
"image-selector-fb","691","2613593","0.0-51.40-0.40","904","pics2/SA4.jpg,pics2/VE3.jpg","","","","","","","true","1","","","sizeS.png","","",""
"image-slider-2AFC","692","2615488","0.0-51.40-1.40","1894","","","","21","","","","","","","","heartS.png","1252","21",""
"html-keyboard-response","693","2616191","0.0-51.40-2.40","null","","","","","","","null","","","","","","","",""
"image-selector-fb","694","2619200","0.0-51.41-0.41","null","pics2/SW1.jpg,pics2/SA4.jpg","","","","","","","false","null","","","noS.png","","",""
"image-slider-2AFC","695","2620933","0.0-51.41-1.41","1730","","","","-27","","","","","","","","sizeS.png","1246","-27",""
"html-keyboard-response","696","2621738","0.0-51.41-2.41","null","","","","","","","null","","","","","","","",""
"image-selector-fb","697","2624746","0.0-51.42-0.42","null","pics2/FR5.jpg,pics2/SA3.jpg","","","","","","","false","null","","","noS.png","","",""
"image-slider-2AFC","698","2626953","0.0-51.42-1.42","2204","","","","-20","","","","","","","","sizeS.png","1770","-20",""
"html-keyboard-response","699","2627706","0.0-51.42-2.42","null","","","","","","","null","","","","","","","",""
"image-selector-fb","700","2630713","0.0-51.43-0.43","null","pics2/SA4.jpg,pics2/FR6.jpg","","","","","","","false","null","","","noS.png","","",""
"image-slider-2AFC","701","2633276","0.0-51.43-1.43","2558","","","","27","","","","","","","","heartS.png","1944","27",""
"html-keyboard-response","702","2634129","0.0-51.43-2.43","null","","","","","","","null","","","","","","","",""
"image-selector-fb","703","2635870","0.0-51.44-0.44","1237","pics2/SW4.jpg,pics2/FR6.jpg","","","","","","","true","1","","","heartS.png","","",""
"image-slider-2AFC","704","2637882","0.0-51.44-1.44","2008","","","","9","","","","","","","","sizeS.png","1435","9",""
"html-keyboard-response","705","2638586","0.0-51.44-2.44","null","","","","","","","null","","","","","","","",""
"image-selector-fb","706","2641595","0.0-51.45-0.45","null","pics2/VE3.jpg,pics2/SW4.jpg","","","","","","","false","null","","","noS.png","","",""
"image-slider-2AFC","707","2643889","0.0-51.45-1.45","2290","","","","-20","","","","","","","","sizeS.png","1849","-20",""
"html-keyboard-response","708","2644644","0.0-51.45-2.45","null","","","","","","","null","","","","","","","",""
"image-selector-fb","709","2647204","0.0-51.46-0.46","2052","pics2/VE5.jpg,pics2/SA4.jpg","","","","","","","true","1","","","heartS.png","","",""
"image-slider-2AFC","710","2648856","0.0-51.46-1.46","1649","","","","-24","","","","","","","","heartS.png","1192","-24",""
"html-keyboard-response","711","2649660","0.0-51.46-2.46","null","","","","","","","null","","","","","","","",""
"image-selector-fb","712","2651182","0.0-51.47-0.47","1016","pics2/SA2.jpg,pics2/SW6.jpg","","","","","","","true","1","","","heartS.png","","",""
"image-slider-2AFC","713","2652847","0.0-51.47-1.47","1663","","","","18","","","","","","","","heartS.png","1154","18",""
"html-keyboard-response","714","2653601","0.0-51.47-2.47","null","","","","","","","null","","","","","","","",""
