"trial_type","trial_index","time_elapsed","internal_node_id","rt","stimulus","button_pressed","success","response","cat","value","key_press","correct","image_click","first_click_rt","first_click_val","symbol","all_click_rt","all_click_val","view_history"
"pavlovia","0","5","0.0-0.0","","","","","","","","","","","","","","","",""
"html-button-response","1","3291","0.0-1.0","3285","<div style='width: 700px; font-size: 150%'><font size='40'>  Welcome to our study!</font><br><br><br> <small> Our experiment is about <i>decision making</i>. You will choose and rate different food items, such as these: <br><br> <div><img src='food_combo2.png', height = '400px'></img></div>","0","","","","","","","","","","","","",""
"html-button-response","2","11043","0.0-2.0","7750","<div style='width: 700px; font-size: 150%'><br><br><br><small> <u><i>This is a multi-part study.</i></u><br><br> In the first part you will rate 24 food items twice.<br><br><div><img src=""rat1.png"" style=""width: 25%""></img></div><br>In the second part (longest) you will make repeated choices and judgements concerning the food items.<br><br><div><img src=""mainx.png"" style=""width: 50%""></img></div><br>In the third and final part, you will rate the items again and answer few short questionnaires.<br><br><div><img src=""rat2.png"" style=""width: 50%""></img></div><br><br>","0","","","","","","","","","","","","",""
"fullscreen","3","17564","0.0-3.0","","","","true","","","","","","","","","","","",""
"html-button-response","4","50964","0.0-4.0","33399","<div style='width: 900px; font-size: 150%;' <font size='20%'> In the first part of the task you will use the mouse to rate food items on <i>2 scales</i> </font></div><br><br><div style='width: 900px'><div style='float: left; width: 50%; margin-right:2.5em'><img src='heartS.png'></img><p class='small' style='text-align: justify'>When you see the heart cue you will rate food items in terms of how much like them/would like to eat them <i>right now</i>. You will rate them on a continuous scale from left (strong dislike) to right (strong liking). Before submitting your rating, try imagining how the item tastes and how much you desire it.<br><br></p></div><div ><img src='sizeS.png'></img><p class='small' style='text-align: justify'>When you see the size cue, you will rate the same food items in terms of their size. The scale goes from left (tiny) to right (very large). You should assess picture size <i><u>relative</i></u> to the white background. <b>Remember:</b> rate the size of the picture, <u>not</u> the size of the item in real life. </p></div><div style='width: 900px'><br><br><b><i>Notice:</b> by starting the rating you agree that your sumbission might be rejected at an early stage and the experiment might end, if your size ratings are not at least modestly related to objective sizes, or if you repeat the same value ratings too many times. If you don't agree, please exit by closing the browser window. </i><br><br><br>","0","","","","","","","","","","","","",""
"html-button-response","5","63628","0.0-5.0","12662","<div><img src='heartS.png'></img></div><br><div style='text-align: justify; width: 700px'>Using the mouse, rate the <b><i>likeness</b></i> of the food items (how much you like them/would like to eat them <i>right now</i>). Far right-end of the scale indicates an item you <i>like a lot</i>. Far left-end indicates an item you <i>dislike a lot</i>. Think about each answer.   <ul><li>Try <b><i>not</b></i> to give identical rating to different items.</li><li>Use the whole scale, and <b><i>not</b></i> just the extremes</ul></div><br>","0","","","","","","","","","","","","",""
"image-slider-response","6","68948","0.0-6.0-0.0-0.0","5318","pics2/SW6.jpg","","","66","SW","","","","","","","","","",""
"image-slider-response","7","72740","0.0-6.0-0.0-0.1","3588","pics2/SA4.jpg","","","100","SA","","","","","","","","","",""
"image-slider-response","8","76524","0.0-6.0-0.0-0.2","3582","pics2/SW4.jpg","","","76","SW","","","","","","","","","",""
"image-slider-response","9","79220","0.0-6.0-0.0-0.3","2493","pics2/FR4.jpg","","","58","FR","","","","","","","","","",""
"image-slider-response","10","83148","0.0-6.0-0.0-0.4","3727","pics2/SA5.jpg","","","54","SA","","","","","","","","","",""
"image-slider-response","11","87276","0.0-6.0-0.0-0.5","3925","pics2/SA2.jpg","","","42","SA","","","","","","","","","",""
"image-slider-response","12","91308","0.0-6.0-0.0-0.6","3830","pics2/FR5.jpg","","","65","FR","","","","","","","","","",""
"image-slider-response","13","95940","0.0-6.0-0.0-0.7","4429","pics2/VE1.jpg","","","79","VE","","","","","","","","","",""
"image-slider-response","14","99820","0.0-6.0-0.0-0.8","3677","pics2/VE2.jpg","","","43","VE","","","","","","","","","",""
"image-slider-response","15","103246","0.0-6.0-0.0-0.9","3223","pics2/VE3.jpg","","","70","VE","","","","","","","","","",""
"image-slider-response","16","106108","0.0-6.0-0.0-0.10","2660","pics2/FR3.jpg","","","63","FR","","","","","","","","","",""
"image-slider-response","17","109020","0.0-6.0-0.0-0.11","2711","pics2/SW5.jpg","","","100","SW","","","","","","","","","",""
"image-slider-response","18","113876","0.0-6.0-0.0-0.12","4654","pics2/SA6.jpg","","","73","SA","","","","","","","","","",""
"image-slider-response","19","118796","0.0-6.0-0.0-0.13","4716","pics2/SW2.jpg","","","52","SW","","","","","","","","","",""
"image-slider-response","20","125221","0.0-6.0-0.0-0.14","6221","pics2/SA1.jpg","","","29","SA","","","","","","","","","",""
"image-slider-response","21","131077","0.0-6.0-0.0-0.15","5652","pics2/VE5.jpg","","","56","VE","","","","","","","","","",""
"image-slider-response","22","135045","0.0-6.0-0.0-0.16","3764","pics2/VE4.jpg","","","54","VE","","","","","","","","","",""
"image-slider-response","23","138645","0.0-6.0-0.0-0.17","3398","pics2/SA3.jpg","","","90","SA","","","","","","","","","",""
"image-slider-response","24","144461","0.0-6.0-0.0-0.18","5614","pics2/FR6.jpg","","","88","FR","","","","","","","","","",""
"image-slider-response","25","147453","0.0-6.0-0.0-0.19","2791","pics2/SW3.jpg","","","100","SW","","","","","","","","","",""
"image-slider-response","26","151365","0.0-6.0-0.0-0.20","3708","pics2/FR2.jpg","","","95","FR","","","","","","","","","",""
"image-slider-response","27","154485","0.0-6.0-0.0-0.21","2917","pics2/FR1.jpg","","","100","FR","","","","","","","","","",""
"image-slider-response","28","157205","0.0-6.0-0.0-0.22","2517","pics2/VE6.jpg","","","55","VE","","","","","","","","","",""
"image-slider-response","29","160125","0.0-6.0-0.0-0.23","2716","pics2/SW1.jpg","","","80","SW","","","","","","","","","",""
"html-button-response","30","161477","0.0-7.0","1148","<div style='width: 900px;'> <font size = 6><b> End of the first rating</b><br><br>","0","","","","","","","","","","","","",""
"html-button-response","31","186029","0.0-9.0","24552","<div ><img src='sizeS.png'></img></div><br><div style='text-align: justify; width: 700px'> Using the mouse, rate the <b><i>size</b></i> of the food items <b><i> relative to the white background.</b></i> Right-end of the scale indicates a <i>very large item</i>, which covers a large portion of the white rectangle. Left-end indicates a <i>very tiny</i> item which covers a tiny portion of the white rectangle.<br><br><i><u>Remember</i></u>: everything that is not the white background also contributes to item size (e.g. packing, plates, ect.)<br><br> Please keep in mind that if the accuracy of ratings do not allign well with actual sizes, the experiment will end.  As a result it will be consider incomplete and therefore no payment would be made. Good luck!<br><br></div><br>","0","","","","","","","","","","","","",""
"html-button-response","32","191942","0.0-10.0","5911","<div ><img src='sizeS.png'></img></div><br><b><font size=6>Examples of items that you might encounter</b><br><div style='width: 750px;'><div style='width: 33.33%; float:left'><br><br><br><i>Large Item</i><br><br><img src='large.jpg', width=200px></img></div><div style='float:right'><br><br><br><i>Small Item</i><br><br><img src='small.jpg', width=200px></img></div><div ><br><br><br><i>Medium Item</i><br><br><img src='med.jpg', width=200px></img></div></div><br><br>","0","","","","","","","","","","","","",""
"image-slider-response","33","202325","0.0-11.0-0.0-0.0","10382","pics2/SA5.jpg","","","66","null","","","","","","","","","",""
"image-slider-response","34","210685","0.0-11.0-0.0-0.1","8158","pics2/SW6.jpg","","","75","null","","","","","","","","","",""
"image-slider-response","35","214325","0.0-11.0-0.0-0.2","3438","pics2/SA3.jpg","","","83","null","","","","","","","","","",""
"image-slider-response","36","217406","0.0-11.0-0.0-0.3","2879","pics2/VE4.jpg","","","84","null","","","","","","","","","",""
"image-slider-response","37","220941","0.0-11.0-0.0-0.4","3333","pics2/VE5.jpg","","","72","null","","","","","","","","","",""
"image-slider-response","38","224221","0.0-11.0-0.0-0.5","3078","pics2/FR3.jpg","","","91","null","","","","","","","","","",""
"image-slider-response","39","228805","0.0-11.0-0.0-0.6","4382","pics2/FR5.jpg","","","82","null","","","","","","","","","",""
"image-slider-response","40","232445","0.0-11.0-0.0-0.7","3438","pics2/VE3.jpg","","","88","null","","","","","","","","","",""
"image-slider-response","41","240366","0.0-11.0-0.0-0.8","7718","pics2/SA4.jpg","","","57","null","","","","","","","","","",""
"image-slider-response","42","244941","0.0-11.0-0.0-0.9","4373","pics2/SW5.jpg","","","78","null","","","","","","","","","",""
"image-slider-response","43","249214","0.0-11.0-0.0-0.10","4069","pics2/SW2.jpg","","","95","null","","","","","","","","","",""
"image-slider-response","44","253189","0.0-11.0-0.0-0.11","3772","pics2/FR4.jpg","","","88","null","","","","","","","","","",""
"image-slider-response","45","256582","0.0-11.0-0.0-0.12","3190","pics2/SA6.jpg","","","75","null","","","","","","","","","",""
"image-slider-response","46","261526","0.0-11.0-0.0-0.13","4741","pics2/SW4.jpg","","","81","null","","","","","","","","","",""
"image-slider-response","47","264958","0.0-11.0-0.0-0.14","3230","pics2/FR6.jpg","","","70","null","","","","","","","","","",""
"image-slider-response","48","267966","0.0-11.0-0.0-0.15","2806","pics2/FR2.jpg","","","83","null","","","","","","","","","",""
"image-slider-response","49","274454","0.0-11.0-0.0-0.16","6287","pics2/VE1.jpg","","","95","null","","","","","","","","","",""
"image-slider-response","50","278414","0.0-11.0-0.0-0.17","3759","pics2/SA2.jpg","","","69","null","","","","","","","","","",""
"image-slider-response","51","281470","0.0-11.0-0.0-0.18","2854","pics2/VE6.jpg","","","66","null","","","","","","","","","",""
"image-slider-response","52","284893","0.0-11.0-0.0-0.19","3222","pics2/SA1.jpg","","","95","null","","","","","","","","","",""
"image-slider-response","53","288998","0.0-11.0-0.0-0.20","3902","pics2/SW3.jpg","","","81","null","","","","","","","","","",""
"image-slider-response","54","294031","0.0-11.0-0.0-0.21","4831","pics2/SW1.jpg","","","96","null","","","","","","","","","",""
"image-slider-response","55","298030","0.0-11.0-0.0-0.22","3797","pics2/FR1.jpg","","","71","null","","","","","","","","","",""
"image-slider-response","56","301374","0.0-11.0-0.0-0.23","3141","pics2/VE2.jpg","","","83","null","","","","","","","","","",""
"html-button-response","57","302662","0.0-12.0","1085","<div style='width: 900px;'> <font size = 6><b> End of the second rating</b><br><br>","0","","","","","","","","","","","","",""
"html-button-response","58","308751","0.0-13.0","6087","<div style='width: 900px;'>Now please rate the items for the second time. <br><br>This is not a memory test - you don't need to be consistent with your previous ratings. Just as before, try to make accurate judgements.<br><br>","0","","","","","","","","","","","","",""
"html-button-response","59","311830","0.0-14.0","3079","<div><img src='heartS.png'></img></div><br><div style='text-align: justify; width: 700px'>Using the mouse, rate the <b><i>likeness</b></i> of the food items (how much you like them/would like to eat them <i>right now</i>). Far right-end of the scale indicates an item you <i>like a lot</i>. Far left-end indicates an item you <i>dislike a lot</i>. Think about each answer.   <ul><li>Try <b><i>not</b></i> to give identical rating to different items.</li><li>Use the whole scale, and <b><i>not</b></i> just the extremes</ul></div><br>","0","","","","","","","","","","","","",""
"image-slider-response","60","317454","0.0-15.0-0.0-0.0","5622","pics2/SW1.jpg","","","72","SW","","","","","","","","","",""
"image-slider-response","61","319886","0.0-15.0-0.0-0.1","2229","pics2/SA1.jpg","","","29","SA","","","","","","","","","",""
"image-slider-response","62","322150","0.0-15.0-0.0-0.2","2061","pics2/SW3.jpg","","","100","SW","","","","","","","","","",""
"image-slider-response","63","325766","0.0-15.0-0.0-0.3","3415","pics2/FR1.jpg","","","94","FR","","","","","","","","","",""
"image-slider-response","64","330222","0.0-15.0-0.0-0.4","4253","pics2/VE6.jpg","","","59","VE","","","","","","","","","",""
"image-slider-response","65","333150","0.0-15.0-0.0-0.5","2726","pics2/VE3.jpg","","","59","VE","","","","","","","","","",""
"image-slider-response","66","336087","0.0-15.0-0.0-0.6","2735","pics2/FR2.jpg","","","79","FR","","","","","","","","","",""
"image-slider-response","67","338799","0.0-15.0-0.0-0.7","2510","pics2/SA5.jpg","","","57","SA","","","","","","","","","",""
"image-slider-response","68","340686","0.0-15.0-0.0-0.8","1686","pics2/SW5.jpg","","","100","SW","","","","","","","","","",""
"image-slider-response","69","343510","0.0-15.0-0.0-0.9","2622","pics2/SW4.jpg","","","82","SW","","","","","","","","","",""
"image-slider-response","70","347384","0.0-15.0-0.0-0.10","3671","pics2/SA4.jpg","","","100","SA","","","","","","","","","",""
"image-slider-response","71","350344","0.0-15.0-0.0-0.11","2756","pics2/SW6.jpg","","","66","SW","","","","","","","","","",""
"image-slider-response","72","355079","0.0-15.0-0.0-0.12","4533","pics2/SA2.jpg","","","39","SA","","","","","","","","","",""
"image-slider-response","73","357240","0.0-15.0-0.0-0.13","1957","pics2/FR4.jpg","","","64","FR","","","","","","","","","",""
"image-slider-response","74","359784","0.0-15.0-0.0-0.14","2342","pics2/VE1.jpg","","","71","VE","","","","","","","","","",""
"image-slider-response","75","362456","0.0-15.0-0.0-0.15","2469","pics2/FR6.jpg","","","69","FR","","","","","","","","","",""
"image-slider-response","76","364721","0.0-15.0-0.0-0.16","2062","pics2/VE4.jpg","","","44","VE","","","","","","","","","",""
"image-slider-response","77","367186","0.0-15.0-0.0-0.17","2263","pics2/SW2.jpg","","","32","SW","","","","","","","","","",""
"image-slider-response","78","369464","0.0-15.0-0.0-0.18","2076","pics2/FR5.jpg","","","67","FR","","","","","","","","","",""
"image-slider-response","79","372192","0.0-15.0-0.0-0.19","2527","pics2/SA6.jpg","","","79","SA","","","","","","","","","",""
"image-slider-response","80","375768","0.0-15.0-0.0-0.20","3371","pics2/SA3.jpg","","","91","SA","","","","","","","","","",""
"image-slider-response","81","380284","0.0-15.0-0.0-0.21","4314","pics2/VE5.jpg","","","63","VE","","","","","","","","","",""
"image-slider-response","82","385258","0.0-15.0-0.0-0.22","4770","pics2/FR3.jpg","","","63","FR","","","","","","","","","",""
"image-slider-response","83","387776","0.0-15.0-0.0-0.23","2314","pics2/VE2.jpg","","","35","VE","","","","","","","","","",""
"call-function","84","387984","0.0-16.0","","","","","","","","","","","","","","","",""
"call-function","85","387987","0.0-17.0","","","","","","","","","","","","","","","",""
"html-button-response","86","388888","0.0-18.0","901","<div style='width: 900px;'> <font size = 6><b> End of the first rating</b><br><br>","0","","","","","","","","","","","","",""
"html-button-response","87","396056","0.0-19.0","7167","<div ><img src='sizeS.png'></img></div><br><div style='text-align: justify; width: 700px'> Using the mouse, rate the <b><i>size</b></i> of the food items <b><i> relative to the white background.</b></i> Right-end of the scale indicates a <i>very large item</i>, which covers a large portion of the white rectangle. Left-end indicates a <i>very tiny</i> item which covers a tiny portion of the white rectangle.<br><br><i><u>Remember</i></u>: everything that is not the white background also contributes to item size (e.g. packing, plates, ect.)<br><br> Please keep in mind that if the accuracy of ratings do not allign well with actual sizes, the experiment will end.  As a result it will be consider incomplete and therefore no payment would be made. Good luck!<br><br></div><br>","0","","","","","","","","","","","","",""
"image-slider-response","88","400496","0.0-20.0-0.0-0.0","4438","pics2/SW1.jpg","","","97","null","","","","","","","","","",""
"image-slider-response","89","403088","0.0-20.0-0.0-0.1","2391","pics2/VE5.jpg","","","68","null","","","","","","","","","",""
"image-slider-response","90","408426","0.0-20.0-0.0-0.2","5135","pics2/VE4.jpg","","","81","null","","","","","","","","","",""
"image-slider-response","91","411162","0.0-20.0-0.0-0.3","2534","pics2/SW4.jpg","","","69","null","","","","","","","","","",""
"image-slider-response","92","413594","0.0-20.0-0.0-0.4","2229","pics2/VE6.jpg","","","57","null","","","","","","","","","",""
"image-slider-response","93","416986","0.0-20.0-0.0-0.5","3190","pics2/SA2.jpg","","","59","null","","","","","","","","","",""
"image-slider-response","94","421290","0.0-20.0-0.0-0.6","4101","pics2/SA4.jpg","","","53","null","","","","","","","","","",""
"image-slider-response","95","424154","0.0-20.0-0.0-0.7","2661","pics2/SW6.jpg","","","57","null","","","","","","","","","",""
"image-slider-response","96","427211","0.0-20.0-0.0-0.8","2855","pics2/SW3.jpg","","","66","null","","","","","","","","","",""
"image-slider-response","97","433186","0.0-20.0-0.0-0.9","5773","pics2/FR6.jpg","","","65","null","","","","","","","","","",""
"image-slider-response","98","436867","0.0-20.0-0.0-0.10","3476","pics2/SA5.jpg","","","56","null","","","","","","","","","",""
"image-slider-response","99","439339","0.0-20.0-0.0-0.11","2270","pics2/FR5.jpg","","","66","null","","","","","","","","","",""
"image-slider-response","100","442275","0.0-20.0-0.0-0.12","2735","pics2/VE1.jpg","","","75","null","","","","","","","","","",""
"image-slider-response","101","445426","0.0-20.0-0.0-0.13","2948","pics2/FR4.jpg","","","81","null","","","","","","","","","",""
"image-slider-response","102","448955","0.0-20.0-0.0-0.14","3326","pics2/SA1.jpg","","","89","null","","","","","","","","","",""
"image-slider-response","103","451507","0.0-20.0-0.0-0.15","2348","pics2/SA3.jpg","","","78","null","","","","","","","","","",""
"image-slider-response","104","454370","0.0-20.0-0.0-0.16","2662","pics2/VE3.jpg","","","76","null","","","","","","","","","",""
"image-slider-response","105","457683","0.0-20.0-0.0-0.17","3110","pics2/SW2.jpg","","","87","null","","","","","","","","","",""
"image-slider-response","106","460474","0.0-20.0-0.0-0.18","2588","pics2/FR2.jpg","","","88","null","","","","","","","","","",""
"image-slider-response","107","463987","0.0-20.0-0.0-0.19","3309","pics2/FR3.jpg","","","80","null","","","","","","","","","",""
"image-slider-response","108","466572","0.0-20.0-0.0-0.20","2381","pics2/FR1.jpg","","","76","null","","","","","","","","","",""
"image-slider-response","109","469787","0.0-20.0-0.0-0.21","3013","pics2/SA6.jpg","","","68","null","","","","","","","","","",""
"image-slider-response","110","472253","0.0-20.0-0.0-0.22","2264","pics2/SW5.jpg","","","73","null","","","","","","","","","",""
"image-slider-response","111","474484","0.0-20.0-0.0-0.23","2028","pics2/VE2.jpg","","","81","null","","","","","","","","","",""
"call-function","112","474688","0.0-21.0","","","","","","","","","","","","","","","",""
"html-button-response","113","475676","0.0-22.0","988","<div style='width: 900px;'> <font size = 6><b> End of the second rating</b><br><br>","0","","","","","","","","","","","","",""
"pavlovia","114","475682","0.0-23.0","","","","","","","","","","","","","","","",""
"html-keyboard-response","115","480685","0.0-24.0","null","<div style='width: 700px;'> <font size=6><b>SHORT BREAK</font></b><br><br><i> Please wait 5 seconds to continue</i></div> ","","","","","","null","","","","","","","",""
"pavlovia","116","480686","0.0-25.0","","","","","","","","","","","","","","","",""
"html-button-response","117","494620","0.0-26.0","13934","<div style='width: 700px;'>In the main part of the study, you will be choosing between 2 items. When it's time to choose,  this symbol will appear: <br><br><img src='chooseS.png'></img><br><br>Below, a cue will signify the type of choice: </div><br><div style='width: 700px;'><div style='float: left; width: 50%'><img src='heartS.png'></img><p class='small'>Heart cue means you should choose the item you <b><i>prefer</b></i> more.</p></div><div class='float: right; width:50%'><img src='sizeS.png'></img><p class='small'>Size cue means you should choose the <b><i>larger</b></i> item. </p></div></div><br><div style='width: 700px;'>When you click, a green square will appear around the item you chose.<br></div><div><br>","0","","","","","","","","","","","","",""
"image-selector-fb-tut","118","499974","0.0-27.0","4350","0232.jpg,0123.jpg","","","","","","","false","0","","","","","",""
"image-selector-fb-tut","119","503487","0.0-28.0","2511","0232.jpg,0123.jpg","","","","","","","true","1","","","","","",""
"html-button-response","120","507917","0.0-29.0","4428","<div style='width: 900px;'>Your choices should be both <b><i>fast and accurate</b></i>. <br><br>You will have <i>4 seconds</i> to make each choice, which should be enough consider the options and click on one of the items.<br><br>","0","","","","","","","","","","","","",""
"html-button-response","121","515676","0.0-30.0","7759","<div style='width: 900px;'>Additionally, on some choice trials you will see the <b><i>no-choice cue</b></i>: <br><br><img src='noS.png'></img> <br><br>This cue means you can't make any choice. You can examine the items, but  can't click on any of them. Just wait patiently for the cue to dissapear.<br><br>","0","","","","","","","","","","","","",""
"image-selector-fb-tut","122","517680","0.0-31.0","null","0232.jpg,0123.jpg","","","","","","","false","null","","","","","",""
"html-button-response","123","530382","0.0-32.0","12700","<div style='width: 900px;'>After each choice the items will remain on the screen and you will see this symbol: <br><br><img src='judgeS.png'></img> <br><br>This means you should rate<b> the magnitude of the difference</b> between the items using a scale: </div><br><div style='width: 900px; '><div style='float: left; width: 50%; margin-right: 2.5em; align-self:left'><img src='heartS.png'></img><p class='small' style = 'text-align: justify;'>Heart cue means you should rate <b>how much you prefer</b> one of the items over the other. Moving the scale indicator to the left means you prefer the left one; moving it to the right - right one. The more you prefer one of them, the more towards that side you should move the scale indicator. </p></div><div class='float: right; width: 50%; margin-left: 2.5em;'><img src='sizeS.png'></img><p class='small' style='text-align: justify'>Size cue means you should rate <b>how much larger</b> is one of the items over the other. Moving the scale indicator to the left means you think the left is larger; moving it to the right - right one. The greater the difference in size, the more towards that side you should move the scale indicator.</div><br>","0","","","","","","","","","","","","",""
"image-slider-2AFC-tut","124","537094","0.0-33.0","6710","","","","70","","","","","","5342","70","","","",""
"image-slider-2AFC-tut","125","541045","0.0-34.0","3950","","","","23","","","","","","3207","23","","","",""
"html-button-response","126","559256","0.0-35.0","18210","<br><br><font size = 36><b> Examples </b></font><br><br><i> 1) I would like to eat some croissants a <b>lot more</b> than doritos right now:</i><br><img src='ex1.PNG', width='62%'></img><br><br><br><i> 2) I would like to eat some doritos a <b>bit more</b> than croissants right now, but just slightly:</i><br><img src='ex2.PNG' width='62%'></img>","0","","","","","","","","","","","","",""
"html-button-response","127","561853","0.0-36.0","2596","<div style='width: 900px;'><i>Now you know everything you need to do the task!</i> <br><br>Let's start by doing a <b>short training</b>, so you'll get used to how it works. </div><br>","0","","","","","","","","","","","","",""
"image-selector-fb","128","564858","0.0-37.0-0.0","null","pics2/SA5.jpg,pics2/VE4.jpg","","","","","","","false","null","","","noS.png","","",""
"image-slider-2AFC","129","569861","0.0-37.0-1.0","null","","","","null","","","","","","","","sizeS.png","4074","25",""
"html-keyboard-response","130","570663","0.0-37.0-2.0","null","","","","","","","null","","","","","","","",""
"image-selector-fb","131","573668","0.0-37.1-0.1","null","pics2/FR5.jpg,pics2/SA5.jpg","","","","","","","false","null","","","noS.png","","",""
"image-slider-2AFC","132","576845","0.0-37.1-1.1","3176","","","","-43","","","","","","","","sizeS.png","1576","-43",""
"html-keyboard-response","133","577699","0.0-37.1-2.1","null","","","","","","","null","","","","","","","",""
"image-selector-fb","134","580703","0.0-37.2-0.2","null","pics2/VE2.jpg,pics2/SA5.jpg","","","","","","","false","null","","","noS.png","","",""
"image-slider-2AFC","135","584758","0.0-37.2-1.2","4052","","","","59","","","","","","","","heartS.png","2629","59",""
"html-keyboard-response","136","585562","0.0-37.2-2.2","null","","","","","","","null","","","","","","","",""
"image-selector-fb","137","589077","0.0-37.3-0.3","3012","pics2/SW2.jpg,pics2/FR5.jpg","","","","","","","false","0","","","sizeS.png","","",""
"image-slider-2AFC","138","594079","0.0-37.3-1.3","null","","","","null","","","","","","","","sizeS.png","","",""
"html-keyboard-response","139","594832","0.0-37.3-2.3","null","","","","","","","null","","","","","","","",""
"image-selector-fb","140","596981","0.0-37.4-0.4","1645","pics2/SW2.jpg,pics2/VE4.jpg","","","","","","","false","0","","","sizeS.png","","",""
"image-slider-2AFC","141","601985","0.0-37.4-1.4","null","","","","null","","","","","","","","sizeS.png","","",""
"html-keyboard-response","142","602737","0.0-37.4-2.4","null","","","","","","","null","","","","","","","",""
"image-selector-fb","143","605741","0.0-37.5-0.5","null","pics2/VE5.jpg,pics2/VE4.jpg","","","","","","","false","null","","","noS.png","","",""
"image-slider-2AFC","144","610744","0.0-37.5-1.5","null","","","","null","","","","","","","","sizeS.png","","",""
"html-keyboard-response","145","611495","0.0-37.5-2.5","null","","","","","","","null","","","","","","","",""
"image-selector-fb","146","615171","0.0-37.6-0.6","3174","pics2/SW2.jpg,pics2/SA5.jpg","","","","","","","false","0","","","sizeS.png","","",""
"image-slider-2AFC","147","618711","0.0-37.6-1.6","3539","","","","-37","","","","","","","","heartS.png","2075","-37",""
"html-keyboard-response","148","619514","0.0-37.6-2.6","null","","","","","","","null","","","","","","","",""
"image-selector-fb","149","621925","0.0-37.7-0.7","1908","pics2/VE6.jpg,pics2/VE3.jpg","","","","","","","true","1","","","sizeS.png","","",""
"image-slider-2AFC","150","625063","0.0-37.7-1.7","3136","","","","25","","","","","","","","heartS.png","2088","25",""
"html-keyboard-response","151","625865","0.0-37.7-2.7","null","","","","","","","null","","","","","","","",""
"image-selector-fb","152","628870","0.0-37.8-0.8","null","pics2/SA5.jpg,pics2/SA1.jpg","","","","","","","false","null","","","noS.png","","",""
"image-slider-2AFC","153","631607","0.0-37.8-1.8","2736","","","","-56","","","","","","","","heartS.png","2127","-56",""
"html-keyboard-response","154","632458","0.0-37.8-2.8","null","","","","","","","null","","","","","","","",""
"image-selector-fb","155","635461","0.0-37.9-0.9","null","pics2/VE2.jpg,pics2/VE5.jpg","","","","","","","false","null","","","noS.png","","",""
"image-slider-2AFC","156","638783","0.0-37.9-1.9","3321","","","","-46","","","","","","","","sizeS.png","2769","-46",""
"html-keyboard-response","157","639485","0.0-37.9-2.9","null","","","","","","","null","","","","","","","",""
"image-selector-fb","158","642565","0.0-37.10-0.10","2577","pics2/FR4.jpg,pics2/VE6.jpg","","","","","","","false","0","","","sizeS.png","","",""
"image-slider-2AFC","159","645007","0.0-37.10-1.10","2440","","","","-36","","","","","","","","heartS.png","1792","-36",""
"html-keyboard-response","160","645859","0.0-37.10-2.10","null","","","","","","","null","","","","","","","",""
"image-selector-fb","161","648863","0.0-37.11-0.11","null","pics2/FR3.jpg,pics2/VE4.jpg","","","","","","","false","null","","","noS.png","","",""
"image-slider-2AFC","162","652160","0.0-37.11-1.11","3295","","","","-46","","","","","","","","heartS.png","2695","-46",""
"html-keyboard-response","163","652963","0.0-37.11-2.11","null","","","","","","","null","","","","","","","",""
"html-button-response","164","656248","0.0-38.0","3284","<i><font size=10>Good job!</font></i> <br><br>Before we begin, you have a chance to review the rules, in case something was not clear.<br><br>","0","","","","","","","","","","","","",""
"instructions","165","661416","0.0-39.0","5167","","","","","","","","","","","","","","","[{""page_index"":0,""viewing_time"":1174},{""page_index"":1,""viewing_time"":2825},{""page_index"":2,""viewing_time"":1168}]"
"html-button-response","166","666368","0.0-40.0","4951","<div style='width: 900px;'> <font size='40'>Great! Now you're ready to begin</font><br><br>The main part of the experiment will consist of <u>3 blocks</u>. Each block consists of 66 decisions and judgements. You will have time for a short break between blocks.<br><br><br><i><u>Do your best to respond within the time limit.</u></i><br><br><i> Press the button to start the experiment<br><br></i>","0","","","","","","","","","","","","",""
"image-selector-fb","167","668381","0.0-41.0-0.0","1511","pics2/SA4.jpg,pics2/FR6.jpg","","","","","","","false","0","","","heartS.png","","",""
"image-slider-2AFC","168","671448","0.0-41.0-1.0","3065","","","","-53","","","","","","","","heartS.png","2556","-53",""
"html-keyboard-response","169","672200","0.0-41.0-2.0","null","","","","","","","null","","","","","","","",""
"image-selector-fb","170","675204","0.0-41.1-0.1","null","pics2/VE1.jpg,pics2/SA6.jpg","","","","","","","false","null","","","noS.png","","",""
"image-slider-2AFC","171","678376","0.0-41.1-1.1","3170","","","","-39","","","","","","","","heartS.png","2610","-39",""
"html-keyboard-response","172","679079","0.0-41.1-2.1","null","","","","","","","null","","","","","","","",""
"image-selector-fb","173","681541","0.0-41.2-0.2","1960","pics2/SW4.jpg,pics2/SW6.jpg","","","","","","","false","0","","","sizeS.png","","",""
"image-slider-2AFC","174","683696","0.0-41.2-1.2","2154","","","","-99","","","","","","","","sizeS.png","1514","-99",""
"html-keyboard-response","175","684498","0.0-41.2-2.2","null","","","","","","","null","","","","","","","",""
"image-selector-fb","176","687582","0.0-41.3-0.3","2581","pics2/FR1.jpg,pics2/SW4.jpg","","","","","","","false","0","","","sizeS.png","","",""
"image-slider-2AFC","177","689792","0.0-41.3-1.3","2209","","","","70","","","","","","","","heartS.png","1561","70",""
"html-keyboard-response","178","690645","0.0-41.3-2.3","null","","","","","","","null","","","","","","","",""
"image-selector-fb","179","693651","0.0-41.4-0.4","null","pics2/SW3.jpg,pics2/SA6.jpg","","","","","","","false","null","","","noS.png","","",""
"image-slider-2AFC","180","697848","0.0-41.4-1.4","4196","","","","-76","","","","","","","","sizeS.png","3651","-76",""
"html-keyboard-response","181","698551","0.0-41.4-2.4","null","","","","","","","null","","","","","","","",""
"image-selector-fb","182","701214","0.0-41.5-0.5","2160","pics2/FR2.jpg,pics2/SW3.jpg","","","","","","","false","0","","","sizeS.png","","",""
"image-slider-2AFC","183","703832","0.0-41.5-1.5","2617","","","","70","","","","","","","","heartS.png","1913","70",""
"html-keyboard-response","184","704685","0.0-41.5-2.5","null","","","","","","","null","","","","","","","",""
"image-selector-fb","185","707622","0.0-41.6-0.6","2435","pics2/SW1.jpg,pics2/FR6.jpg","","","","","","","false","0","","","heartS.png","","",""
"image-slider-2AFC","186","710393","0.0-41.6-1.6","2769","","","","-45","","","","","","","","heartS.png","1929","-45",""
"html-keyboard-response","187","711096","0.0-41.6-2.6","null","","","","","","","null","","","","","","","",""
"image-selector-fb","188","714099","0.0-41.7-0.7","null","pics2/VE1.jpg,pics2/SW5.jpg","","","","","","","false","null","","","noS.png","","",""
"image-slider-2AFC","189","718065","0.0-41.7-1.7","3964","","","","-60","","","","","","","","sizeS.png","3405","-60",""
"html-keyboard-response","190","718869","0.0-41.7-2.7","null","","","","","","","null","","","","","","","",""
"image-selector-fb","191","720735","0.0-41.8-0.8","1363","pics2/SW3.jpg,pics2/SA6.jpg","","","","","","","false","0","","","heartS.png","","",""
"image-slider-2AFC","192","723458","0.0-41.8-1.8","2721","","","","-81","","","","","","","","heartS.png","1665","-81",""
"html-keyboard-response","193","724261","0.0-41.8-2.8","null","","","","","","","null","","","","","","","",""
"image-selector-fb","194","726919","0.0-41.9-0.9","2156","pics2/SA3.jpg,pics2/SW4.jpg","","","","","","","false","0","","","sizeS.png","","",""
"image-slider-2AFC","195","728921","0.0-41.9-1.9","2001","","","","62","","","","","","","","heartS.png","1377","62",""
"html-keyboard-response","196","729724","0.0-41.9-2.9","null","","","","","","","null","","","","","","","",""
"image-selector-fb","197","732727","0.0-41.10-0.10","null","pics2/SW5.jpg,pics2/FR2.jpg","","","","","","","false","null","","","noS.png","","",""
"image-slider-2AFC","198","737617","0.0-41.10-1.10","4888","","","","11","","","","","","","","sizeS.png","4305","11",""
"html-keyboard-response","199","738470","0.0-41.10-2.10","null","","","","","","","null","","","","","","","",""
"image-selector-fb","200","740736","0.0-41.11-0.11","1762","pics2/FR2.jpg,pics2/VE1.jpg","","","","","","","false","0","","","heartS.png","","",""
"image-slider-2AFC","201","742785","0.0-41.11-1.11","2048","","","","-70","","","","","","","","heartS.png","1440","-70",""
"html-keyboard-response","202","743538","0.0-41.11-2.11","null","","","","","","","null","","","","","","","",""
"image-selector-fb","203","746542","0.0-41.12-0.12","null","pics2/SA4.jpg,pics2/SA6.jpg","","","","","","","false","null","","","noS.png","","",""
"image-slider-2AFC","204","749466","0.0-41.12-1.12","2923","","","","-93","","","","","","","","heartS.png","2322","-93",""
"html-keyboard-response","205","750319","0.0-41.12-2.12","null","","","","","","","null","","","","","","","",""
"image-selector-fb","206","753323","0.0-41.13-0.13","null","pics2/SW5.jpg,pics2/SW4.jpg","","","","","","","false","null","","","noS.png","","",""
"image-slider-2AFC","207","757097","0.0-41.13-1.13","3773","","","","-9","","","","","","","","heartS.png","3245","-9",""
"html-keyboard-response","208","757849","0.0-41.13-2.13","null","","","","","","","null","","","","","","","",""
"image-selector-fb","209","760934","0.0-41.14-0.14","2583","pics2/SW6.jpg,pics2/VE1.jpg","","","","","","","true","1","","","heartS.png","","",""
"image-slider-2AFC","210","764898","0.0-41.14-1.14","3962","","","","23","","","","","","","","sizeS.png","3331","23",""
"html-keyboard-response","211","765601","0.0-41.14-2.14","null","","","","","","","null","","","","","","","",""
"image-selector-fb","212","767392","0.0-41.15-0.15","1287","pics2/SA4.jpg,pics2/FR2.jpg","","","","","","","false","0","","","sizeS.png","","",""
"image-slider-2AFC","213","771250","0.0-41.15-1.15","3856","","","","22","","","","","","","","sizeS.png","3249","22",""
"html-keyboard-response","214","772051","0.0-41.15-2.15","null","","","","","","","null","","","","","","","",""
"image-selector-fb","215","774017","0.0-41.16-0.16","1463","pics2/SW3.jpg,pics2/FR1.jpg","","","","","","","false","0","","","heartS.png","","",""
"image-slider-2AFC","216","776098","0.0-41.16-1.16","2079","","","","-95","","","","","","","","heartS.png","1367","-95",""
"html-keyboard-response","217","776801","0.0-41.16-2.16","null","","","","","","","null","","","","","","","",""
"image-selector-fb","218","779805","0.0-41.17-0.17","null","pics2/SA4.jpg,pics2/FR2.jpg","","","","","","","false","null","","","noS.png","","",""
"image-slider-2AFC","219","782226","0.0-41.17-1.17","2420","","","","-93","","","","","","","","heartS.png","1859","-93",""
"html-keyboard-response","220","783028","0.0-41.17-2.17","null","","","","","","","null","","","","","","","",""
"image-selector-fb","221","784526","0.0-41.18-0.18","996","pics2/SW3.jpg,pics2/SA4.jpg","","","","","","","false","0","","","heartS.png","","",""
"image-slider-2AFC","222","786818","0.0-41.18-1.18","2291","","","","-100","","","","","","","","heartS.png","1650","-100",""
"html-keyboard-response","223","787521","0.0-41.18-2.18","null","","","","","","","null","","","","","","","",""
"image-selector-fb","224","790856","0.0-41.19-0.19","2832","pics2/VE1.jpg,pics2/FR2.jpg","","","","","","","true","1","","","sizeS.png","","",""
"image-slider-2AFC","225","794137","0.0-41.19-1.19","3280","","","","10","","","","","","","","sizeS.png","2864","10",""
"html-keyboard-response","226","794990","0.0-41.19-2.19","null","","","","","","","null","","","","","","","",""
"image-selector-fb","227","796896","0.0-41.20-0.20","1403","pics2/FR1.jpg,pics2/FR2.jpg","","","","","","","false","0","","","sizeS.png","","",""
"image-slider-2AFC","228","798418","0.0-41.20-1.20","1520","","","","-17","","","","","","","","heartS.png","1121","-17",""
"html-keyboard-response","229","799121","0.0-41.20-2.20","null","","","","","","","null","","","","","","","",""
"image-selector-fb","230","801271","0.0-41.21-0.21","1648","pics2/SW4.jpg,pics2/VE1.jpg","","","","","","","false","0","","","sizeS.png","","",""
"image-slider-2AFC","231","803961","0.0-41.21-1.21","2689","","","","-61","","","","","","","","heartS.png","2129","-61",""
"html-keyboard-response","232","804813","0.0-41.21-2.21","null","","","","","","","null","","","","","","","",""
"image-selector-fb","233","807816","0.0-41.22-0.22","null","pics2/SW3.jpg,pics2/FR2.jpg","","","","","","","false","null","","","noS.png","","",""
"image-slider-2AFC","234","811898","0.0-41.22-1.22","4080","","","","15","","","","","","","","sizeS.png","2841","15",""
"html-keyboard-response","235","812750","0.0-41.22-2.22","null","","","","","","","null","","","","","","","",""
"image-selector-fb","236","814920","0.0-41.23-0.23","1667","pics2/FR6.jpg,pics2/SW6.jpg","","","","","","","false","0","","","sizeS.png","","",""
"image-slider-2AFC","237","818922","0.0-41.23-1.23","4001","","","","-21","","","","","","","","heartS.png","3545","-21",""
"html-keyboard-response","238","819724","0.0-41.23-2.23","null","","","","","","","null","","","","","","","",""
"image-selector-fb","239","822144","0.0-41.24-0.24","1917","pics2/SA4.jpg,pics2/SA3.jpg","","","","","","","true","1","","","sizeS.png","","",""
"image-slider-2AFC","240","825698","0.0-41.24-1.24","3553","","","","26","","","","","","","","sizeS.png","3089","26",""
"html-keyboard-response","241","826552","0.0-41.24-2.24","null","","","","","","","null","","","","","","","",""
"image-selector-fb","242","828257","0.0-41.25-0.25","1202","pics2/SA6.jpg,pics2/SA3.jpg","","","","","","","true","1","","","heartS.png","","",""
"image-slider-2AFC","243","830346","0.0-41.25-1.25","2087","","","","43","","","","","","","","heartS.png","1312","43",""
"html-keyboard-response","244","831199","0.0-41.25-2.25","null","","","","","","","null","","","","","","","",""
"image-selector-fb","245","834204","0.0-41.26-0.26","null","pics2/SW1.jpg,pics2/FR2.jpg","","","","","","","false","null","","","noS.png","","",""
"image-slider-2AFC","246","837675","0.0-41.26-1.26","3469","","","","-27","","","","","","","","sizeS.png","2893","-27",""
"html-keyboard-response","247","838479","0.0-41.26-2.26","null","","","","","","","null","","","","","","","",""
"image-selector-fb","248","841485","0.0-41.27-0.27","null","pics2/FR1.jpg,pics2/FR6.jpg","","","","","","","false","null","","","noS.png","","",""
"image-slider-2AFC","249","846487","0.0-41.27-1.27","null","","","","null","","","","","","","","sizeS.png","3309,4733","-35,-40",""
"html-keyboard-response","250","847341","0.0-41.27-2.27","null","","","","","","","null","","","","","","","",""
"image-selector-fb","251","849600","0.0-41.28-0.28","1756","pics2/SW6.jpg,pics2/SW1.jpg","","","","","","","true","1","","","heartS.png","","",""
"image-slider-2AFC","252","851490","0.0-41.28-1.28","1889","","","","49","","","","","","","","heartS.png","1361","49",""
"html-keyboard-response","253","852244","0.0-41.28-2.28","null","","","","","","","null","","","","","","","",""
"image-selector-fb","254","854337","0.0-41.29-0.29","1589","pics2/SW1.jpg,pics2/FR2.jpg","","","","","","","false","0","","","sizeS.png","","",""
"image-slider-2AFC","255","855850","0.0-41.29-1.29","1512","","","","-27","","","","","","","","sizeS.png","1056","-27",""
"html-keyboard-response","256","856553","0.0-41.29-2.29","null","","","","","","","null","","","","","","","",""
"image-selector-fb","257","858488","0.0-41.30-0.30","1432","pics2/SA3.jpg,pics2/SW5.jpg","","","","","","","true","1","","","heartS.png","","",""
"image-slider-2AFC","258","860435","0.0-41.30-1.30","1945","","","","23","","","","","","","","heartS.png","1354","23",""
"html-keyboard-response","259","861137","0.0-41.30-2.30","null","","","","","","","null","","","","","","","",""
"image-selector-fb","260","864143","0.0-41.31-0.31","null","pics2/SW3.jpg,pics2/SW4.jpg","","","","","","","false","null","","","noS.png","","",""
"image-slider-2AFC","261","866652","0.0-41.31-1.31","2507","","","","-87","","","","","","","","heartS.png","1787","-87",""
"html-keyboard-response","262","867456","0.0-41.31-2.31","null","","","","","","","null","","","","","","","",""
"image-selector-fb","263","869176","0.0-41.32-0.32","1217","pics2/SW1.jpg,pics2/SW5.jpg","","","","","","","true","1","","","heartS.png","","",""
"image-slider-2AFC","264","871475","0.0-41.32-1.32","2297","","","","13","","","","","","","","sizeS.png","1770","13",""
"html-keyboard-response","265","872328","0.0-41.32-2.32","null","","","","","","","null","","","","","","","",""
"image-selector-fb","266","875332","0.0-41.33-0.33","null","pics2/VE1.jpg,pics2/SW4.jpg","","","","","","","false","null","","","noS.png","","",""
"image-slider-2AFC","267","878411","0.0-41.33-1.33","3077","","","","-14","","","","","","","","sizeS.png","2517","-14",""
"html-keyboard-response","268","879112","0.0-41.33-2.33","null","","","","","","","null","","","","","","","",""
"image-selector-fb","269","881226","0.0-41.34-0.34","1608","pics2/SW5.jpg,pics2/VE1.jpg","","","","","","","true","1","","","sizeS.png","","",""
"image-slider-2AFC","270","883339","0.0-41.34-1.34","2112","","","","16","","","","","","","","sizeS.png","1655","16",""
"html-keyboard-response","271","884041","0.0-41.34-2.34","null","","","","","","","null","","","","","","","",""
"image-selector-fb","272","885537","0.0-41.35-0.35","992","pics2/FR1.jpg,pics2/SA4.jpg","","","","","","","false","0","","","heartS.png","","",""
"image-slider-2AFC","273","889051","0.0-41.35-1.35","3513","","","","28","","","","","","","","sizeS.png","2713","28",""
"html-keyboard-response","274","889804","0.0-41.35-2.35","null","","","","","","","null","","","","","","","",""
"image-selector-fb","275","891832","0.0-41.36-0.36","1525","pics2/SW1.jpg,pics2/SA6.jpg","","","","","","","false","0","","","sizeS.png","","",""
"image-slider-2AFC","276","894772","0.0-41.36-1.36","2938","","","","-54","","","","","","","","heartS.png","1354,2410","-45,-54",""
"html-keyboard-response","277","895475","0.0-41.36-2.36","null","","","","","","","null","","","","","","","",""
"image-selector-fb","278","898479","0.0-41.37-0.37","null","pics2/SA6.jpg,pics2/SW6.jpg","","","","","","","false","null","","","noS.png","","",""
"image-slider-2AFC","279","902956","0.0-41.37-1.37","4475","","","","-25","","","","","","","","sizeS.png","3715","-25",""
"html-keyboard-response","280","903809","0.0-41.37-2.37","null","","","","","","","null","","","","","","","",""
"image-selector-fb","281","906074","0.0-41.38-0.38","1761","pics2/FR1.jpg,pics2/VE1.jpg","","","","","","","false","0","","","sizeS.png","","",""
"image-slider-2AFC","282","907931","0.0-41.38-1.38","1856","","","","-38","","","","","","","","sizeS.png","1416","-38",""
"html-keyboard-response","283","908685","0.0-41.38-2.38","null","","","","","","","null","","","","","","","",""
"image-selector-fb","284","911690","0.0-41.39-0.39","null","pics2/SW5.jpg,pics2/SA3.jpg","","","","","","","false","null","","","noS.png","","",""
"image-slider-2AFC","285","915021","0.0-41.39-1.39","3330","","","","11","","","","","","","","sizeS.png","2928","11",""
"html-keyboard-response","286","915773","0.0-41.39-2.39","null","","","","","","","null","","","","","","","",""
"image-selector-fb","287","918074","0.0-41.40-0.40","1796","pics2/SW4.jpg,pics2/SW3.jpg","","","","","","","true","1","","","sizeS.png","","",""
"image-slider-2AFC","288","921075","0.0-41.40-1.40","3001","","","","74","","","","","","","","heartS.png","2489","74",""
"html-keyboard-response","289","921878","0.0-41.40-2.40","null","","","","","","","null","","","","","","","",""
"image-selector-fb","290","923841","0.0-41.41-0.41","1459","pics2/SA4.jpg,pics2/SW6.jpg","","","","","","","true","1","","","sizeS.png","","",""
"image-slider-2AFC","291","925420","0.0-41.41-1.41","1577","","","","13","","","","","","","","sizeS.png","1130","13",""
"html-keyboard-response","292","926222","0.0-41.41-2.41","null","","","","","","","null","","","","","","","",""
"image-selector-fb","293","928122","0.0-41.42-0.42","1395","pics2/FR2.jpg,pics2/SW5.jpg","","","","","","","true","1","","","heartS.png","","",""
"image-slider-2AFC","294","930580","0.0-41.42-1.42","2456","","","","-25","","","","","","","","sizeS.png","1825","-25",""
"html-keyboard-response","295","931383","0.0-41.42-2.42","null","","","","","","","null","","","","","","","",""
"image-selector-fb","296","933505","0.0-41.43-0.43","1617","pics2/SW6.jpg,pics2/SW4.jpg","","","","","","","true","1","","","heartS.png","","",""
"image-slider-2AFC","297","935427","0.0-41.43-1.43","1921","","","","99","","","","","","","","heartS.png","1305","99",""
"html-keyboard-response","298","936180","0.0-41.43-2.43","null","","","","","","","null","","","","","","","",""
"image-selector-fb","299","939185","0.0-41.44-0.44","null","pics2/SA6.jpg,pics2/FR6.jpg","","","","","","","false","null","","","noS.png","","",""
"image-slider-2AFC","300","942404","0.0-41.44-1.44","3218","","","","-16","","","","","","","","sizeS.png","2857","-16",""
"html-keyboard-response","301","943207","0.0-41.44-2.44","null","","","","","","","null","","","","","","","",""
"image-selector-fb","302","945176","0.0-41.45-0.45","1465","pics2/SA6.jpg,pics2/SW3.jpg","","","","","","","true","1","","","sizeS.png","","",""
"image-slider-2AFC","303","948524","0.0-41.45-1.45","3347","","","","15","","","","","","","","sizeS.png","2947","15",""
"html-keyboard-response","304","949277","0.0-41.45-2.45","null","","","","","","","null","","","","","","","",""
"image-selector-fb","305","952282","0.0-41.46-0.46","null","pics2/VE1.jpg,pics2/SW1.jpg","","","","","","","false","null","","","noS.png","","",""
"image-slider-2AFC","306","955436","0.0-41.46-1.46","3152","","","","10","","","","","","","","heartS.png","2552","10",""
"html-keyboard-response","307","956239","0.0-41.46-2.46","null","","","","","","","null","","","","","","","",""
"image-selector-fb","308","958490","0.0-41.47-0.47","1748","pics2/SW4.jpg,pics2/FR2.jpg","","","","","","","true","1","","","sizeS.png","","",""
"image-slider-2AFC","309","961548","0.0-41.47-1.47","3057","","","","33","","","","","","","","sizeS.png","1241,2409","15,33",""
"html-keyboard-response","310","962251","0.0-41.47-2.47","null","","","","","","","null","","","","","","","",""
"image-selector-fb","311","965255","0.0-41.48-0.48","null","pics2/SW5.jpg,pics2/SA6.jpg","","","","","","","false","null","","","noS.png","","",""
"image-slider-2AFC","312","968284","0.0-41.48-1.48","3028","","","","-99","","","","","","","","sizeS.png","2444","-99",""
"html-keyboard-response","313","969139","0.0-41.48-2.48","null","","","","","","","null","","","","","","","",""
"image-selector-fb","314","970970","0.0-41.49-0.49","1328","pics2/SW3.jpg,pics2/SA3.jpg","","","","","","","false","0","","","heartS.png","","",""
"image-slider-2AFC","315","973468","0.0-41.49-1.49","2497","","","","-43","","","","","","","","sizeS.png","1881","-43",""
"html-keyboard-response","316","974221","0.0-41.49-2.49","null","","","","","","","null","","","","","","","",""
"image-selector-fb","317","976202","0.0-41.50-0.50","1478","pics2/VE1.jpg,pics2/SA4.jpg","","","","","","","false","0","","","heartS.png","","",""
"image-slider-2AFC","318","978644","0.0-41.50-1.50","2441","","","","50","","","","","","","","heartS.png","1817","50",""
"html-keyboard-response","319","979347","0.0-41.50-2.50","null","","","","","","","null","","","","","","","",""
"image-selector-fb","320","982352","0.0-41.51-0.51","null","pics2/SA6.jpg,pics2/FR1.jpg","","","","","","","false","null","","","noS.png","","",""
"image-slider-2AFC","321","985396","0.0-41.51-1.51","3043","","","","45","","","","","","","","sizeS.png","2539","45",""
"html-keyboard-response","322","986249","0.0-41.51-2.51","null","","","","","","","null","","","","","","","",""
"image-selector-fb","323","987803","0.0-41.52-0.52","1050","pics2/SW3.jpg,pics2/SW1.jpg","","","","","","","false","0","","","heartS.png","","",""
"image-slider-2AFC","324","989941","0.0-41.52-1.52","2137","","","","-100","","","","","","","","sizeS.png","1209","-100",""
"html-keyboard-response","325","990644","0.0-41.52-2.52","null","","","","","","","null","","","","","","","",""
"image-selector-fb","326","993649","0.0-41.53-0.53","null","pics2/FR1.jpg,pics2/SW1.jpg","","","","","","","false","null","","","noS.png","","",""
"image-slider-2AFC","327","997076","0.0-41.53-1.53","3426","","","","23","","","","","","","","heartS.png","2587","23",""
"html-keyboard-response","328","997780","0.0-41.53-2.53","null","","","","","","","null","","","","","","","",""
"image-selector-fb","329","1000785","0.0-41.54-0.54","null","pics2/SA4.jpg,pics2/FR6.jpg","","","","","","","false","null","","","noS.png","","",""
"image-slider-2AFC","330","1003261","0.0-41.54-1.54","2474","","","","10","","","","","","","","sizeS.png","2034","10",""
"html-keyboard-response","331","1004013","0.0-41.54-2.54","null","","","","","","","null","","","","","","","",""
"image-selector-fb","332","1006634","0.0-41.55-0.55","2118","pics2/SA6.jpg,pics2/VE1.jpg","","","","","","","true","1","","","heartS.png","","",""
"image-slider-2AFC","333","1009205","0.0-41.55-1.55","2569","","","","38","","","","","","","","sizeS.png","1977","38",""
"html-keyboard-response","334","1009906","0.0-41.55-2.55","null","","","","","","","null","","","","","","","",""
"image-selector-fb","335","1011507","0.0-41.56-0.56","1098","pics2/FR1.jpg,pics2/SA3.jpg","","","","","","","false","0","","","heartS.png","","",""
"image-slider-2AFC","336","1013669","0.0-41.56-1.56","2160","","","","-43","","","","","","","","heartS.png","1504","-43",""
"html-keyboard-response","337","1014521","0.0-41.56-2.56","null","","","","","","","null","","","","","","","",""
"image-selector-fb","338","1016066","0.0-41.57-0.57","1042","pics2/SW3.jpg,pics2/SW6.jpg","","","","","","","false","0","","","heartS.png","","",""
"image-slider-2AFC","339","1018069","0.0-41.57-1.57","2001","","","","-81","","","","","","","","sizeS.png","1218","-81",""
"html-keyboard-response","340","1018921","0.0-41.57-2.57","null","","","","","","","null","","","","","","","",""
"image-selector-fb","341","1020750","0.0-41.58-0.58","1325","pics2/SW3.jpg,pics2/VE1.jpg","","","","","","","false","0","","","heartS.png","","",""
"image-slider-2AFC","342","1022437","0.0-41.58-1.58","1686","","","","-100","","","","","","","","heartS.png","1006","-100",""
"html-keyboard-response","343","1023289","0.0-41.58-2.58","null","","","","","","","null","","","","","","","",""
"image-selector-fb","344","1025435","0.0-41.59-0.59","1642","pics2/SW5.jpg,pics2/SW4.jpg","","","","","","","false","0","","","sizeS.png","","",""
"image-slider-2AFC","345","1027317","0.0-41.59-1.59","1881","","","","-100","","","","","","","","heartS.png","1281","-100",""
"html-keyboard-response","346","1028069","0.0-41.59-2.59","null","","","","","","","null","","","","","","","",""
"image-selector-fb","347","1030235","0.0-41.60-0.60","1663","pics2/FR2.jpg,pics2/SA6.jpg","","","","","","","false","0","","","heartS.png","","",""
"image-slider-2AFC","348","1031941","0.0-41.60-1.60","1705","","","","-57","","","","","","","","heartS.png","1025","-57",""
"html-keyboard-response","349","1032644","0.0-41.60-2.60","null","","","","","","","null","","","","","","","",""
"image-selector-fb","350","1034715","0.0-41.61-0.61","1568","pics2/VE1.jpg,pics2/FR1.jpg","","","","","","","true","1","","","heartS.png","","",""
"image-slider-2AFC","351","1037221","0.0-41.61-1.61","2505","","","","64","","","","","","","","heartS.png","1698","64",""
"html-keyboard-response","352","1038025","0.0-41.61-2.61","null","","","","","","","null","","","","","","","",""
"image-selector-fb","353","1041029","0.0-41.62-0.62","null","pics2/SW3.jpg,pics2/SW5.jpg","","","","","","","false","null","","","noS.png","","",""
"image-slider-2AFC","354","1044117","0.0-41.62-1.62","3087","","","","-100","","","","","","","","heartS.png","2584","-100",""
"html-keyboard-response","355","1044919","0.0-41.62-2.62","null","","","","","","","null","","","","","","","",""
"image-selector-fb","356","1047595","0.0-41.63-0.63","2172","pics2/FR1.jpg,pics2/SW6.jpg","","","","","","","false","0","","","sizeS.png","","",""
"image-slider-2AFC","357","1050221","0.0-41.63-1.63","2625","","","","-42","","","","","","","","heartS.png","2121","-42",""
"html-keyboard-response","358","1051074","0.0-41.63-2.63","null","","","","","","","null","","","","","","","",""
"image-selector-fb","359","1054078","0.0-41.64-0.64","null","pics2/VE1.jpg,pics2/SW6.jpg","","","","","","","false","null","","","noS.png","","",""
"image-slider-2AFC","360","1056885","0.0-41.64-1.64","2806","","","","-61","","","","","","","","sizeS.png","2078","-61",""
"html-keyboard-response","361","1057638","0.0-41.64-2.64","null","","","","","","","null","","","","","","","",""
"image-selector-fb","362","1059332","0.0-41.65-0.65","1190","pics2/FR6.jpg,pics2/SW4.jpg","","","","","","","true","1","","","sizeS.png","","",""
"image-slider-2AFC","363","1061590","0.0-41.65-1.65","2256","","","","96","","","","","","","","heartS.png","1784","96",""
"html-keyboard-response","364","1062342","0.0-41.65-2.65","null","","","","","","","null","","","","","","","",""
