"trial_type","trial_index","time_elapsed","internal_node_id","rt","stimulus","button_pressed","success","response","cat","value","key_press","correct","image_click","first_click_rt","first_click_val","symbol","all_click_rt","all_click_val","view_history"
"pavlovia","0","12","0.0-0.0","","","","","","","","","","","","","","","",""
"html-button-response","1","4963","0.0-1.0","4948","<div style='width: 700px; font-size: 150%'><font size='40'>  Welcome to our study!</font><br><br><br> <small> Our experiment is about <i>decision making</i>. You will choose and rate different food items, such as these: <br><br> <div><img src='food_combo2.png', height = '400px'></img></div>","0","","","","","","","","","","","","",""
"html-button-response","2","14306","0.0-2.0","9341","<div style='width: 700px; font-size: 150%'><br><br><br><small> <u><i>This is a multi-part study.</i></u><br><br> In the first part you will rate 24 food items twice.<br><br><div><img src=""rat1.png"" style=""width: 25%""></img></div><br>In the second part (longest) you will make repeated choices and judgements concerning the food items.<br><br><div><img src=""mainx.png"" style=""width: 50%""></img></div><br>In the third and final part, you will rate the items again and answer few short questionnaires.<br><br><div><img src=""rat2.png"" style=""width: 50%""></img></div><br><br>","0","","","","","","","","","","","","",""
"fullscreen","3","16262","0.0-3.0","","","","true","","","","","","","","","","","",""
"html-button-response","4","33541","0.0-4.0","17276","<div style='width: 900px; font-size: 150%;' <font size='20%'> In the first part of the task you will use the mouse to rate food items on <i>2 scales</i> </font></div><br><br><div style='width: 900px'><div style='float: left; width: 50%; margin-right:2.5em'><img src='heartS.png'></img><p class='small' style='text-align: justify'>When you see the heart cue you will rate food items in terms of how much like them/would like to eat them <i>right now</i>. You will rate them on a continuous scale from left (strong dislike) to right (strong liking). Before submitting your rating, try imagining how the item tastes and how much you desire it.<br><br></p></div><div ><img src='sizeS.png'></img><p class='small' style='text-align: justify'>When you see the size cue, you will rate the same food items in terms of their size. The scale goes from left (tiny) to right (very large). You should assess picture size <i><u>relative</i></u> to the white background. <b>Remember:</b> rate the size of the picture, <u>not</u> the size of the item in real life. </p></div><div style='width: 900px'><br><br><b><i>Notice:</b> by starting the rating you agree that your sumbission might be rejected at an early stage and the experiment might end, if your size ratings are not at least modestly related to objective sizes, or if you repeat the same value ratings too many times. If you don't agree, please exit by closing the browser window. </i><br><br><br>","0","","","","","","","","","","","","",""
"html-button-response","5","38383","0.0-5.0","4840","<div><img src='heartS.png'></img></div><br><div style='text-align: justify; width: 700px'>Using the mouse, rate the <b><i>likeness</b></i> of the food items (how much you like them/would like to eat them <i>right now</i>). Far right-end of the scale indicates an item you <i>like a lot</i>. Far left-end indicates an item you <i>dislike a lot</i>. Think about each answer.   <ul><li>Try <b><i>not</b></i> to give identical rating to different items.</li><li>Use the whole scale, and <b><i>not</b></i> just the extremes</ul></div><br>","0","","","","","","","","","","","","",""
"image-slider-response","6","42348","0.0-6.0-0.0-0.0","3960","pics2/SW2.jpg","","","73","SW","","","","","","","","","",""
"image-slider-response","7","44525","0.0-6.0-0.0-0.1","1974","pics2/SA4.jpg","","","86","SA","","","","","","","","","",""
"image-slider-response","8","48905","0.0-6.0-0.0-0.2","4176","pics2/SA5.jpg","","","30","SA","","","","","","","","","",""
"image-slider-response","9","51179","0.0-6.0-0.0-0.3","2070","pics2/VE2.jpg","","","12","VE","","","","","","","","","",""
"image-slider-response","10","54064","0.0-6.0-0.0-0.4","2683","pics2/FR6.jpg","","","73","FR","","","","","","","","","",""
"image-slider-response","11","56108","0.0-6.0-0.0-0.5","1840","pics2/SW5.jpg","","","84","SW","","","","","","","","","",""
"image-slider-response","12","58051","0.0-6.0-0.0-0.6","1741","pics2/FR1.jpg","","","91","FR","","","","","","","","","",""
"image-slider-response","13","62790","0.0-6.0-0.0-0.7","2566","pics2/VE3.jpg","","","9","VE","","","","","","","","","",""
"image-slider-response","14","64605","0.0-6.0-0.0-0.8","1611","pics2/FR2.jpg","","","91","FR","","","","","","","","","",""
"image-slider-response","15","66455","0.0-6.0-0.0-0.9","1647","pics2/SW4.jpg","","","95","SW","","","","","","","","","",""
"image-slider-response","16","68210","0.0-6.0-0.0-0.10","1552","pics2/SA3.jpg","","","38","SA","","","","","","","","","",""
"image-slider-response","17","70613","0.0-6.0-0.0-0.11","2202","pics2/FR5.jpg","","","59","FR","","","","","","","","","",""
"image-slider-response","18","72670","0.0-6.0-0.0-0.12","1854","pics2/SA2.jpg","","","68","SA","","","","","","","","","",""
"image-slider-response","19","74776","0.0-6.0-0.0-0.13","1902","pics2/VE5.jpg","","","11","VE","","","","","","","","","",""
"image-slider-response","20","84410","0.0-6.0-0.0-0.14","1824","pics2/VE4.jpg","","","71","VE","","","","","","","","","",""
"image-slider-response","21","86269","0.0-6.0-0.0-0.15","1656","pics2/SW6.jpg","","","81","SW","","","","","","","","","",""
"image-slider-response","22","88102","0.0-6.0-0.0-0.16","1629","pics2/SA1.jpg","","","22","SA","","","","","","","","","",""
"image-slider-response","23","90411","0.0-6.0-0.0-0.17","2105","pics2/VE6.jpg","","","5","VE","","","","","","","","","",""
"image-slider-response","24","92915","0.0-6.0-0.0-0.18","2301","pics2/VE1.jpg","","","60","VE","","","","","","","","","",""
"image-slider-response","25","96044","0.0-6.0-0.0-0.19","1605","pics2/FR3.jpg","","","85","FR","","","","","","","","","",""
"image-slider-response","26","97961","0.0-6.0-0.0-0.20","1712","pics2/SW3.jpg","","","100","SW","","","","","","","","","",""
"image-slider-response","27","100245","0.0-6.0-0.0-0.21","2081","pics2/SW1.jpg","","","75","SW","","","","","","","","","",""
"image-slider-response","28","103084","0.0-6.0-0.0-0.22","2635","pics2/SA6.jpg","","","59","SA","","","","","","","","","",""
"image-slider-response","29","104914","0.0-6.0-0.0-0.23","1625","pics2/FR4.jpg","","","96","FR","","","","","","","","","",""
"html-button-response","30","108411","0.0-7.0","1826","<div style='width: 900px;'> <font size = 6><b> End of the first rating</b><br><br>","0","","","","","","","","","","","","",""
"html-button-response","31","109551","0.0-9.0","1139","<div ><img src='sizeS.png'></img></div><br><div style='text-align: justify; width: 700px'> Using the mouse, rate the <b><i>size</b></i> of the food items <b><i> relative to the white background.</b></i> Right-end of the scale indicates a <i>very large item</i>, which covers a large portion of the white rectangle. Left-end indicates a <i>very tiny</i> item which covers a tiny portion of the white rectangle.<br><br><i><u>Remember</i></u>: everything that is not the white background also contributes to item size (e.g. packing, plates, ect.)<br><br> Please keep in mind that if the accuracy of ratings do not allign well with actual sizes, the experiment will end.  As a result it will be consider incomplete and therefore no payment would be made. Good luck!<br><br></div><br>","0","","","","","","","","","","","","",""
"html-button-response","32","118094","0.0-10.0","8540","<div ><img src='sizeS.png'></img></div><br><b><font size=6>Examples of items that you might encounter</b><br><div style='width: 750px;'><div style='width: 33.33%; float:left'><br><br><br><i>Large Item</i><br><br><img src='large.jpg', width=200px></img></div><div style='float:right'><br><br><br><i>Small Item</i><br><br><img src='small.jpg', width=200px></img></div><div ><br><br><br><i>Medium Item</i><br><br><img src='med.jpg', width=200px></img></div></div><br><br>","0","","","","","","","","","","","","",""
"image-slider-response","33","123103","0.0-11.0-0.0-0.0","5007","pics2/SA3.jpg","","","32","null","","","","","","","","","",""
"image-slider-response","34","125850","0.0-11.0-0.0-0.1","2543","pics2/VE4.jpg","","","77","null","","","","","","","","","",""
"image-slider-response","35","129001","0.0-11.0-0.0-0.2","2947","pics2/VE6.jpg","","","5","null","","","","","","","","","",""
"image-slider-response","36","131114","0.0-11.0-0.0-0.3","1910","pics2/SW4.jpg","","","92","null","","","","","","","","","",""
"image-slider-response","37","132650","0.0-11.0-0.0-0.4","1332","pics2/FR2.jpg","","","92","null","","","","","","","","","",""
"image-slider-response","38","134726","0.0-11.0-0.0-0.5","1872","pics2/SW3.jpg","","","100","null","","","","","","","","","",""
"image-slider-response","39","136418","0.0-11.0-0.0-0.6","1489","pics2/FR3.jpg","","","99","null","","","","","","","","","",""
"image-slider-response","40","137983","0.0-11.0-0.0-0.7","1363","pics2/SW5.jpg","","","71","null","","","","","","","","","",""
"image-slider-response","41","139433","0.0-11.0-0.0-0.8","1246","pics2/SW6.jpg","","","86","null","","","","","","","","","",""
"image-slider-response","42","141299","0.0-11.0-0.0-0.9","1662","pics2/SA6.jpg","","","53","null","","","","","","","","","",""
"image-slider-response","43","143026","0.0-11.0-0.0-0.10","1524","pics2/FR4.jpg","","","92","null","","","","","","","","","",""
"image-slider-response","44","144450","0.0-11.0-0.0-0.11","1222","pics2/SA4.jpg","","","94","null","","","","","","","","","",""
"image-slider-response","45","146133","0.0-11.0-0.0-0.12","1480","pics2/VE5.jpg","","","22","null","","","","","","","","","",""
"image-slider-response","46","148324","0.0-11.0-0.0-0.13","1987","pics2/VE2.jpg","","","0","null","","","","","","","","","",""
"image-slider-response","47","150224","0.0-11.0-0.0-0.14","1698","pics2/SA5.jpg","","","28","null","","","","","","","","","",""
"image-slider-response","48","153500","0.0-11.0-0.0-0.15","3072","pics2/SA1.jpg","","","14","null","","","","","","","","","",""
"image-slider-response","49","155192","0.0-11.0-0.0-0.16","1490","pics2/SW2.jpg","","","86","null","","","","","","","","","",""
"image-slider-response","50","156557","0.0-11.0-0.0-0.17","1162","pics2/FR5.jpg","","","67","null","","","","","","","","","",""
"image-slider-response","51","158173","0.0-11.0-0.0-0.18","1411","pics2/SA2.jpg","","","79","null","","","","","","","","","",""
"image-slider-response","52","159972","0.0-11.0-0.0-0.19","1596","pics2/FR1.jpg","","","95","null","","","","","","","","","",""
"image-slider-response","53","161451","0.0-11.0-0.0-0.20","1276","pics2/VE1.jpg","","","59","null","","","","","","","","","",""
"image-slider-response","54","163140","0.0-11.0-0.0-0.21","1485","pics2/FR6.jpg","","","100","null","","","","","","","","","",""
"image-slider-response","55","164523","0.0-11.0-0.0-0.22","1180","pics2/SW1.jpg","","","82","null","","","","","","","","","",""
"image-slider-response","56","166239","0.0-11.0-0.0-0.23","1512","pics2/VE3.jpg","","","12","null","","","","","","","","","",""
"html-button-response","57","167223","0.0-12.0","782","<div style='width: 900px;'> <font size = 6><b> End of the second rating</b><br><br>","0","","","","","","","","","","","","",""
"html-button-response","58","173623","0.0-13.0","6398","<div style='width: 900px;'>Now please rate the items for the second time. <br><br>This is not a memory test - you don't need to be consistent with your previous ratings. Just as before, try to make accurate judgements.<br><br>","0","","","","","","","","","","","","",""
"html-button-response","59","174587","0.0-14.0","962","<div><img src='heartS.png'></img></div><br><div style='text-align: justify; width: 700px'>Using the mouse, rate the <b><i>likeness</b></i> of the food items (how much you like them/would like to eat them <i>right now</i>). Far right-end of the scale indicates an item you <i>like a lot</i>. Far left-end indicates an item you <i>dislike a lot</i>. Think about each answer.   <ul><li>Try <b><i>not</b></i> to give identical rating to different items.</li><li>Use the whole scale, and <b><i>not</b></i> just the extremes</ul></div><br>","0","","","","","","","","","","","","",""
"image-slider-response","60","177414","0.0-15.0-0.0-0.0","2825","pics2/SW4.jpg","","","94","SW","","","","","","","","","",""
"image-slider-response","61","179171","0.0-15.0-0.0-0.1","1555","pics2/VE3.jpg","","","8","VE","","","","","","","","","",""
"image-slider-response","62","180563","0.0-15.0-0.0-0.2","1188","pics2/SW5.jpg","","","84","SW","","","","","","","","","",""
"image-slider-response","63","182001","0.0-15.0-0.0-0.3","1235","pics2/FR4.jpg","","","92","FR","","","","","","","","","",""
"image-slider-response","64","183313","0.0-15.0-0.0-0.4","1107","pics2/SA6.jpg","","","58","SA","","","","","","","","","",""
"image-slider-response","65","184605","0.0-15.0-0.0-0.5","1089","pics2/FR3.jpg","","","93","FR","","","","","","","","","",""
"image-slider-response","66","185896","0.0-15.0-0.0-0.6","1089","pics2/SW2.jpg","","","89","SW","","","","","","","","","",""
"image-slider-response","67","187429","0.0-15.0-0.0-0.7","1330","pics2/VE6.jpg","","","12","VE","","","","","","","","","",""
"image-slider-response","68","189253","0.0-15.0-0.0-0.8","1622","pics2/FR1.jpg","","","75","FR","","","","","","","","","",""
"image-slider-response","69","190679","0.0-15.0-0.0-0.9","1222","pics2/SA1.jpg","","","29","SA","","","","","","","","","",""
"image-slider-response","70","192305","0.0-15.0-0.0-0.10","1423","pics2/SA5.jpg","","","32","SA","","","","","","","","","",""
"image-slider-response","71","194080","0.0-15.0-0.0-0.11","1572","pics2/SW3.jpg","","","100","SW","","","","","","","","","",""
"image-slider-response","72","195918","0.0-15.0-0.0-0.12","1634","pics2/FR2.jpg","","","94","FR","","","","","","","","","",""
"image-slider-response","73","197914","0.0-15.0-0.0-0.13","1794","pics2/FR6.jpg","","","86","FR","","","","","","","","","",""
"image-slider-response","74","199246","0.0-15.0-0.0-0.14","1129","pics2/SA2.jpg","","","65","SA","","","","","","","","","",""
"image-slider-response","75","200521","0.0-15.0-0.0-0.15","1071","pics2/FR5.jpg","","","70","FR","","","","","","","","","",""
"image-slider-response","76","201887","0.0-15.0-0.0-0.16","1163","pics2/VE4.jpg","","","62","VE","","","","","","","","","",""
"image-slider-response","77","203337","0.0-15.0-0.0-0.17","1246","pics2/SW1.jpg","","","84","SW","","","","","","","","","",""
"image-slider-response","78","204672","0.0-15.0-0.0-0.18","1131","pics2/SA3.jpg","","","38","SA","","","","","","","","","",""
"image-slider-response","79","206436","0.0-15.0-0.0-0.19","1561","pics2/SA4.jpg","","","90","SA","","","","","","","","","",""
"image-slider-response","80","207878","0.0-15.0-0.0-0.20","1239","pics2/VE1.jpg","","","71","VE","","","","","","","","","",""
"image-slider-response","81","209303","0.0-15.0-0.0-0.21","1221","pics2/SW6.jpg","","","81","SW","","","","","","","","","",""
"image-slider-response","82","211163","0.0-15.0-0.0-0.22","1657","pics2/VE2.jpg","","","10","VE","","","","","","","","","",""
"image-slider-response","83","212553","0.0-15.0-0.0-0.23","1187","pics2/VE5.jpg","","","31","VE","","","","","","","","","",""
"call-function","84","212771","0.0-16.0","","","","","","","","","","","","","","","",""
"call-function","85","212774","0.0-17.0","","","","","","","","","","","","","","","",""
"html-button-response","86","213476","0.0-18.0","701","<div style='width: 900px;'> <font size = 6><b> End of the first rating</b><br><br>","0","","","","","","","","","","","","",""
"html-button-response","87","235003","0.0-19.0","21525","<div ><img src='sizeS.png'></img></div><br><div style='text-align: justify; width: 700px'> Using the mouse, rate the <b><i>size</b></i> of the food items <b><i> relative to the white background.</b></i> Right-end of the scale indicates a <i>very large item</i>, which covers a large portion of the white rectangle. Left-end indicates a <i>very tiny</i> item which covers a tiny portion of the white rectangle.<br><br><i><u>Remember</i></u>: everything that is not the white background also contributes to item size (e.g. packing, plates, ect.)<br><br> Please keep in mind that if the accuracy of ratings do not allign well with actual sizes, the experiment will end.  As a result it will be consider incomplete and therefore no payment would be made. Good luck!<br><br></div><br>","0","","","","","","","","","","","","",""
"image-slider-response","88","237510","0.0-20.0-0.0-0.0","2506","pics2/SW1.jpg","","","83","null","","","","","","","","","",""
"image-slider-response","89","239967","0.0-20.0-0.0-0.1","2254","pics2/FR3.jpg","","","44","null","","","","","","","","","",""
"image-slider-response","90","241886","0.0-20.0-0.0-0.2","1715","pics2/SA1.jpg","","","75","null","","","","","","","","","",""
"image-slider-response","91","244348","0.0-20.0-0.0-0.3","2258","pics2/FR1.jpg","","","95","null","","","","","","","","","",""
"image-slider-response","92","245968","0.0-20.0-0.0-0.4","1417","pics2/SW3.jpg","","","94","null","","","","","","","","","",""
"image-slider-response","93","248551","0.0-20.0-0.0-0.5","2379","pics2/VE4.jpg","","","67","null","","","","","","","","","",""
"image-slider-response","94","251023","0.0-20.0-0.0-0.6","2269","pics2/SA5.jpg","","","17","null","","","","","","","","","",""
"image-slider-response","95","253476","0.0-20.0-0.0-0.7","2250","pics2/SW2.jpg","","","33","null","","","","","","","","","",""
"image-slider-response","96","255723","0.0-20.0-0.0-0.8","2044","pics2/VE6.jpg","","","21","null","","","","","","","","","",""
"image-slider-response","97","258041","0.0-20.0-0.0-0.9","2115","pics2/VE5.jpg","","","76","null","","","","","","","","","",""
"image-slider-response","98","261000","0.0-20.0-0.0-0.10","2755","pics2/SW4.jpg","","","55","null","","","","","","","","","",""
"image-slider-response","99","262833","0.0-20.0-0.0-0.11","1629","pics2/FR6.jpg","","","57","null","","","","","","","","","",""
"image-slider-response","100","265509","0.0-20.0-0.0-0.12","2473","pics2/VE3.jpg","","","79","null","","","","","","","","","",""
"image-slider-response","101","267357","0.0-20.0-0.0-0.13","1646","pics2/FR5.jpg","","","54","null","","","","","","","","","",""
"image-slider-response","102","269098","0.0-20.0-0.0-0.14","1538","pics2/SA4.jpg","","","88","null","","","","","","","","","",""
"image-slider-response","103","270723","0.0-20.0-0.0-0.15","1422","pics2/SA3.jpg","","","25","null","","","","","","","","","",""
"image-slider-response","104","272316","0.0-20.0-0.0-0.16","1390","pics2/SA2.jpg","","","81","null","","","","","","","","","",""
"image-slider-response","105","274556","0.0-20.0-0.0-0.17","2038","pics2/VE1.jpg","","","76","null","","","","","","","","","",""
"image-slider-response","106","276605","0.0-20.0-0.0-0.18","1845","pics2/FR4.jpg","","","71","null","","","","","","","","","",""
"image-slider-response","107","278474","0.0-20.0-0.0-0.19","1664","pics2/SW6.jpg","","","63","null","","","","","","","","","",""
"image-slider-response","108","279923","0.0-20.0-0.0-0.20","1246","pics2/FR2.jpg","","","78","null","","","","","","","","","",""
"image-slider-response","109","281696","0.0-20.0-0.0-0.21","1570","pics2/SW5.jpg","","","47","null","","","","","","","","","",""
"image-slider-response","110","283440","0.0-20.0-0.0-0.22","1540","pics2/SA6.jpg","","","63","null","","","","","","","","","",""
"image-slider-response","111","286647","0.0-20.0-0.0-0.23","3003","pics2/VE2.jpg","","","36","null","","","","","","","","","",""
"call-function","112","286856","0.0-21.0","","","","","","","","","","","","","","","",""
"html-button-response","113","287646","0.0-22.0","790","<div style='width: 900px;'> <font size = 6><b> End of the second rating</b><br><br>","0","","","","","","","","","","","","",""
"pavlovia","114","287658","0.0-23.0","","","","","","","","","","","","","","","",""
"html-keyboard-response","115","292662","0.0-24.0","null","<div style='width: 700px;'> <font size=6><b>SHORT BREAK</font></b><br><br><i> Please wait 5 seconds to continue</i></div> ","","","","","","null","","","","","","","",""
"pavlovia","116","292664","0.0-25.0","","","","","","","","","","","","","","","",""
"html-button-response","117","304604","0.0-26.0","11937","<div style='width: 700px;'>In the main part of the study, you will be choosing between 2 items. When it's time to choose,  this symbol will appear: <br><br><img src='chooseS.png'></img><br><br>Below, a cue will signify the type of choice: </div><br><div style='width: 700px;'><div style='float: left; width: 50%'><img src='heartS.png'></img><p class='small'>Heart cue means you should choose the item you <b><i>prefer</b></i> more.</p></div><div class='float: right; width:50%'><img src='sizeS.png'></img><p class='small'>Size cue means you should choose the <b><i>larger</b></i> item. </p></div></div><br><div style='width: 700px;'>When you click, a green square will appear around the item you chose.<br></div><div><br>","0","","","","","","","","","","","","",""
"image-selector-fb-tut","118","308078","0.0-27.0","2467","0232.jpg,0123.jpg","","","","","","","false","0","","","","","",""
"image-selector-fb-tut","119","312294","0.0-28.0","3211","0232.jpg,0123.jpg","","","","","","","false","0","","","","","",""
"html-button-response","120","317586","0.0-29.0","5291","<div style='width: 900px;'>Your choices should be both <b><i>fast and accurate</b></i>. <br><br>You will have <i>4 seconds</i> to make each choice, which should be enough consider the options and click on one of the items.<br><br>","0","","","","","","","","","","","","",""
"html-button-response","121","323985","0.0-30.0","6397","<div style='width: 900px;'>Additionally, on some choice trials you will see the <b><i>no-choice cue</b></i>: <br><br><img src='noS.png'></img> <br><br>This cue means you can't make any choice. You can examine the items, but  can't click on any of them. Just wait patiently for the cue to dissapear.<br><br>","0","","","","","","","","","","","","",""
"image-selector-fb-tut","122","325996","0.0-31.0","null","0232.jpg,0123.jpg","","","","","","","false","null","","","","","",""
"html-button-response","123","337393","0.0-32.0","11395","<div style='width: 900px;'>After each choice the items will remain on the screen and you will see this symbol: <br><br><img src='judgeS.png'></img> <br><br>This means you should rate<b> the magnitude of the difference</b> between the items using a scale: </div><br><div style='width: 900px; '><div style='float: left; width: 50%; margin-right: 2.5em; align-self:left'><img src='heartS.png'></img><p class='small' style = 'text-align: justify;'>Heart cue means you should rate <b>how much you prefer</b> one of the items over the other. Moving the scale indicator to the left means you prefer the left one; moving it to the right - right one. The more you prefer one of them, the more towards that side you should move the scale indicator. </p></div><div class='float: right; width: 50%; margin-left: 2.5em;'><img src='sizeS.png'></img><p class='small' style='text-align: justify'>Size cue means you should rate <b>how much larger</b> is one of the items over the other. Moving the scale indicator to the left means you think the left is larger; moving it to the right - right one. The greater the difference in size, the more towards that side you should move the scale indicator.</div><br>","0","","","","","","","","","","","","",""
"image-slider-2AFC-tut","124","345550","0.0-33.0","8154","","","","61","","","","","","","","","","",""
"image-slider-2AFC-tut","125","351083","0.0-34.0","5530","","","","57","","","","","","","","","","",""
"html-button-response","126","363500","0.0-35.0","12415","<br><br><font size = 36><b> Examples </b></font><br><br><i> 1) I would like to eat some croissants a <b>lot more</b> than doritos right now:</i><br><img src='ex1.PNG', width='62%'></img><br><br><br><i> 2) I would like to eat some doritos a <b>bit more</b> than croissants right now, but just slightly:</i><br><img src='ex2.PNG' width='62%'></img>","0","","","","","","","","","","","","",""
"html-button-response","127","365808","0.0-36.0","2307","<div style='width: 900px;'><i>Now you know everything you need to do the task!</i> <br><br>Let's start by doing a <b>short training</b>, so you'll get used to how it works. </div><br>","0","","","","","","","","","","","","",""
"image-selector-fb","128","368816","0.0-37.0-0.0","null","pics2/SA2.jpg,pics2/VE1.jpg","","","","","","","false","null","","","noS.png","","",""
"image-slider-2AFC","129","373822","0.0-37.0-1.0","null","","","","null","","","","","","","","sizeS.png","","",""
"html-keyboard-response","130","374575","0.0-37.0-2.0","null","","","","","","","null","","","","","","","",""
"image-selector-fb","131","379083","0.0-37.1-0.1","null","pics2/VE2.jpg,pics2/SA2.jpg","","","","","","","false","null","","","heartS.png","","",""
"image-slider-2AFC","132","379084","0.0-37.1-1.1","null","","","","null","","","","","","","","heartS.png","","",""
"html-keyboard-response","133","379888","0.0-37.1-2.1","null","","","","","","","null","","","","","","","",""
"image-selector-fb","134","382894","0.0-37.2-0.2","null","pics2/SA2.jpg,pics2/VE3.jpg","","","","","","","false","null","","","noS.png","","",""
"image-slider-2AFC","135","387897","0.0-37.2-1.2","null","","","","null","","","","","","","","heartS.png","","",""
"html-keyboard-response","136","388701","0.0-37.2-2.2","null","","","","","","","null","","","","","","","",""
"image-selector-fb","137","393207","0.0-37.3-0.3","null","pics2/VE2.jpg,pics2/VE1.jpg","","","","","","","false","null","","","heartS.png","","",""
"image-slider-2AFC","138","393208","0.0-37.3-1.3","null","","","","null","","","","","","","","sizeS.png","","",""
"html-keyboard-response","139","393961","0.0-37.3-2.3","null","","","","","","","null","","","","","","","",""
"image-selector-fb","140","396966","0.0-37.4-0.4","null","pics2/FR5.jpg,pics2/VE3.jpg","","","","","","","false","null","","","noS.png","","",""
"image-slider-2AFC","141","400530","0.0-37.4-1.4","3561","","","","-13","","","","","","","","sizeS.png","1328","-13",""
"html-keyboard-response","142","401384","0.0-37.4-2.4","null","","","","","","","null","","","","","","","",""
"image-selector-fb","143","405889","0.0-37.5-0.5","null","pics2/VE5.jpg,pics2/SA1.jpg","","","","","","","false","null","","","sizeS.png","","",""
"image-slider-2AFC","144","405890","0.0-37.5-1.5","null","","","","null","","","","","","","","sizeS.png","","",""
"html-keyboard-response","145","406694","0.0-37.5-2.5","null","","","","","","","null","","","","","","","",""
"image-selector-fb","146","408846","0.0-37.6-0.6","1646","pics2/VE5.jpg,pics2/FR5.jpg","","","","","","","true","1","","","sizeS.png","","",""
"image-slider-2AFC","147","412954","0.0-37.6-1.6","4105","","","","57","","","","","","","","heartS.png","1679","57",""
"html-keyboard-response","148","413707","0.0-37.6-2.6","null","","","","","","","null","","","","","","","",""
"image-selector-fb","149","415526","0.0-37.7-0.7","1314","pics2/SA5.jpg,pics2/FR5.jpg","","","","","","","true","1","","","sizeS.png","","",""
"image-slider-2AFC","150","417679","0.0-37.7-1.7","2150","","","","44","","","","","","","","heartS.png","1005","44",""
"html-keyboard-response","151","418382","0.0-37.7-2.7","null","","","","","","","null","","","","","","","",""
"image-selector-fb","152","420345","0.0-37.8-0.8","1458","pics2/SA6.jpg,pics2/FR5.jpg","","","","","","","false","0","","","heartS.png","","",""
"image-slider-2AFC","153","422036","0.0-37.8-1.8","1690","","","","-59","","","","","","","","sizeS.png","1038","-59",""
"html-keyboard-response","154","422889","0.0-37.8-2.8","null","","","","","","","null","","","","","","","",""
"image-selector-fb","155","424393","0.0-37.9-0.9","998","pics2/SA5.jpg,pics2/SA2.jpg","","","","","","","true","1","","","sizeS.png","","",""
"image-slider-2AFC","156","426088","0.0-37.9-1.9","1691","","","","92","","","","","","","","sizeS.png","847","92",""
"html-keyboard-response","157","426841","0.0-37.9-2.9","null","","","","","","","null","","","","","","","",""
"image-selector-fb","158","429958","0.0-37.10-0.10","2613","pics2/VE5.jpg,pics2/SA3.jpg","","","","","","","false","0","","","sizeS.png","","",""
"image-slider-2AFC","159","431802","0.0-37.10-1.10","1840","","","","-5","","","","","","","","heartS.png","1348","-5",""
"html-keyboard-response","160","432654","0.0-37.10-2.10","null","","","","","","","null","","","","","","","",""
"image-selector-fb","161","434642","0.0-37.11-0.11","1483","pics2/VE2.jpg,pics2/FR5.jpg","","","","","","","true","1","","","heartS.png","","",""
"image-slider-2AFC","162","436778","0.0-37.11-1.11","2132","","","","75","","","","","","","","sizeS.png","1306","75",""
"html-keyboard-response","163","437481","0.0-37.11-2.11","null","","","","","","","null","","","","","","","",""
"html-button-response","164","438635","0.0-38.0","1152","<i><font size=10>Good job!</font></i> <br><br>Before we begin, you have a chance to review the rules, in case something was not clear.<br><br>","0","","","","","","","","","","","","",""
"instructions","165","442552","0.0-39.0","3916","","","","","","","","","","","","","","","[{""page_index"":0,""viewing_time"":1190},{""page_index"":1,""viewing_time"":1216},{""page_index"":2,""viewing_time"":1509}]"
"html-button-response","166","453133","0.0-40.0","10580","<div style='width: 900px;'> <font size='40'>Great! Now you're ready to begin</font><br><br>The main part of the experiment will consist of <u>3 blocks</u>. Each block consists of 66 decisions and judgements. You will have time for a short break between blocks.<br><br><br><i><u>Do your best to respond within the time limit.</u></i><br><br><i> Press the button to start the experiment<br><br></i>","0","","","","","","","","","","","","",""
"image-selector-fb","167","455092","0.0-41.0-0.0","1454","pics2/SA4.jpg,pics2/SW1.jpg","","","","","","","false","0","","","sizeS.png","","",""
"image-slider-2AFC","168","458166","0.0-41.0-1.0","3071","","","","-42","","","","","","","","sizeS.png","752,2481","-25,-42",""
"html-keyboard-response","169","458870","0.0-41.0-2.0","null","","","","","","","null","","","","","","","",""
"image-selector-fb","170","461623","0.0-41.1-0.1","2247","pics2/FR1.jpg,pics2/FR2.jpg","","","","","","","true","1","","","heartS.png","","",""
"image-slider-2AFC","171","464426","0.0-41.1-1.1","2799","","","","31","","","","","","","","heartS.png","905,2108","68,31",""
"html-keyboard-response","172","465229","0.0-41.1-2.1","null","","","","","","","null","","","","","","","",""
"image-selector-fb","173","468236","0.0-41.2-0.2","null","pics2/FR3.jpg,pics2/FR4.jpg","","","","","","","false","null","","","noS.png","","",""
"image-slider-2AFC","174","473240","0.0-41.2-1.2","null","","","","null","","","","","","","","sizeS.png","3701","37",""
"html-keyboard-response","175","474044","0.0-41.2-2.2","null","","","","","","","null","","","","","","","",""
"image-selector-fb","176","476199","0.0-41.3-0.3","1650","pics2/SA4.jpg,pics2/SW6.jpg","","","","","","","false","0","","","sizeS.png","","",""
"image-slider-2AFC","177","478441","0.0-41.3-1.3","2240","","","","-10","","","","","","","","heartS.png","1155,1890","-49,-10",""
"html-keyboard-response","178","479194","0.0-41.3-2.3","null","","","","","","","null","","","","","","","",""
"image-selector-fb","179","482200","0.0-41.4-0.4","null","pics2/SW4.jpg,pics2/SW1.jpg","","","","","","","false","null","","","noS.png","","",""
"image-slider-2AFC","180","486602","0.0-41.4-1.4","4400","","","","21","","","","","","","","heartS.png","3078","21",""
"html-keyboard-response","181","487355","0.0-41.4-2.4","null","","","","","","","null","","","","","","","",""
"image-selector-fb","182","489572","0.0-41.5-0.5","1711","pics2/SW5.jpg,pics2/SW6.jpg","","","","","","","false","0","","","sizeS.png","","",""
"image-slider-2AFC","183","491564","0.0-41.5-1.5","1989","","","","-29","","","","","","","","heartS.png","955,1556","-18,-29",""
"html-keyboard-response","184","492267","0.0-41.5-2.5","null","","","","","","","null","","","","","","","",""
"image-selector-fb","185","494455","0.0-41.6-0.6","1683","pics2/FR3.jpg,pics2/SW5.jpg","","","","","","","false","0","","","heartS.png","","",""
"image-slider-2AFC","186","496047","0.0-41.6-1.6","1589","","","","-28","","","","","","","","heartS.png","964","-28",""
"html-keyboard-response","187","496749","0.0-41.6-2.6","null","","","","","","","null","","","","","","","",""
"image-selector-fb","188","498455","0.0-41.7-0.7","1199","pics2/SW4.jpg,pics2/SW1.jpg","","","","","","","true","1","","","sizeS.png","","",""
"image-slider-2AFC","189","501648","0.0-41.7-1.7","3190","","","","86","","","","","","","","heartS.png","1383","86",""
"html-keyboard-response","190","502451","0.0-41.7-2.7","null","","","","","","","null","","","","","","","",""
"image-selector-fb","191","505337","0.0-41.8-0.8","2381","pics2/SW1.jpg,pics2/SW5.jpg","","","","","","","true","1","","","heartS.png","","",""
"image-slider-2AFC","192","507296","0.0-41.8-1.8","1955","","","","33","","","","","","","","heartS.png","1357","33",""
"html-keyboard-response","193","508049","0.0-41.8-2.8","null","","","","","","","null","","","","","","","",""
"image-selector-fb","194","511056","0.0-41.9-0.9","null","pics2/SW4.jpg,pics2/FR2.jpg","","","","","","","false","null","","","noS.png","","",""
"image-slider-2AFC","195","515337","0.0-41.9-1.9","4279","","","","59","","","","","","","","sizeS.png","2745","59",""
"html-keyboard-response","196","516191","0.0-41.9-2.9","null","","","","","","","null","","","","","","","",""
"image-selector-fb","197","519197","0.0-41.10-0.10","null","pics2/SW4.jpg,pics2/SW6.jpg","","","","","","","false","null","","","noS.png","","",""
"image-slider-2AFC","198","524200","0.0-41.10-1.10","null","","","","null","","","","","","","","heartS.png","2761","-50",""
"html-keyboard-response","199","524903","0.0-41.10-2.10","null","","","","","","","null","","","","","","","",""
"image-selector-fb","200","529407","0.0-41.11-0.11","null","pics2/FR2.jpg,pics2/FR6.jpg","","","","","","","false","null","","","sizeS.png","","",""
"image-slider-2AFC","201","529408","0.0-41.11-1.11","null","","","","null","","","","","","","","heartS.png","","",""
"html-keyboard-response","202","530212","0.0-41.11-2.11","null","","","","","","","null","","","","","","","",""
"image-selector-fb","203","531803","0.0-41.12-0.12","1086","pics2/FR4.jpg,pics2/FR1.jpg","","","","","","","false","0","","","sizeS.png","","",""
"image-slider-2AFC","204","533596","0.0-41.12-1.12","1789","","","","-23","","","","","","","","sizeS.png","1362","-23",""
"html-keyboard-response","205","534449","0.0-41.12-2.12","null","","","","","","","null","","","","","","","",""
"image-selector-fb","206","535917","0.0-41.13-0.13","962","pics2/FR2.jpg,pics2/FR4.jpg","","","","","","","true","1","","","sizeS.png","","",""
"image-slider-2AFC","207","540377","0.0-41.13-1.13","4457","","","","61","","","","","","","","heartS.png","1667","61",""
"html-keyboard-response","208","541080","0.0-41.13-2.13","null","","","","","","","null","","","","","","","",""
"image-selector-fb","209","542799","0.0-41.14-0.14","1213","pics2/FR3.jpg,pics2/SW6.jpg","","","","","","","false","0","","","sizeS.png","","",""
"image-slider-2AFC","210","546859","0.0-41.14-1.14","4057","","","","-23","","","","","","","","heartS.png","2315,3690","23,-23",""
"html-keyboard-response","211","547562","0.0-41.14-2.14","null","","","","","","","null","","","","","","","",""
"image-selector-fb","212","549274","0.0-41.15-0.15","1206","pics2/SW1.jpg,pics2/SW2.jpg","","","","","","","false","0","","","heartS.png","","",""
"image-slider-2AFC","213","552118","0.0-41.15-1.15","2843","","","","-43","","","","","","","","sizeS.png","1625","-43",""
"html-keyboard-response","214","552822","0.0-41.15-2.15","null","","","","","","","null","","","","","","","",""
"image-selector-fb","215","554810","0.0-41.16-0.16","1484","pics2/FR3.jpg,pics2/SW1.jpg","","","","","","","true","1","","","sizeS.png","","",""
"image-slider-2AFC","216","557677","0.0-41.16-1.16","2864","","","","88","","","","","","","","sizeS.png","972","88",""
"html-keyboard-response","217","558381","0.0-41.16-2.16","null","","","","","","","null","","","","","","","",""
"image-selector-fb","218","561387","0.0-41.17-0.17","null","pics2/SW3.jpg,pics2/SW5.jpg","","","","","","","false","null","","","noS.png","","",""
"image-slider-2AFC","219","565600","0.0-41.17-1.17","4205","","","","-53","","","","","","","","heartS.png","2832","-53",""
"html-keyboard-response","220","566305","0.0-41.17-2.17","null","","","","","","","null","","","","","","","",""
"image-selector-fb","221","567972","0.0-41.18-0.18","1160","pics2/FR2.jpg,pics2/SA4.jpg","","","","","","","true","1","","","sizeS.png","","",""
"image-slider-2AFC","222","570858","0.0-41.18-1.18","2884","","","","88","","","","","","","","heartS.png","1225","88",""
"html-keyboard-response","223","571662","0.0-41.18-2.18","null","","","","","","","null","","","","","","","",""
"image-selector-fb","224","574668","0.0-41.19-0.19","null","pics2/FR4.jpg,pics2/SW5.jpg","","","","","","","false","null","","","noS.png","","",""
"image-slider-2AFC","225","579673","0.0-41.19-1.19","null","","","","null","","","","","","","","sizeS.png","3952","-38",""
"html-keyboard-response","226","580376","0.0-41.19-2.19","null","","","","","","","null","","","","","","","",""
"image-selector-fb","227","582438","0.0-41.20-0.20","1558","pics2/FR4.jpg,pics2/SW3.jpg","","","","","","","true","1","","","heartS.png","","",""
"image-slider-2AFC","228","584407","0.0-41.20-1.20","1966","","","","97","","","","","","","","sizeS.png","548","97",""
"html-keyboard-response","229","585111","0.0-41.20-2.20","null","","","","","","","null","","","","","","","",""
"image-selector-fb","230","588118","0.0-41.21-0.21","null","pics2/SW3.jpg,pics2/SW2.jpg","","","","","","","false","null","","","noS.png","","",""
"image-slider-2AFC","231","592148","0.0-41.21-1.21","4027","","","","-32","","","","","","","","heartS.png","2101","-32",""
"html-keyboard-response","232","592851","0.0-41.21-2.21","null","","","","","","","null","","","","","","","",""
"image-selector-fb","233","595858","0.0-41.22-0.22","null","pics2/FR6.jpg,pics2/SW6.jpg","","","","","","","false","null","","","noS.png","","",""
"image-slider-2AFC","234","600862","0.0-41.22-1.22","null","","","","null","","","","","","","","sizeS.png","3596,4887","-23,64",""
"html-keyboard-response","235","601566","0.0-41.22-2.22","null","","","","","","","null","","","","","","","",""
"image-selector-fb","236","604545","0.0-41.23-0.23","2472","pics2/SW2.jpg,pics2/FR2.jpg","","","","","","","true","1","","","heartS.png","","",""
"image-slider-2AFC","237","606839","0.0-41.23-1.23","2292","","","","62","","","","","","","","heartS.png","1042","62",""
"html-keyboard-response","238","607542","0.0-41.23-2.23","null","","","","","","","null","","","","","","","",""
"image-selector-fb","239","610550","0.0-41.24-0.24","null","pics2/SW2.jpg,pics2/SW1.jpg","","","","","","","false","null","","","noS.png","","",""
"image-slider-2AFC","240","615553","0.0-41.24-1.24","null","","","","null","","","","","","","","heartS.png","3793","83",""
"html-keyboard-response","241","616306","0.0-41.24-2.24","null","","","","","","","null","","","","","","","",""
"image-selector-fb","242","619313","0.0-41.25-0.25","null","pics2/FR2.jpg,pics2/SW3.jpg","","","","","","","false","null","","","noS.png","","",""
"image-slider-2AFC","243","623048","0.0-41.25-1.25","3732","","","","45","","","","","","","","sizeS.png","1939","45",""
"html-keyboard-response","244","623801","0.0-41.25-2.25","null","","","","","","","null","","","","","","","",""
"image-selector-fb","245","625736","0.0-41.26-0.26","1430","pics2/FR1.jpg,pics2/SW3.jpg","","","","","","","true","1","","","heartS.png","","",""
"image-slider-2AFC","246","627662","0.0-41.26-1.26","1924","","","","70","","","","","","","","heartS.png","656","70",""
"html-keyboard-response","247","628516","0.0-41.26-2.26","null","","","","","","","null","","","","","","","",""
"image-selector-fb","248","630488","0.0-41.27-0.27","1467","pics2/SW6.jpg,pics2/SW2.jpg","","","","","","","true","1","","","heartS.png","","",""
"image-slider-2AFC","249","632946","0.0-41.27-1.27","2455","","","","42","","","","","","","","heartS.png","871","42",""
"html-keyboard-response","250","633749","0.0-41.27-2.27","null","","","","","","","null","","","","","","","",""
"image-selector-fb","251","636754","0.0-41.28-0.28","null","pics2/FR3.jpg,pics2/SW4.jpg","","","","","","","false","null","","","noS.png","","",""
"image-slider-2AFC","252","640219","0.0-41.28-1.28","3463","","","","-6","","","","","","","","heartS.png","1337,2312","-37,-6",""
"html-keyboard-response","253","640972","0.0-41.28-2.28","null","","","","","","","null","","","","","","","",""
"image-selector-fb","254","642711","0.0-41.29-0.29","1233","pics2/FR6.jpg,pics2/FR4.jpg","","","","","","","true","1","","","sizeS.png","","",""
"image-slider-2AFC","255","645602","0.0-41.29-1.29","2890","","","","27","","","","","","","","sizeS.png","2473","27",""
"html-keyboard-response","256","646355","0.0-41.29-2.29","null","","","","","","","null","","","","","","","",""
"image-selector-fb","257","648534","0.0-41.30-0.30","1675","pics2/FR1.jpg,pics2/SW5.jpg","","","","","","","true","1","","","heartS.png","","",""
"image-slider-2AFC","258","651285","0.0-41.30-1.30","2748","","","","-43","","","","","","","","sizeS.png","623,2215","16,-43",""
"html-keyboard-response","259","652088","0.0-41.30-2.30","null","","","","","","","null","","","","","","","",""
"image-selector-fb","260","655095","0.0-41.31-0.31","null","pics2/FR2.jpg,pics2/SW5.jpg","","","","","","","false","null","","","noS.png","","",""
"image-slider-2AFC","261","658834","0.0-41.31-1.31","3738","","","","-15","","","","","","","","heartS.png","2520","-15",""
"html-keyboard-response","262","659538","0.0-41.31-2.31","null","","","","","","","null","","","","","","","",""
"image-selector-fb","263","661179","0.0-41.32-0.32","1133","pics2/SW3.jpg,pics2/FR4.jpg","","","","","","","false","0","","","sizeS.png","","",""
"image-slider-2AFC","264","664047","0.0-41.32-1.32","2862","","","","-35","","","","","","","","sizeS.png","1378","-35",""
"html-keyboard-response","265","664800","0.0-41.32-2.32","null","","","","","","","null","","","","","","","",""
"image-selector-fb","266","667808","0.0-41.33-0.33","null","pics2/FR6.jpg,pics2/FR1.jpg","","","","","","","false","null","","","noS.png","","",""
"image-slider-2AFC","267","672719","0.0-41.33-1.33","4909","","","","23","","","","","","","","heartS.png","2514,4397","88,23",""
"html-keyboard-response","268","673471","0.0-41.33-2.33","null","","","","","","","null","","","","","","","",""
"image-selector-fb","269","675198","0.0-41.34-0.34","1222","pics2/SW2.jpg,pics2/SW4.jpg","","","","","","","true","1","","","heartS.png","","",""
"image-slider-2AFC","270","676750","0.0-41.34-1.34","1548","","","","27","","","","","","","","sizeS.png","764","27",""
"html-keyboard-response","271","677553","0.0-41.34-2.34","null","","","","","","","null","","","","","","","",""
"image-selector-fb","272","680559","0.0-41.35-0.35","null","pics2/SW5.jpg,pics2/FR1.jpg","","","","","","","false","null","","","noS.png","","",""
"image-slider-2AFC","273","685101","0.0-41.35-1.35","4539","","","","66","","","","","","","","heartS.png","3128","66",""
"html-keyboard-response","274","685904","0.0-41.35-2.35","null","","","","","","","null","","","","","","","",""
"image-selector-fb","275","689017","0.0-41.36-0.36","2605","pics2/FR6.jpg,pics2/SW1.jpg","","","","","","","true","1","","","sizeS.png","","",""
"image-slider-2AFC","276","693114","0.0-41.36-1.36","4093","","","","68","","","","","","","","heartS.png","944","68",""
"html-keyboard-response","277","693817","0.0-41.36-2.36","null","","","","","","","null","","","","","","","",""
"image-selector-fb","278","695189","0.0-41.37-0.37","864","pics2/FR6.jpg,pics2/SW3.jpg","","","","","","","true","1","","","sizeS.png","","",""
"image-slider-2AFC","279","697499","0.0-41.37-1.37","2308","","","","10","","","","","","","","heartS.png","623,1905","69,10",""
"html-keyboard-response","280","698253","0.0-41.37-2.37","null","","","","","","","null","","","","","","","",""
"image-selector-fb","281","700680","0.0-41.38-0.38","1921","pics2/SA4.jpg,pics2/SW2.jpg","","","","","","","false","0","","","heartS.png","","",""
"image-slider-2AFC","282","703316","0.0-41.38-1.38","2633","","","","-43","","","","","","","","sizeS.png","1466","-43",""
"html-keyboard-response","283","704019","0.0-41.38-2.38","null","","","","","","","null","","","","","","","",""
"image-selector-fb","284","707529","0.0-41.39-0.39","3005","pics2/SW2.jpg,pics2/FR6.jpg","","","","","","","true","1","","","heartS.png","","",""
"image-slider-2AFC","285","709906","0.0-41.39-1.39","2374","","","","-30","","","","","","","","sizeS.png","1473","-30",""
"html-keyboard-response","286","710761","0.0-41.39-2.39","null","","","","","","","null","","","","","","","",""
"image-selector-fb","287","712536","0.0-41.40-0.40","1269","pics2/FR3.jpg,pics2/SW2.jpg","","","","","","","false","0","","","sizeS.png","","",""
"image-slider-2AFC","288","714714","0.0-41.40-1.40","2174","","","","30","","","","","","","","sizeS.png","1531","30",""
"html-keyboard-response","289","715417","0.0-41.40-2.40","null","","","","","","","null","","","","","","","",""
"image-selector-fb","290","717005","0.0-41.41-0.41","1082","pics2/FR4.jpg,pics2/SW6.jpg","","","","","","","false","0","","","sizeS.png","","",""
"image-slider-2AFC","291","719022","0.0-41.41-1.41","2013","","","","-44","","","","","","","","heartS.png","1364","-44",""
"html-keyboard-response","292","719727","0.0-41.41-2.41","null","","","","","","","null","","","","","","","",""
"image-selector-fb","293","722734","0.0-41.42-0.42","null","pics2/FR4.jpg,pics2/SA4.jpg","","","","","","","false","null","","","noS.png","","",""
"image-slider-2AFC","294","727738","0.0-41.42-1.42","null","","","","null","","","","","","","","heartS.png","4259","78",""
"html-keyboard-response","295","728541","0.0-41.42-2.42","null","","","","","","","null","","","","","","","",""
"image-selector-fb","296","731548","0.0-41.43-0.43","null","pics2/FR2.jpg,pics2/SW2.jpg","","","","","","","false","null","","","noS.png","","",""
"image-slider-2AFC","297","735953","0.0-41.43-1.43","4399","","","","-16","","","","","","","","heartS.png","3050","-16",""
"html-keyboard-response","298","736657","0.0-41.43-2.43","null","","","","","","","null","","","","","","","",""
"image-selector-fb","299","739666","0.0-41.44-0.44","null","pics2/FR2.jpg,pics2/SW1.jpg","","","","","","","false","null","","","noS.png","","",""
"image-slider-2AFC","300","743954","0.0-41.44-1.44","4284","","","","70","","","","","","","","sizeS.png","2927","70",""
"html-keyboard-response","301","744758","0.0-41.44-2.44","null","","","","","","","null","","","","","","","",""
"image-selector-fb","302","748095","0.0-41.45-0.45","2830","pics2/SW6.jpg,pics2/FR6.jpg","","","","","","","true","1","","","heartS.png","","",""
"image-slider-2AFC","303","751952","0.0-41.45-1.45","3854","","","","-15","","","","","","","","sizeS.png","2320","-15",""
"html-keyboard-response","304","752655","0.0-41.45-2.45","null","","","","","","","null","","","","","","","",""
"image-selector-fb","305","754443","0.0-41.46-0.46","1282","pics2/SA4.jpg,pics2/SW4.jpg","","","","","","","false","0","","","heartS.png","","",""
"image-slider-2AFC","306","759448","0.0-41.46-1.46","null","","","","null","","","","","","","","heartS.png","","",""
"html-keyboard-response","307","760153","0.0-41.46-2.46","null","","","","","","","null","","","","","","","",""
"image-selector-fb","308","763162","0.0-41.47-0.47","null","pics2/FR3.jpg,pics2/SW3.jpg","","","","","","","false","null","","","noS.png","","",""
"image-slider-2AFC","309","766420","0.0-41.47-1.47","3255","","","","65","","","","","","","","sizeS.png","1896","65",""
"html-keyboard-response","310","767224","0.0-41.47-2.47","null","","","","","","","null","","","","","","","",""
"image-selector-fb","311","770233","0.0-41.48-0.48","null","pics2/FR3.jpg,pics2/SW2.jpg","","","","","","","false","null","","","noS.png","","",""
"image-slider-2AFC","312","772801","0.0-41.48-1.48","2564","","","","-21","","","","","","","","heartS.png","1331","-21",""
"html-keyboard-response","313","773504","0.0-41.48-2.48","null","","","","","","","null","","","","","","","",""
"image-selector-fb","314","776098","0.0-41.49-0.49","2087","pics2/FR4.jpg,pics2/SW2.jpg","","","","","","","false","0","","","sizeS.png","","",""
"image-slider-2AFC","315","779422","0.0-41.49-1.49","3322","","","","42","","","","","","","","sizeS.png","2001","42",""
"html-keyboard-response","316","780224","0.0-41.49-2.49","null","","","","","","","null","","","","","","","",""
"image-selector-fb","317","783235","0.0-41.50-0.50","null","pics2/SW1.jpg,pics2/SW5.jpg","","","","","","","false","null","","","noS.png","","",""
"image-slider-2AFC","318","787616","0.0-41.50-1.50","4377","","","","-57","","","","","","","","sizeS.png","2085,2843","49,-57",""
"html-keyboard-response","319","788470","0.0-41.50-2.50","null","","","","","","","null","","","","","","","",""
"image-selector-fb","320","791477","0.0-41.51-0.51","null","pics2/FR6.jpg,pics2/FR4.jpg","","","","","","","false","null","","","noS.png","","",""
"image-slider-2AFC","321","794233","0.0-41.51-1.51","2753","","","","-28","","","","","","","","sizeS.png","1619","-28",""
"html-keyboard-response","322","794937","0.0-41.51-2.51","null","","","","","","","null","","","","","","","",""
"image-selector-fb","323","797945","0.0-41.52-0.52","null","pics2/FR3.jpg,pics2/SW5.jpg","","","","","","","false","null","","","noS.png","","",""
"image-slider-2AFC","324","801156","0.0-41.52-1.52","3209","","","","-21","","","","","","","","heartS.png","1167","-21",""
"html-keyboard-response","325","801910","0.0-41.52-2.52","null","","","","","","","null","","","","","","","",""
"image-selector-fb","326","804750","0.0-41.53-0.53","2334","pics2/FR3.jpg,pics2/FR6.jpg","","","","","","","false","0","","","heartS.png","","",""
"image-slider-2AFC","327","808875","0.0-41.53-1.53","4121","","","","-13","","","","","","","","heartS.png","2584","-13",""
"html-keyboard-response","328","809678","0.0-41.53-2.53","null","","","","","","","null","","","","","","","",""
"image-selector-fb","329","811789","0.0-41.54-0.54","1601","pics2/FR6.jpg,pics2/FR3.jpg","","","","","","","true","1","","","sizeS.png","","",""
"image-slider-2AFC","330","814030","0.0-41.54-1.54","2239","","","","28","","","","","","","","heartS.png","847","28",""
"html-keyboard-response","331","814734","0.0-41.54-2.54","null","","","","","","","null","","","","","","","",""
"image-selector-fb","332","818004","0.0-41.55-0.55","2764","pics2/FR4.jpg,pics2/FR3.jpg","","","","","","","true","1","","","sizeS.png","","",""
"image-slider-2AFC","333","820707","0.0-41.55-1.55","2701","","","","33","","","","","","","","sizeS.png","1484","33",""
"html-keyboard-response","334","821561","0.0-41.55-2.55","null","","","","","","","null","","","","","","","",""
"image-selector-fb","335","823280","0.0-41.56-0.56","1214","pics2/SW5.jpg,pics2/SW3.jpg","","","","","","","true","1","","","sizeS.png","","",""
"image-slider-2AFC","336","825635","0.0-41.56-1.56","2351","","","","54","","","","","","","","sizeS.png","808","54",""
"html-keyboard-response","337","826338","0.0-41.56-2.56","null","","","","","","","null","","","","","","","",""
"image-selector-fb","338","829346","0.0-41.57-0.57","null","pics2/FR2.jpg,pics2/FR1.jpg","","","","","","","false","null","","","noS.png","","",""
"image-slider-2AFC","339","834136","0.0-41.57-1.57","4786","","","","-8","","","","","","","","heartS.png","2928,4191","37,-8",""
"html-keyboard-response","340","834839","0.0-41.57-2.57","null","","","","","","","null","","","","","","","",""
"image-selector-fb","341","836594","0.0-41.58-0.58","1247","pics2/SA4.jpg,pics2/SW5.jpg","","","","","","","false","0","","","heartS.png","","",""
"image-slider-2AFC","342","838503","0.0-41.58-1.58","1906","","","","-17","","","","","","","","heartS.png","713","-17",""
"html-keyboard-response","343","839307","0.0-41.58-2.58","null","","","","","","","null","","","","","","","",""
"image-selector-fb","344","840684","0.0-41.59-0.59","873","pics2/SW5.jpg,pics2/FR4.jpg","","","","","","","true","1","","","sizeS.png","","",""
"image-slider-2AFC","345","842746","0.0-41.59-1.59","2059","","","","80","","","","","","","","heartS.png","885","80",""
"html-keyboard-response","346","843449","0.0-41.59-2.59","null","","","","","","","null","","","","","","","",""
"image-selector-fb","347","845283","0.0-41.60-0.60","1329","pics2/SW5.jpg,pics2/SW2.jpg","","","","","","","false","0","","","sizeS.png","","",""
"image-slider-2AFC","348","847079","0.0-41.60-1.60","1795","","","","-20","","","","","","","","sizeS.png","1285","-20",""
"html-keyboard-response","349","847933","0.0-41.60-2.60","null","","","","","","","null","","","","","","","",""
"image-selector-fb","350","850043","0.0-41.61-0.61","1603","pics2/SW4.jpg,pics2/SA4.jpg","","","","","","","true","1","","","sizeS.png","","",""
"image-slider-2AFC","351","852409","0.0-41.61-1.61","2364","","","","69","","","","","","","","sizeS.png","640","69",""
"html-keyboard-response","352","853116","0.0-41.61-2.61","null","","","","","","","null","","","","","","","",""
"image-selector-fb","353","856125","0.0-41.62-0.62","null","pics2/FR4.jpg,pics2/SW3.jpg","","","","","","","false","null","","","noS.png","","",""
"image-slider-2AFC","354","859262","0.0-41.62-1.62","3135","","","","55","","","","","","","","heartS.png","2159","55",""
"html-keyboard-response","355","860116","0.0-41.62-2.62","null","","","","","","","null","","","","","","","",""
"image-selector-fb","356","862634","0.0-41.63-0.63","2011","pics2/SW1.jpg,pics2/FR2.jpg","","","","","","","true","1","","","heartS.png","","",""
"image-slider-2AFC","357","865285","0.0-41.63-1.63","2649","","","","-34","","","","","","","","sizeS.png","1308","-34",""
"html-keyboard-response","358","866089","0.0-41.63-2.63","null","","","","","","","null","","","","","","","",""
"image-selector-fb","359","867712","0.0-41.64-0.64","1113","pics2/FR3.jpg,pics2/SA4.jpg","","","","","","","true","1","","","sizeS.png","","",""
"image-slider-2AFC","360","870104","0.0-41.64-1.64","2388","","","","30","","","","","","","","heartS.png","1826","30",""
"html-keyboard-response","361","870907","0.0-41.64-2.64","null","","","","","","","null","","","","","","","",""
"image-selector-fb","362","873915","0.0-41.65-0.65","null","pics2/FR2.jpg,pics2/SW6.jpg","","","","","","","false","null","","","noS.png","","",""
"image-slider-2AFC","363","878919","0.0-41.65-1.65","null","","","","null","","","","","","","","sizeS.png","3866","54",""
"html-keyboard-response","364","879724","0.0-41.65-2.65","null","","","","","","","null","","","","","","","",""
"pavlovia","365","879746","0.0-42.0","","","","","","","","","","","","","","","",""
"html-keyboard-response","366","884748","0.0-43.0","null","<div style='width: 700px;'> <font size=6><b>SHORT BREAK</font></b><br><br><i> Please wait 5 seconds to continue</i></div> ","","","","","","null","","","","","","","",""
"pavlovia","367","884751","0.0-44.0","","","","","","","","","","","","","","","",""
"html-button-response","368","18329941","0.0-45.0","17445182","<div style='width: 700px;'> <font size=6><b>BLOCK 2</font></b><br><br>Press the button whenever you feel ready to start the second block (there are 3 in total)</div>","0","","","","","","","","","","","","",""
"image-selector-fb","369","18332554","0.0-46.0-0.0","2102","pics2/SA4.jpg,pics2/SW3.jpg","","","","","","","true","1","","","heartS.png","","",""
"image-slider-2AFC","370","18337564","0.0-46.0-1.0","null","","","","null","","","","","","","","sizeS.png","","",""
"html-keyboard-response","371","18338320","0.0-46.0-2.0","null","","","","","","","null","","","","","","","",""
"image-selector-fb","372","18341331","0.0-46.1-0.1","null","pics2/SW4.jpg,pics2/SW3.jpg","","","","","","","false","null","","","noS.png","","",""
"image-slider-2AFC","373","18345610","0.0-46.1-1.1","4275","","","","52","","","","","","","","heartS.png","2521","52",""
"html-keyboard-response","374","18346415","0.0-46.1-2.1","null","","","","","","","null","","","","","","","",""
"image-selector-fb","375","18349423","0.0-46.2-0.2","null","pics2/SW4.jpg,pics2/SW5.jpg","","","","","","","false","null","","","noS.png","","",""
"image-slider-2AFC","376","18354078","0.0-46.2-1.2","4651","","","","-35","","","","","","","","sizeS.png","3541","-35",""
"html-keyboard-response","377","18354781","0.0-46.2-2.2","null","","","","","","","null","","","","","","","",""
"image-selector-fb","378","18357327","0.0-46.3-0.3","2038","pics2/SW6.jpg,pics2/SA4.jpg","","","","","","","true","1","","","heartS.png","","",""
"image-slider-2AFC","379","18361478","0.0-46.3-1.3","4145","","","","51","","","","","","","","sizeS.png","3520","51",""
"html-keyboard-response","380","18362332","0.0-46.3-2.3","null","","","","","","","null","","","","","","","",""
"image-selector-fb","381","18365341","0.0-46.4-0.4","null","pics2/SW1.jpg,pics2/SA4.jpg","","","","","","","false","null","","","noS.png","","",""
"image-slider-2AFC","382","18368893","0.0-46.4-1.4","3550","","","","61","","","","","","","","heartS.png","2257","61",""
"html-keyboard-response","383","18369597","0.0-46.4-2.4","null","","","","","","","null","","","","","","","",""
"image-selector-fb","384","18372674","0.0-46.5-0.5","2571","pics2/SW5.jpg,pics2/SW4.jpg","","","","","","","true","1","","","sizeS.png","","",""
"image-slider-2AFC","385","18375052","0.0-46.5-1.5","2375","","","","-9","","","","","","","","heartS.png","2016","-9",""
"html-keyboard-response","386","18375906","0.0-46.5-2.5","null","","","","","","","null","","","","","","","",""
"image-selector-fb","387","18378914","0.0-46.6-0.6","null","pics2/FR4.jpg,pics2/SW6.jpg","","","","","","","false","null","","","noS.png","","",""
"image-slider-2AFC","388","18381800","0.0-46.6-1.6","2884","","","","-36","","","","","","","","heartS.png","1417","-36",""
"html-keyboard-response","389","18382504","0.0-46.6-2.6","null","","","","","","","null","","","","","","","",""
"image-selector-fb","390","18385511","0.0-46.7-0.7","null","pics2/SW2.jpg,pics2/SA4.jpg","","","","","","","false","null","","","noS.png","","",""
"image-slider-2AFC","391","18387916","0.0-46.7-1.7","2401","","","","73","","","","","","","","heartS.png","1470","73",""
"html-keyboard-response","392","18388620","0.0-46.7-2.7","null","","","","","","","null","","","","","","","",""
"image-selector-fb","393","18390640","0.0-46.8-0.8","1512","pics2/SW6.jpg,pics2/SW5.jpg","","","","","","","true","1","","","heartS.png","","",""
"image-slider-2AFC","394","18392908","0.0-46.8-1.8","2266","","","","-25","","","","","","","","sizeS.png","1614","-25",""
"html-keyboard-response","395","18393611","0.0-46.8-2.8","null","","","","","","","null","","","","","","","",""
"image-selector-fb","396","18396333","0.0-46.9-0.9","2213","pics2/SW3.jpg,pics2/FR3.jpg","","","","","","","false","0","","","sizeS.png","","",""
"image-slider-2AFC","397","18399400","0.0-46.9-1.9","3064","","","","3","","","","","","","","heartS.png","1188,2713","-39,3",""
"html-keyboard-response","398","18400103","0.0-46.9-2.9","null","","","","","","","null","","","","","","","",""
"image-selector-fb","399","18402755","0.0-46.10-0.10","2145","pics2/SW4.jpg,pics2/SW6.jpg","","","","","","","true","1","","","sizeS.png","","",""
"image-slider-2AFC","400","18405257","0.0-46.10-1.10","2500","","","","49","","","","","","","","sizeS.png","1641","49",""
"html-keyboard-response","401","18406062","0.0-46.10-2.10","null","","","","","","","null","","","","","","","",""
"image-selector-fb","402","18409071","0.0-46.11-0.11","null","pics2/FR6.jpg,pics2/SW1.jpg","","","","","","","false","null","","","noS.png","","",""
"image-slider-2AFC","403","18411940","0.0-46.11-1.11","2866","","","","56","","","","","","","","sizeS.png","2157","56",""
"html-keyboard-response","404","18412793","0.0-46.11-2.11","null","","","","","","","null","","","","","","","",""
"image-selector-fb","405","18415505","0.0-46.12-0.12","2204","pics2/SA4.jpg,pics2/FR3.jpg","","","","","","","true","1","","","heartS.png","","",""
"image-slider-2AFC","406","18417586","0.0-46.12-1.12","2079","","","","-26","","","","","","","","sizeS.png","1431","-26",""
"html-keyboard-response","407","18418289","0.0-46.12-2.12","null","","","","","","","null","","","","","","","",""
"image-selector-fb","408","18421080","0.0-46.13-0.13","2284","pics2/FR6.jpg,pics2/SA4.jpg","","","","","","","true","1","","","sizeS.png","","",""
"image-slider-2AFC","409","18422915","0.0-46.13-1.13","1831","","","","36","","","","","","","","sizeS.png","1204","36",""
"html-keyboard-response","410","18423668","0.0-46.13-2.13","null","","","","","","","null","","","","","","","",""
"image-selector-fb","411","18425590","0.0-46.14-0.14","1412","pics2/SW6.jpg,pics2/FR3.jpg","","","","","","","true","1","","","heartS.png","","",""
"image-slider-2AFC","412","18427389","0.0-46.14-1.14","1795","","","","39","","","","","","","","heartS.png","827","39",""
"html-keyboard-response","413","18428142","0.0-46.14-2.14","null","","","","","","","null","","","","","","","",""
"image-selector-fb","414","18430188","0.0-46.15-0.15","1540","pics2/FR1.jpg,pics2/SW2.jpg","","","","","","","false","0","","","heartS.png","","",""
"image-slider-2AFC","415","18431847","0.0-46.15-1.15","1656","","","","-43","","","","","","","","heartS.png","980","-43",""
"html-keyboard-response","416","18432701","0.0-46.15-2.15","null","","","","","","","null","","","","","","","",""
"image-selector-fb","417","18435709","0.0-46.16-0.16","null","pics2/SW2.jpg,pics2/SW6.jpg","","","","","","","false","null","","","noS.png","","",""
"image-slider-2AFC","418","18438063","0.0-46.16-1.16","2352","","","","-25","","","","","","","","heartS.png","1693","-25",""
"html-keyboard-response","419","18438867","0.0-46.16-2.16","null","","","","","","","null","","","","","","","",""
"image-selector-fb","420","18441875","0.0-46.17-0.17","null","pics2/SW4.jpg,pics2/FR4.jpg","","","","","","","false","null","","","noS.png","","",""
"image-slider-2AFC","421","18443930","0.0-46.17-1.17","2048","","","","54","","","","","","","","heartS.png","1397","54",""
"html-keyboard-response","422","18444734","0.0-46.17-2.17","null","","","","","","","null","","","","","","","",""
"image-selector-fb","423","18447743","0.0-46.18-0.18","null","pics2/SA4.jpg,pics2/SW6.jpg","","","","","","","false","null","","","noS.png","","",""
"image-slider-2AFC","424","18449696","0.0-46.18-1.18","1950","","","","-50","","","","","","","","sizeS.png","1282","-50",""
"html-keyboard-response","425","18450550","0.0-46.18-2.18","null","","","","","","","null","","","","","","","",""
"image-selector-fb","426","18453035","0.0-46.19-0.19","1980","pics2/SW6.jpg,pics2/SW4.jpg","","","","","","","true","1","","","heartS.png","","",""
"image-slider-2AFC","427","18455179","0.0-46.19-1.19","2141","","","","-29","","","","","","","","sizeS.png","1672","-29",""
"html-keyboard-response","428","18455883","0.0-46.19-2.19","null","","","","","","","null","","","","","","","",""
"image-selector-fb","429","18458891","0.0-46.20-0.20","null","pics2/FR3.jpg,pics2/SW6.jpg","","","","","","","false","null","","","noS.png","","",""
"image-slider-2AFC","430","18463436","0.0-46.20-1.20","4543","","","","-28","","","","","","","","sizeS.png","4080","-28",""
"html-keyboard-response","431","18464190","0.0-46.20-2.20","null","","","","","","","null","","","","","","","",""
"image-selector-fb","432","18467201","0.0-46.21-0.21","null","pics2/SW2.jpg,pics2/SW5.jpg","","","","","","","false","null","","","noS.png","","",""
"image-slider-2AFC","433","18470536","0.0-46.21-1.21","3332","","","","-51","","","","","","","","sizeS.png","1472,2657","49,-51",""
"html-keyboard-response","434","18471240","0.0-46.21-2.21","null","","","","","","","null","","","","","","","",""
"image-selector-fb","435","18474484","0.0-46.22-0.22","2736","pics2/FR2.jpg,pics2/SW4.jpg","","","","","","","false","0","","","sizeS.png","","",""
"image-slider-2AFC","436","18476311","0.0-46.22-1.22","1824","","","","-15","","","","","","","","heartS.png","1405","-15",""
"html-keyboard-response","437","18477064","0.0-46.22-2.22","null","","","","","","","null","","","","","","","",""
"image-selector-fb","438","18480217","0.0-46.23-0.23","2645","pics2/FR4.jpg,pics2/FR6.jpg","","","","","","","false","0","","","heartS.png","","",""
"image-slider-2AFC","439","18483753","0.0-46.23-1.23","3533","","","","-17","","","","","","","","heartS.png","2147,3131","43,-17",""
"html-keyboard-response","440","18484456","0.0-46.23-2.23","null","","","","","","","null","","","","","","","",""
"image-selector-fb","441","18487464","0.0-46.24-0.24","null","pics2/FR6.jpg,pics2/SW3.jpg","","","","","","","false","null","","","noS.png","","",""
"image-slider-2AFC","442","18489850","0.0-46.24-1.24","2379","","","","69","","","","","","","","sizeS.png","1712","69",""
"html-keyboard-response","443","18490604","0.0-46.24-2.24","null","","","","","","","null","","","","","","","",""
"image-selector-fb","444","18493613","0.0-46.25-0.25","null","pics2/SW3.jpg,pics2/FR1.jpg","","","","","","","false","null","","","noS.png","","",""
"image-slider-2AFC","445","18498518","0.0-46.25-1.25","4903","","","","-39","","","","","","","","heartS.png","2842,4323","-15,-39",""
"html-keyboard-response","446","18499221","0.0-46.25-2.25","null","","","","","","","null","","","","","","","",""
"image-selector-fb","447","18502229","0.0-46.26-0.26","null","pics2/SW1.jpg,pics2/FR1.jpg","","","","","","","false","null","","","noS.png","","",""
"image-slider-2AFC","448","18504325","0.0-46.26-1.26","2093","","","","-29","","","","","","","","sizeS.png","1634","-29",""
"html-keyboard-response","449","18505078","0.0-46.26-2.26","null","","","","","","","null","","","","","","","",""
"image-selector-fb","450","18508086","0.0-46.27-0.27","null","pics2/SW4.jpg,pics2/SA4.jpg","","","","","","","false","null","","","noS.png","","",""
"image-slider-2AFC","451","18510674","0.0-46.27-1.27","2585","","","","67","","","","","","","","heartS.png","1043","67",""
"html-keyboard-response","452","18511428","0.0-46.27-2.27","null","","","","","","","null","","","","","","","",""
"image-selector-fb","453","18515935","0.0-46.28-0.28","null","pics2/FR2.jpg,pics2/FR1.jpg","","","","","","","false","null","","","sizeS.png","","",""
"image-slider-2AFC","454","18515936","0.0-46.28-1.28","null","","","","null","","","","","","","","sizeS.png","","",""
"html-keyboard-response","455","18516640","0.0-46.28-2.28","null","","","","","","","null","","","","","","","",""
"image-selector-fb","456","18518224","0.0-46.29-0.29","1077","pics2/FR4.jpg,pics2/SW1.jpg","","","","","","","true","1","","","sizeS.png","","",""
"image-slider-2AFC","457","18521125","0.0-46.29-1.29","2893","","","","76","","","","","","","","sizeS.png","992,1793","51,76",""
"html-keyboard-response","458","18521829","0.0-46.29-2.29","null","","","","","","","null","","","","","","","",""
"image-selector-fb","459","18523884","0.0-46.30-0.30","1546","pics2/FR4.jpg,pics2/FR2.jpg","","","","","","","true","1","","","heartS.png","","",""
"image-slider-2AFC","460","18526815","0.0-46.30-1.30","2928","","","","49","","","","","","","","sizeS.png","1994","49",""
"html-keyboard-response","461","18527568","0.0-46.30-2.30","null","","","","","","","null","","","","","","","",""
"image-selector-fb","462","18529487","0.0-46.31-0.31","1413","pics2/SW1.jpg,pics2/SA4.jpg","","","","","","","true","1","","","heartS.png","","",""
"image-slider-2AFC","463","18531898","0.0-46.31-1.31","2408","","","","-38","","","","","","","","heartS.png","1473","-38",""
"html-keyboard-response","464","18532602","0.0-46.31-2.31","null","","","","","","","null","","","","","","","",""
"image-selector-fb","465","18535609","0.0-46.32-0.32","null","pics2/FR2.jpg,pics2/SA4.jpg","","","","","","","false","null","","","noS.png","","",""
"image-slider-2AFC","466","18538958","0.0-46.32-1.32","3347","","","","40","","","","","","","","sizeS.png","2627","40",""
"html-keyboard-response","467","18539812","0.0-46.32-2.32","null","","","","","","","null","","","","","","","",""
"image-selector-fb","468","18542821","0.0-46.33-0.33","null","pics2/FR4.jpg,pics2/FR2.jpg","","","","","","","false","null","","","noS.png","","",""
"image-slider-2AFC","469","18547315","0.0-46.33-1.33","4491","","","","25","","","","","","","","sizeS.png","4164","25",""
"html-keyboard-response","470","18548168","0.0-46.33-2.33","null","","","","","","","null","","","","","","","",""
"image-selector-fb","471","18550404","0.0-46.34-0.34","1729","pics2/SA4.jpg,pics2/FR1.jpg","","","","","","","false","0","","","sizeS.png","","",""
"image-slider-2AFC","472","18553039","0.0-46.34-1.34","2631","","","","-49","","","","","","","","sizeS.png","1922","-49",""
"html-keyboard-response","473","18553892","0.0-46.34-2.34","null","","","","","","","null","","","","","","","",""
"image-selector-fb","474","18555761","0.0-46.35-0.35","1363","pics2/SW3.jpg,pics2/FR6.jpg","","","","","","","false","0","","","heartS.png","","",""
"image-slider-2AFC","475","18557397","0.0-46.35-1.35","1632","","","","-29","","","","","","","","sizeS.png","1123","-29",""
"html-keyboard-response","476","18558200","0.0-46.35-2.35","null","","","","","","","null","","","","","","","",""
"image-selector-fb","477","18560225","0.0-46.36-0.36","1518","pics2/SW2.jpg,pics2/SW3.jpg","","","","","","","true","1","","","heartS.png","","",""
"image-slider-2AFC","478","18562106","0.0-46.36-1.36","1874","","","","52","","","","","","","","heartS.png","1245","52",""
"html-keyboard-response","479","18562960","0.0-46.36-2.36","null","","","","","","","null","","","","","","","",""
"image-selector-fb","480","18565453","0.0-46.37-0.37","1986","pics2/SW4.jpg,pics2/SW5.jpg","","","","","","","true","1","","","heartS.png","","",""
"image-slider-2AFC","481","18567389","0.0-46.37-1.37","1932","","","","-25","","","","","","","","sizeS.png","1213","-25",""
"html-keyboard-response","482","18568142","0.0-46.37-2.37","null","","","","","","","null","","","","","","","",""
"image-selector-fb","483","18569749","0.0-46.38-0.38","1101","pics2/SW3.jpg,pics2/SW6.jpg","","","","","","","false","0","","","sizeS.png","","",""
"image-slider-2AFC","484","18572596","0.0-46.38-1.38","2843","","","","-30","","","","","","","","sizeS.png","1066","-30",""
"html-keyboard-response","485","18573399","0.0-46.38-2.38","null","","","","","","","null","","","","","","","",""
"image-selector-fb","486","18576407","0.0-46.39-0.39","null","pics2/FR4.jpg,pics2/FR1.jpg","","","","","","","false","null","","","noS.png","","",""
"image-slider-2AFC","487","18579462","0.0-46.39-1.39","3051","","","","57","","","","","","","","sizeS.png","2574","57",""
"html-keyboard-response","488","18580265","0.0-46.39-2.39","null","","","","","","","null","","","","","","","",""
"image-selector-fb","489","18583309","0.0-46.40-0.40","2538","pics2/FR2.jpg,pics2/SW2.jpg","","","","","","","true","1","","","sizeS.png","","",""
"image-slider-2AFC","490","18587820","0.0-46.40-1.40","4508","","","","37","","","","","","","","sizeS.png","1531,2023,3873","58,76,37",""
"html-keyboard-response","491","18588677","0.0-46.40-2.40","null","","","","","","","null","","","","","","","",""
"image-selector-fb","492","18590934","0.0-46.41-0.41","1749","pics2/FR1.jpg,pics2/SA4.jpg","","","","","","","true","1","","","heartS.png","","",""
"image-slider-2AFC","493","18594054","0.0-46.41-1.41","3117","","","","49","","","","","","","","sizeS.png","2055","49",""
"html-keyboard-response","494","18594757","0.0-46.41-2.41","null","","","","","","","null","","","","","","","",""
"image-selector-fb","495","18597765","0.0-46.42-0.42","null","pics2/FR3.jpg,pics2/FR6.jpg","","","","","","","false","null","","","noS.png","","",""
"image-slider-2AFC","496","18602527","0.0-46.42-1.42","4759","","","","54","","","","","","","","sizeS.png","1999","54",""
"html-keyboard-response","497","18603231","0.0-46.42-2.42","null","","","","","","","null","","","","","","","",""
"image-selector-fb","498","18606841","0.0-46.43-0.43","3103","pics2/SW3.jpg,pics2/SW1.jpg","","","","","","","false","0","","","sizeS.png","","",""
"image-slider-2AFC","499","18608685","0.0-46.43-1.43","1841","","","","-33","","","","","","","","heartS.png","1298","-33",""
"html-keyboard-response","500","18609538","0.0-46.43-2.43","null","","","","","","","null","","","","","","","",""
"image-selector-fb","501","18611457","0.0-46.44-0.44","1413","pics2/SW2.jpg,pics2/SW5.jpg","","","","","","","true","1","","","heartS.png","","",""
"image-slider-2AFC","502","18613168","0.0-46.44-1.44","1708","","","","-29","","","","","","","","sizeS.png","998","-29",""
"html-keyboard-response","503","18613922","0.0-46.44-2.44","null","","","","","","","null","","","","","","","",""
"image-selector-fb","504","18616929","0.0-46.45-0.45","null","pics2/FR3.jpg,pics2/SA4.jpg","","","","","","","false","null","","","noS.png","","",""
"image-slider-2AFC","505","18619476","0.0-46.45-1.45","2543","","","","67","","","","","","","","sizeS.png","1600","67",""
"html-keyboard-response","506","18620182","0.0-46.45-2.45","null","","","","","","","null","","","","","","","",""
"image-selector-fb","507","18621765","0.0-46.46-0.46","1074","pics2/FR3.jpg,pics2/SW3.jpg","","","","","","","true","1","","","heartS.png","","",""
"image-slider-2AFC","508","18624083","0.0-46.46-1.46","2315","","","","58","","","","","","","","sizeS.png","1273","58",""
"html-keyboard-response","509","18624837","0.0-46.46-2.46","null","","","","","","","null","","","","","","","",""
"image-selector-fb","510","18627845","0.0-46.47-0.47","null","pics2/FR6.jpg,pics2/FR2.jpg","","","","","","","false","null","","","noS.png","","",""
"image-slider-2AFC","511","18630643","0.0-46.47-1.47","2794","","","","63","","","","","","","","heartS.png","1925","63",""
"html-keyboard-response","512","18631346","0.0-46.47-2.47","null","","","","","","","null","","","","","","","",""
"image-selector-fb","513","18634248","0.0-46.48-0.48","2395","pics2/FR6.jpg,pics2/SW5.jpg","","","","","","","false","0","","","heartS.png","","",""
"image-slider-2AFC","514","18636475","0.0-46.48-1.48","2223","","","","-40","","","","","","","","sizeS.png","1522","-40",""
"html-keyboard-response","515","18637278","0.0-46.48-2.48","null","","","","","","","null","","","","","","","",""
"image-selector-fb","516","18640286","0.0-46.49-0.49","null","pics2/FR3.jpg,pics2/SW1.jpg","","","","","","","false","null","","","noS.png","","",""
"image-slider-2AFC","517","18642932","0.0-46.49-1.49","2644","","","","75","","","","","","","","sizeS.png","1875","75",""
"html-keyboard-response","518","18643640","0.0-46.49-2.49","null","","","","","","","null","","","","","","","",""
"image-selector-fb","519","18645333","0.0-46.50-0.50","1185","pics2/SW6.jpg,pics2/SW3.jpg","","","","","","","true","1","","","heartS.png","","",""
"image-slider-2AFC","520","18648799","0.0-46.50-1.50","3463","","","","46","","","","","","","","heartS.png","2777","46",""
"html-keyboard-response","521","18649653","0.0-46.50-2.50","null","","","","","","","null","","","","","","","",""
"image-selector-fb","522","18652379","0.0-46.51-0.51","2220","pics2/FR3.jpg,pics2/FR2.jpg","","","","","","","true","1","","","heartS.png","","",""
"image-slider-2AFC","523","18654940","0.0-46.51-1.51","2557","","","","60","","","","","","","","sizeS.png","1848","60",""
"html-keyboard-response","524","18655693","0.0-46.51-2.51","null","","","","","","","null","","","","","","","",""
"image-selector-fb","525","18657229","0.0-46.52-0.52","1029","pics2/SW2.jpg,pics2/FR4.jpg","","","","","","","true","1","","","heartS.png","","",""
"image-slider-2AFC","526","18659131","0.0-46.52-1.52","1899","","","","-42","","","","","","","","sizeS.png","1331","-42",""
"html-keyboard-response","527","18659935","0.0-46.52-2.52","null","","","","","","","null","","","","","","","",""
"image-selector-fb","528","18662295","0.0-46.53-0.53","1854","pics2/SW5.jpg,pics2/SW1.jpg","","","","","","","true","1","","","sizeS.png","","",""
"image-slider-2AFC","529","18664406","0.0-46.53-1.53","2107","","","","65","","","","","","","","sizeS.png","1456","65",""
"html-keyboard-response","530","18665159","0.0-46.53-2.53","null","","","","","","","null","","","","","","","",""
"image-selector-fb","531","18666903","0.0-46.54-0.54","1237","pics2/SW3.jpg,pics2/SW4.jpg","","","","","","","false","0","","","sizeS.png","","",""
"image-slider-2AFC","532","18668523","0.0-46.54-1.54","1616","","","","-33","","","","","","","","sizeS.png","872","-33",""
"html-keyboard-response","533","18669326","0.0-46.54-2.54","null","","","","","","","null","","","","","","","",""
"image-selector-fb","534","18671356","0.0-46.55-0.55","1521","pics2/FR1.jpg,pics2/SW4.jpg","","","","","","","false","0","","","heartS.png","","",""
"image-slider-2AFC","535","18674514","0.0-46.55-1.55","3154","","","","-53","","","","","","","","sizeS.png","1043","-53",""
"html-keyboard-response","536","18675218","0.0-46.55-2.55","null","","","","","","","null","","","","","","","",""
"image-selector-fb","537","18676911","0.0-46.56-0.56","1185","pics2/SW3.jpg,pics2/SW2.jpg","","","","","","","false","0","","","sizeS.png","","",""
"image-slider-2AFC","538","18679504","0.0-46.56-1.56","2591","","","","-33","","","","","","","","heartS.png","2066","-33",""
"html-keyboard-response","539","18680256","0.0-46.56-2.56","null","","","","","","","null","","","","","","","",""
"image-selector-fb","540","18683265","0.0-46.57-0.57","null","pics2/FR3.jpg,pics2/FR2.jpg","","","","","","","false","null","","","noS.png","","",""
"image-slider-2AFC","541","18685422","0.0-46.57-1.57","2154","","","","-29","","","","","","","","heartS.png","1528","-29",""
"html-keyboard-response","542","18686276","0.0-46.57-2.57","null","","","","","","","null","","","","","","","",""
"image-selector-fb","543","18689594","0.0-46.58-0.58","2810","pics2/SW6.jpg,pics2/FR2.jpg","","","","","","","true","1","","","heartS.png","","",""
"image-slider-2AFC","544","18691737","0.0-46.58-1.58","2141","","","","57","","","","","","","","heartS.png","1331","57",""
"html-keyboard-response","545","18692491","0.0-46.58-2.58","null","","","","","","","null","","","","","","","",""
"image-selector-fb","546","18695499","0.0-46.59-0.59","null","pics2/FR1.jpg,pics2/SW6.jpg","","","","","","","false","null","","","noS.png","","",""
"image-slider-2AFC","547","18697605","0.0-46.59-1.59","2103","","","","-41","","","","","","","","heartS.png","1300","-41",""
"html-keyboard-response","548","18698459","0.0-46.59-2.59","null","","","","","","","null","","","","","","","",""
"image-selector-fb","549","18700001","0.0-46.60-0.60","1036","pics2/SW2.jpg,pics2/FR3.jpg","","","","","","","true","1","","","heartS.png","","",""
"image-slider-2AFC","550","18701586","0.0-46.60-1.60","1582","","","","62","","","","","","","","heartS.png","880","62",""
"html-keyboard-response","551","18702290","0.0-46.60-2.60","null","","","","","","","null","","","","","","","",""
"image-selector-fb","552","18706421","0.0-46.61-0.61","3621","pics2/FR2.jpg,pics2/SW6.jpg","","","","","","","false","0","","","sizeS.png","","",""
"image-slider-2AFC","553","18708603","0.0-46.61-1.61","2177","","","","-39","","","","","","","","heartS.png","1410","-39",""
"html-keyboard-response","554","18709407","0.0-46.61-2.61","null","","","","","","","null","","","","","","","",""
"image-selector-fb","555","18710895","0.0-46.62-0.62","979","pics2/SW3.jpg,pics2/SW5.jpg","","","","","","","false","0","","","heartS.png","","",""
"image-slider-2AFC","556","18712286","0.0-46.62-1.62","1388","","","","-50","","","","","","","","sizeS.png","746","-50",""
"html-keyboard-response","557","18712989","0.0-46.62-2.62","null","","","","","","","null","","","","","","","",""
"image-selector-fb","558","18714626","0.0-46.63-0.63","1130","pics2/SW5.jpg,pics2/FR3.jpg","","","","","","","true","1","","","sizeS.png","","",""
"image-slider-2AFC","559","18717627","0.0-46.63-1.63","2999","","","","42","","","","","","","","sizeS.png","1633,2106","59,42",""
"html-keyboard-response","560","18718481","0.0-46.63-2.63","null","","","","","","","null","","","","","","","",""
"image-selector-fb","561","18720150","0.0-46.64-0.64","1162","pics2/FR1.jpg,pics2/FR4.jpg","","","","","","","false","0","","","heartS.png","","",""
"image-slider-2AFC","562","18722275","0.0-46.64-1.64","2123","","","","-40","","","","","","","","sizeS.png","1015","-40",""
"html-keyboard-response","563","18723029","0.0-46.64-2.64","null","","","","","","","null","","","","","","","",""
"image-selector-fb","564","18726037","0.0-46.65-0.65","null","pics2/FR6.jpg,pics2/SA4.jpg","","","","","","","false","null","","","noS.png","","",""
"image-slider-2AFC","565","18728960","0.0-46.65-1.65","2921","","","","58","","","","","","","","sizeS.png","2119","58",""
"html-keyboard-response","566","18729814","0.0-46.65-2.65","null","","","","","","","null","","","","","","","",""
"pavlovia","567","18729846","0.0-47.0","","","","","","","","","","","","","","","",""
"html-keyboard-response","568","18734849","0.0-48.0","null","<div style='width: 700px;'> <font size=6><b>SHORT BREAK</font></b><br><br><i> Please wait 5 seconds to continue</i></div> ","","","","","","null","","","","","","","",""
"pavlovia","569","18734860","0.0-49.0","","","","","","","","","","","","","","","",""
"html-button-response","570","18740324","0.0-50.0","5462","<div style='width: 700px;'> <font size=6><b>BLOCK 3</font></b><br><br>Press the button whenever you feel ready to start the third and final block</div>","0","","","","","","","","","","","","",""
"image-selector-fb","571","18743331","0.0-51.0-0.0","null","pics2/FR6.jpg,pics2/SW4.jpg","","","","","","","false","null","","","noS.png","","",""
"image-slider-2AFC","572","18745667","0.0-51.0-1.0","2332","","","","-27","","","","","","","","heartS.png","1523","-27",""
"html-keyboard-response","573","18746421","0.0-51.0-2.0","null","","","","","","","null","","","","","","","",""
"image-selector-fb","574","18748998","0.0-51.1-0.1","2069","pics2/FR2.jpg,pics2/FR3.jpg","","","","","","","false","0","","","sizeS.png","","",""
"image-slider-2AFC","575","18752426","0.0-51.1-1.1","3424","","","","-16","","","","","","","","sizeS.png","2555","-16",""
"html-keyboard-response","576","18753128","0.0-51.1-2.1","null","","","","","","","null","","","","","","","",""
"image-selector-fb","577","18755706","0.0-51.2-0.2","2071","pics2/SA4.jpg,pics2/FR4.jpg","","","","","","","true","1","","","heartS.png","","",""
"image-slider-2AFC","578","18758484","0.0-51.2-1.2","2770","","","","34","","","","","","","","heartS.png","2025","34",""
"html-keyboard-response","579","18759188","0.0-51.2-2.2","null","","","","","","","null","","","","","","","",""
"image-selector-fb","580","18762198","0.0-51.3-0.3","null","pics2/SW3.jpg,pics2/SW6.jpg","","","","","","","false","null","","","noS.png","","",""
"image-slider-2AFC","581","18764382","0.0-51.3-1.3","2181","","","","-44","","","","","","","","sizeS.png","1438","-44",""
"html-keyboard-response","582","18765236","0.0-51.3-2.3","null","","","","","","","null","","","","","","","",""
"image-selector-fb","583","18767430","0.0-51.4-0.4","1687","pics2/FR4.jpg,pics2/SW5.jpg","","","","","","","false","0","","","heartS.png","","",""
"image-slider-2AFC","584","18770556","0.0-51.4-1.4","3124","","","","-46","","","","","","","","heartS.png","1498","-46",""
"html-keyboard-response","585","18771310","0.0-51.4-2.4","null","","","","","","","null","","","","","","","",""
"image-selector-fb","586","18773255","0.0-51.5-0.5","1438","pics2/SW3.jpg,pics2/FR1.jpg","","","","","","","false","0","","","sizeS.png","","",""
"image-slider-2AFC","587","18775274","0.0-51.5-1.5","2015","","","","-45","","","","","","","","heartS.png","1280","-45",""
"html-keyboard-response","588","18776077","0.0-51.5-2.5","null","","","","","","","null","","","","","","","",""
"image-selector-fb","589","18779085","0.0-51.6-0.6","null","pics2/FR6.jpg,pics2/SW5.jpg","","","","","","","false","null","","","noS.png","","",""
"image-slider-2AFC","590","18782365","0.0-51.6-1.6","3277","","","","30","","","","","","","","heartS.png","2183,2851","57,30",""
"html-keyboard-response","591","18783218","0.0-51.6-2.6","null","","","","","","","null","","","","","","","",""
"image-selector-fb","592","18784945","0.0-51.7-0.7","1220","pics2/SW4.jpg,pics2/FR2.jpg","","","","","","","true","1","","","heartS.png","","",""
"image-slider-2AFC","593","18786272","0.0-51.7-1.7","1325","","","","45","","","","","","","","heartS.png","590","45",""
"html-keyboard-response","594","18787076","0.0-51.7-2.7","null","","","","","","","null","","","","","","","",""
"image-selector-fb","595","18788828","0.0-51.8-0.8","1246","pics2/SW2.jpg,pics2/SW1.jpg","","","","","","","true","1","","","sizeS.png","","",""
"image-slider-2AFC","596","18791248","0.0-51.8-1.8","2416","","","","-16","","","","","","","","heartS.png","1956","-16",""
"html-keyboard-response","597","18792054","0.0-51.8-2.8","null","","","","","","","null","","","","","","","",""
"image-selector-fb","598","18794304","0.0-51.9-0.9","1741","pics2/FR1.jpg,pics2/FR6.jpg","","","","","","","false","0","","","heartS.png","","",""
"image-slider-2AFC","599","18796447","0.0-51.9-1.9","2139","","","","-49","","","","","","","","sizeS.png","1465","-49",""
"html-keyboard-response","600","18797251","0.0-51.9-2.9","null","","","","","","","null","","","","","","","",""
"image-selector-fb","601","18799169","0.0-51.10-0.10","1412","pics2/SW5.jpg,pics2/FR6.jpg","","","","","","","false","0","","","sizeS.png","","",""
"image-slider-2AFC","602","18801098","0.0-51.10-1.10","1925","","","","29","","","","","","","","heartS.png","1464","29",""
"html-keyboard-response","603","18801901","0.0-51.10-2.10","null","","","","","","","null","","","","","","","",""
"image-selector-fb","604","18804069","0.0-51.11-0.11","1661","pics2/FR1.jpg,pics2/FR3.jpg","","","","","","","true","1","","","heartS.png","","",""
"image-slider-2AFC","605","18806187","0.0-51.11-1.11","2115","","","","23","","","","","","","","heartS.png","1605","23",""
"html-keyboard-response","606","18806991","0.0-51.11-2.11","null","","","","","","","null","","","","","","","",""
"image-selector-fb","607","18808694","0.0-51.12-0.12","1196","pics2/FR3.jpg,pics2/FR4.jpg","","","","","","","true","1","","","heartS.png","","",""
"image-slider-2AFC","608","18812263","0.0-51.12-1.12","3566","","","","23","","","","","","","","heartS.png","1673,2997","49,23",""
"html-keyboard-response","609","18813116","0.0-51.12-2.12","null","","","","","","","null","","","","","","","",""
"image-selector-fb","610","18816002","0.0-51.13-0.13","2379","pics2/SW5.jpg,pics2/FR2.jpg","","","","","","","true","1","","","sizeS.png","","",""
"image-slider-2AFC","611","18819654","0.0-51.13-1.13","3649","","","","41","","","","","","","","sizeS.png","1397","41",""
"html-keyboard-response","612","18820407","0.0-51.13-2.13","null","","","","","","","null","","","","","","","",""
"image-selector-fb","613","18823419","0.0-51.14-0.14","null","pics2/FR4.jpg,pics2/SW1.jpg","","","","","","","false","null","","","noS.png","","",""
"image-slider-2AFC","614","18826545","0.0-51.14-1.14","3121","","","","-19","","","","","","","","heartS.png","2704","-19",""
"html-keyboard-response","615","18827299","0.0-51.14-2.14","null","","","","","","","null","","","","","","","",""
"image-selector-fb","616","18829135","0.0-51.15-0.15","1327","pics2/SW5.jpg,pics2/FR1.jpg","","","","","","","true","1","","","sizeS.png","","",""
"image-slider-2AFC","617","18831141","0.0-51.15-1.15","2003","","","","60","","","","","","","","sizeS.png","1268","60",""
"html-keyboard-response","618","18831944","0.0-51.15-2.15","null","","","","","","","null","","","","","","","",""
"image-selector-fb","619","18833872","0.0-51.16-0.16","1422","pics2/SW2.jpg,pics2/SW6.jpg","","","","","","","false","0","","","sizeS.png","","",""
"image-slider-2AFC","620","18835898","0.0-51.16-1.16","2024","","","","-25","","","","","","","","sizeS.png","1572","-25",""
"html-keyboard-response","621","18836702","0.0-51.16-2.16","null","","","","","","","null","","","","","","","",""
"image-selector-fb","622","18839596","0.0-51.17-0.17","2387","pics2/SW2.jpg,pics2/FR1.jpg","","","","","","","true","1","","","sizeS.png","","",""
"image-slider-2AFC","623","18841813","0.0-51.17-1.17","2215","","","","45","","","","","","","","heartS.png","1397","45",""
"html-keyboard-response","624","18842566","0.0-51.17-2.17","null","","","","","","","null","","","","","","","",""
"image-selector-fb","625","18844482","0.0-51.18-0.18","1411","pics2/SW1.jpg,pics2/SW6.jpg","","","","","","","false","0","","","sizeS.png","","",""
"image-slider-2AFC","626","18847207","0.0-51.18-1.18","2721","","","","19","","","","","","","","heartS.png","2285","19",""
"html-keyboard-response","627","18848010","0.0-51.18-2.18","null","","","","","","","null","","","","","","","",""
"image-selector-fb","628","18851019","0.0-51.19-0.19","null","pics2/FR4.jpg,pics2/SW2.jpg","","","","","","","false","null","","","noS.png","","",""
"image-slider-2AFC","629","18854571","0.0-51.19-1.19","3550","","","","35","","","","","","","","sizeS.png","3115","35",""
"html-keyboard-response","630","18855329","0.0-51.19-2.19","null","","","","","","","null","","","","","","","",""
"image-selector-fb","631","18858338","0.0-51.20-0.20","null","pics2/FR6.jpg,pics2/SW2.jpg","","","","","","","false","null","","","noS.png","","",""
"image-slider-2AFC","632","18860687","0.0-51.20-1.20","2345","","","","-7","","","","","","","","heartS.png","1861","-7",""
"html-keyboard-response","633","18861391","0.0-51.20-2.20","null","","","","","","","null","","","","","","","",""
"image-selector-fb","634","18863409","0.0-51.21-0.21","1512","pics2/FR2.jpg,pics2/SW5.jpg","","","","","","","true","1","","","heartS.png","","",""
"image-slider-2AFC","635","18865461","0.0-51.21-1.21","2050","","","","38","","","","","","","","heartS.png","974","38",""
"html-keyboard-response","636","18866215","0.0-51.21-2.21","null","","","","","","","null","","","","","","","",""
"image-selector-fb","637","18869223","0.0-51.22-0.22","null","pics2/SW5.jpg,pics2/SA4.jpg","","","","","","","false","null","","","noS.png","","",""
"image-slider-2AFC","638","18871253","0.0-51.22-1.22","2028","","","","61","","","","","","","","sizeS.png","1360","61",""
"html-keyboard-response","639","18871957","0.0-51.22-2.22","null","","","","","","","null","","","","","","","",""
"image-selector-fb","640","18874468","0.0-51.23-0.23","2004","pics2/SW3.jpg,pics2/FR2.jpg","","","","","","","false","0","","","heartS.png","","",""
"image-slider-2AFC","641","18877027","0.0-51.23-1.23","2557","","","","9","","","","","","","","heartS.png","1431,2115","-29,9",""
"html-keyboard-response","642","18877831","0.0-51.23-2.23","null","","","","","","","null","","","","","","","",""
"image-selector-fb","643","18880838","0.0-51.24-0.24","null","pics2/SW1.jpg,pics2/SW6.jpg","","","","","","","false","null","","","noS.png","","",""
"image-slider-2AFC","644","18882910","0.0-51.24-1.24","2068","","","","-7","","","","","","","","heartS.png","1692","-7",""
"html-keyboard-response","645","18883663","0.0-51.24-2.24","null","","","","","","","null","","","","","","","",""
"image-selector-fb","646","18885299","0.0-51.25-0.25","1129","pics2/SW3.jpg,pics2/SA4.jpg","","","","","","","true","1","","","sizeS.png","","",""
"image-slider-2AFC","647","18888218","0.0-51.25-1.25","2915","","","","20","","","","","","","","sizeS.png","1856","20",""
"html-keyboard-response","648","18888971","0.0-51.25-2.25","null","","","","","","","null","","","","","","","",""
"image-selector-fb","649","18891979","0.0-51.26-0.26","null","pics2/SW4.jpg,pics2/SW2.jpg","","","","","","","false","null","","","noS.png","","",""
"image-slider-2AFC","650","18895359","0.0-51.26-1.26","3372","","","","35","","","","","","","","sizeS.png","2946","35",""
"html-keyboard-response","651","18896213","0.0-51.26-2.26","null","","","","","","","null","","","","","","","",""
"image-selector-fb","652","18898040","0.0-51.27-0.27","1318","pics2/SW6.jpg,pics2/FR4.jpg","","","","","","","true","1","","","heartS.png","","",""
"image-slider-2AFC","653","18900433","0.0-51.27-1.27","2389","","","","-20","","","","","","","","sizeS.png","1580","-20",""
"html-keyboard-response","654","18901186","0.0-51.27-2.27","null","","","","","","","null","","","","","","","",""
"image-selector-fb","655","18904323","0.0-51.28-0.28","2630","pics2/FR6.jpg,pics2/SW6.jpg","","","","","","","false","0","","","sizeS.png","","",""
"image-slider-2AFC","656","18905741","0.0-51.28-1.28","1415","","","","-11","","","","","","","","sizeS.png","1013","-11",""
"html-keyboard-response","657","18906494","0.0-51.28-2.28","null","","","","","","","null","","","","","","","",""
"image-selector-fb","658","18907980","0.0-51.29-0.29","980","pics2/SW6.jpg,pics2/SW1.jpg","","","","","","","true","1","","","heartS.png","","",""
"image-slider-2AFC","659","18909492","0.0-51.29-1.29","1509","","","","53","","","","","","","","heartS.png","739","53",""
"html-keyboard-response","660","18910196","0.0-51.29-2.29","null","","","","","","","null","","","","","","","",""
"image-selector-fb","661","18911870","0.0-51.30-0.30","1169","pics2/FR6.jpg,pics2/SW2.jpg","","","","","","","false","0","","","sizeS.png","","",""
"image-slider-2AFC","662","18913582","0.0-51.30-1.30","1709","","","","-31","","","","","","","","heartS.png","1115","-31",""
"html-keyboard-response","663","18914335","0.0-51.30-2.30","null","","","","","","","null","","","","","","","",""
"image-selector-fb","664","18916605","0.0-51.31-0.31","1763","pics2/SW1.jpg,pics2/FR3.jpg","","","","","","","true","1","","","heartS.png","","",""
"image-slider-2AFC","665","18918932","0.0-51.31-1.31","2323","","","","-44","","","","","","","","sizeS.png","1714","-44",""
"html-keyboard-response","666","18919734","0.0-51.31-2.31","null","","","","","","","null","","","","","","","",""
"image-selector-fb","667","18923262","0.0-51.32-0.32","3021","pics2/SW1.jpg,pics2/FR6.jpg","","","","","","","true","1","","","heartS.png","","",""
"image-slider-2AFC","668","18927363","0.0-51.32-1.32","4098","","","","37","","","","","","","","heartS.png","2014,3598","-31,37",""
"html-keyboard-response","669","18928117","0.0-51.32-2.32","null","","","","","","","null","","","","","","","",""
"image-selector-fb","670","18930119","0.0-51.33-0.33","1495","pics2/FR6.jpg,pics2/FR1.jpg","","","","","","","true","1","","","sizeS.png","","",""
"image-slider-2AFC","671","18932447","0.0-51.33-1.33","2323","","","","35","","","","","","","","heartS.png","1187","35",""
"html-keyboard-response","672","18933251","0.0-51.33-2.33","null","","","","","","","null","","","","","","","",""
"image-selector-fb","673","18935127","0.0-51.34-0.34","1368","pics2/SW4.jpg,pics2/FR1.jpg","","","","","","","true","1","","","sizeS.png","","",""
"image-slider-2AFC","674","18937554","0.0-51.34-1.34","2424","","","","10","","","","","","","","heartS.png","689,1964","44,10",""
"html-keyboard-response","675","18938258","0.0-51.34-2.34","null","","","","","","","null","","","","","","","",""
"image-selector-fb","676","18941265","0.0-51.35-0.35","null","pics2/FR3.jpg,pics2/FR1.jpg","","","","","","","false","null","","","noS.png","","",""
"image-slider-2AFC","677","18944287","0.0-51.35-1.35","3018","","","","-25","","","","","","","","heartS.png","2533","-25",""
"html-keyboard-response","678","18945140","0.0-51.35-2.35","null","","","","","","","null","","","","","","","",""
"image-selector-fb","679","18947085","0.0-51.36-0.36","1437","pics2/FR1.jpg,pics2/SW6.jpg","","","","","","","false","0","","","heartS.png","","",""
"image-slider-2AFC","680","18950112","0.0-51.36-1.36","3024","","","","-20","","","","","","","","sizeS.png","1298","-20",""
"html-keyboard-response","681","18950865","0.0-51.36-2.36","null","","","","","","","null","","","","","","","",""
"image-selector-fb","682","18954559","0.0-51.37-0.37","3188","pics2/SW4.jpg,pics2/SW2.jpg","","","","","","","true","1","","","sizeS.png","","",""
"image-slider-2AFC","683","18957244","0.0-51.37-1.37","2681","","","","-5","","","","","","","","heartS.png","2280","-5",""
"html-keyboard-response","684","18957947","0.0-51.37-2.37","null","","","","","","","null","","","","","","","",""
"image-selector-fb","685","18960955","0.0-51.38-0.38","null","pics2/SW5.jpg,pics2/SW6.jpg","","","","","","","false","null","","","noS.png","","",""
"image-slider-2AFC","686","18963727","0.0-51.38-1.38","2770","","","","22","","","","","","","","sizeS.png","2235","22",""
"html-keyboard-response","687","18964531","0.0-51.38-2.38","null","","","","","","","null","","","","","","","",""
"image-selector-fb","688","18966095","0.0-51.39-0.39","1053","pics2/SW4.jpg,pics2/FR4.jpg","","","","","","","true","1","","","heartS.png","","",""
"image-slider-2AFC","689","18968069","0.0-51.39-1.39","1971","","","","33","","","","","","","","sizeS.png","1210","33",""
"html-keyboard-response","690","18968873","0.0-51.39-2.39","null","","","","","","","null","","","","","","","",""
"image-selector-fb","691","18970507","0.0-51.40-0.40","1127","pics2/SW4.jpg,pics2/FR3.jpg","","","","","","","true","1","","","heartS.png","","",""
"image-slider-2AFC","692","18972385","0.0-51.40-1.40","1874","","","","39","","","","","","","","heartS.png","1354","39",""
"html-keyboard-response","693","18973188","0.0-51.40-2.40","null","","","","","","","null","","","","","","","",""
"image-selector-fb","694","18975023","0.0-51.41-0.41","1328","pics2/FR3.jpg,pics2/SW4.jpg","","","","","","","false","0","","","sizeS.png","","",""
"image-slider-2AFC","695","18977384","0.0-51.41-1.41","2357","","","","-19","","","","","","","","heartS.png","1472","-19",""
"html-keyboard-response","696","18978137","0.0-51.41-2.41","null","","","","","","","null","","","","","","","",""
"image-selector-fb","697","18980466","0.0-51.42-0.42","1821","pics2/FR4.jpg,pics2/SW4.jpg","","","","","","","false","0","","","sizeS.png","","",""
"image-slider-2AFC","698","18985469","0.0-51.42-1.42","null","","","","null","","","","","","","","heartS.png","4978","-17",""
"html-keyboard-response","699","18986272","0.0-51.42-2.42","null","","","","","","","null","","","","","","","",""
"image-selector-fb","700","18988538","0.0-51.43-0.43","1759","pics2/SW1.jpg,pics2/FR1.jpg","","","","","","","false","0","","","sizeS.png","","",""
"image-slider-2AFC","701","18990149","0.0-51.43-1.43","1607","","","","-22","","","","","","","","sizeS.png","998","-22",""
"html-keyboard-response","702","18990902","0.0-51.43-2.43","null","","","","","","","null","","","","","","","",""
"image-selector-fb","703","18993910","0.0-51.44-0.44","null","pics2/SW3.jpg,pics2/SW1.jpg","","","","","","","false","null","","","noS.png","","",""
"image-slider-2AFC","704","18995832","0.0-51.44-1.44","1919","","","","-32","","","","","","","","sizeS.png","1193","-32",""
"html-keyboard-response","705","18996585","0.0-51.44-2.44","null","","","","","","","null","","","","","","","",""
"image-selector-fb","706","19000771","0.0-51.45-0.45","3679","pics2/SW1.jpg,pics2/SW4.jpg","","","","","","","false","0","","","heartS.png","","",""
