"trial_type","trial_index","time_elapsed","internal_node_id","rt","stimulus","button_pressed","success","response","cat","value","key_press","correct","image_click","first_click_rt","first_click_val","symbol","all_click_rt","all_click_val","view_history"
"pavlovia","0","6","0.0-0.0","","","","","","","","","","","","","","","",""
"html-button-response","1","3017","0.0-1.0","3008","<div style='width: 700px; font-size: 150%'><font size='40'>  Welcome to our study!</font><br><br><br> <small> Our experiment is about <i>decision making</i>. You will choose and rate different food items, such as these: <br><br> <div><img src='food_combo2.png', height = '400px'></img></div>","0","","","","","","","","","","","","",""
"html-button-response","2","10101","0.0-2.0","7082","<div style='width: 700px; font-size: 150%'><br><br><br><small> <u><i>This is a multi-part study.</i></u><br><br> In the first part you will rate 24 food items twice.<br><br><div><img src=""rat1.png"" style=""width: 25%""></img></div><br>In the second part (longest) you will make repeated choices and judgements concerning the food items.<br><br><div><img src=""mainx.png"" style=""width: 50%""></img></div><br>In the third and final part, you will rate the items again and answer few short questionnaires.<br><br><div><img src=""rat2.png"" style=""width: 50%""></img></div><br><br>","0","","","","","","","","","","","","",""
"fullscreen","3","13059","0.0-3.0","","","","true","","","","","","","","","","","",""
"html-button-response","4","14579","0.0-4.0","1517","<div style='width: 900px; font-size: 150%;' <font size='20%'> In the first part of the task you will use the mouse to rate food items on <i>2 scales</i> </font></div><br><br><div style='width: 900px'><div style='float: left; width: 50%; margin-right:2.5em'><img src='heartS.png'></img><p class='small' style='text-align: justify'>When you see the heart cue you will rate food items in terms of how much like them/would like to eat them <i>right now</i>. You will rate them on a continuous scale from left (strong dislike) to right (strong liking). Before submitting your rating, try imagining how the item tastes and how much you desire it.<br><br></p></div><div ><img src='sizeS.png'></img><p class='small' style='text-align: justify'>When you see the size cue, you will rate the same food items in terms of their size. The scale goes from left (tiny) to right (very large). You should assess picture size <i><u>relative</i></u> to the white background. <b>Remember:</b> rate the size of the picture, <u>not</u> the size of the item in real life. </p></div><div style='width: 900px'><br><br><b><i>Notice:</b> by starting the rating you agree that your sumbission might be rejected at an early stage and the experiment might end, if your size ratings are not at least modestly related to objective sizes, or if you repeat the same value ratings too many times. If you don't agree, please exit by closing the browser window. </i><br><br><br>","0","","","","","","","","","","","","",""
"html-button-response","5","16067","0.0-5.0","1486","<div><img src='heartS.png'></img></div><br><div style='text-align: justify; width: 700px'>Using the mouse, rate the <b><i>likeness</b></i> of the food items (how much you like them/would like to eat them <i>right now</i>). Far right-end of the scale indicates an item you <i>like a lot</i>. Far left-end indicates an item you <i>dislike a lot</i>. Think about each answer.   <ul><li>Try <b><i>not</b></i> to give identical rating to different items.</li><li>Use the whole scale, and <b><i>not</b></i> just the extremes</ul></div><br>","0","","","","","","","","","","","","",""
"image-slider-response","6","20124","0.0-6.0-0.0-0.0","4054","pics2/VE6.jpg","","","22","VE","","","","","","","","","",""
"image-slider-response","7","23188","0.0-6.0-0.0-0.1","2847","pics2/SW4.jpg","","","94","SW","","","","","","","","","",""
"image-slider-response","8","25926","0.0-6.0-0.0-0.2","2521","pics2/SA5.jpg","","","69","SA","","","","","","","","","",""
"image-slider-response","9","29804","0.0-6.0-0.0-0.3","3673","pics2/SA3.jpg","","","60","SA","","","","","","","","","",""
"image-slider-response","10","32291","0.0-6.0-0.0-0.4","2283","pics2/SW1.jpg","","","76","SW","","","","","","","","","",""
"image-slider-response","11","34785","0.0-6.0-0.0-0.5","2271","pics2/VE3.jpg","","","36","VE","","","","","","","","","",""
"image-slider-response","12","38659","0.0-6.0-0.0-0.6","3668","pics2/FR1.jpg","","","81","FR","","","","","","","","","",""
"image-slider-response","13","42324","0.0-6.0-0.0-0.7","3457","pics2/VE2.jpg","","","32","VE","","","","","","","","","",""
"image-slider-response","14","44967","0.0-6.0-0.0-0.8","2428","pics2/SA4.jpg","","","70","SA","","","","","","","","","",""
"image-slider-response","15","49050","0.0-6.0-0.0-0.9","3874","pics2/FR3.jpg","","","63","FR","","","","","","","","","",""
"image-slider-response","16","51538","0.0-6.0-0.0-0.10","2272","pics2/FR2.jpg","","","81","FR","","","","","","","","","",""
"image-slider-response","17","54313","0.0-6.0-0.0-0.11","2571","pics2/SA2.jpg","","","80","SA","","","","","","","","","",""
"image-slider-response","18","56622","0.0-6.0-0.0-0.12","2103","pics2/SW3.jpg","","","67","SW","","","","","","","","","",""
"image-slider-response","19","59525","0.0-6.0-0.0-0.13","2686","pics2/SW2.jpg","","","30","SW","","","","","","","","","",""
"image-slider-response","20","62528","0.0-6.0-0.0-0.14","2797","pics2/FR4.jpg","","","92","FR","","","","","","","","","",""
"image-slider-response","21","65864","0.0-6.0-0.0-0.15","3120","pics2/VE4.jpg","","","36","VE","","","","","","","","","",""
"image-slider-response","22","69281","0.0-6.0-0.0-0.16","3212","pics2/FR5.jpg","","","79","FR","","","","","","","","","",""
"image-slider-response","23","72225","0.0-6.0-0.0-0.17","2728","pics2/SA6.jpg","","","58","SA","","","","","","","","","",""
"image-slider-response","24","76287","0.0-6.0-0.0-0.18","3857","pics2/VE5.jpg","","","58","VE","","","","","","","","","",""
"image-slider-response","25","79002","0.0-6.0-0.0-0.19","2492","pics2/SW5.jpg","","","66","SW","","","","","","","","","",""
"image-slider-response","26","83251","0.0-6.0-0.0-0.20","4044","pics2/FR6.jpg","","","85","FR","","","","","","","","","",""
"image-slider-response","27","85924","0.0-6.0-0.0-0.21","2467","pics2/SA1.jpg","","","77","SA","","","","","","","","","",""
"image-slider-response","28","88446","0.0-6.0-0.0-0.22","2320","pics2/VE1.jpg","","","34","VE","","","","","","","","","",""
"image-slider-response","29","92589","0.0-6.0-0.0-0.23","3926","pics2/SW6.jpg","","","24","SW","","","","","","","","","",""
"html-button-response","30","94066","0.0-7.0","1271","<div style='width: 900px;'> <font size = 6><b> End of the first rating</b><br><br>","0","","","","","","","","","","","","",""
"html-button-response","31","95656","0.0-9.0","1589","<div ><img src='sizeS.png'></img></div><br><div style='text-align: justify; width: 700px'> Using the mouse, rate the <b><i>size</b></i> of the food items <b><i> relative to the white background.</b></i> Right-end of the scale indicates a <i>very large item</i>, which covers a large portion of the white rectangle. Left-end indicates a <i>very tiny</i> item which covers a tiny portion of the white rectangle.<br><br><i><u>Remember</i></u>: everything that is not the white background also contributes to item size (e.g. packing, plates, ect.)<br><br> Please keep in mind that if the accuracy of ratings do not allign well with actual sizes, the experiment will end.  As a result it will be consider incomplete and therefore no payment would be made. Good luck!<br><br></div><br>","0","","","","","","","","","","","","",""
"html-button-response","32","97537","0.0-10.0","1880","<div ><img src='sizeS.png'></img></div><br><b><font size=6>Examples of items that you might encounter</b><br><div style='width: 750px;'><div style='width: 33.33%; float:left'><br><br><br><i>Large Item</i><br><br><img src='large.jpg', width=200px></img></div><div style='float:right'><br><br><br><i>Small Item</i><br><br><img src='small.jpg', width=200px></img></div><div ><br><br><br><i>Medium Item</i><br><br><img src='med.jpg', width=200px></img></div></div><br><br>","0","","","","","","","","","","","","",""
"image-slider-response","33","100180","0.0-11.0-0.0-0.0","2640","pics2/SW2.jpg","","","81","null","","","","","","","","","",""
"image-slider-response","34","102699","0.0-11.0-0.0-0.1","2314","pics2/VE6.jpg","","","50","null","","","","","","","","","",""
"image-slider-response","35","105131","0.0-11.0-0.0-0.2","2222","pics2/FR3.jpg","","","73","null","","","","","","","","","",""
"image-slider-response","36","107550","0.0-11.0-0.0-0.3","2216","pics2/SW3.jpg","","","65","null","","","","","","","","","",""
"image-slider-response","37","110489","0.0-11.0-0.0-0.4","2730","pics2/VE3.jpg","","","65","null","","","","","","","","","",""
"image-slider-response","38","115295","0.0-11.0-0.0-0.5","4600","pics2/VE2.jpg","","","68","null","","","","","","","","","",""
"image-slider-response","39","117588","0.0-11.0-0.0-0.6","2077","pics2/SW6.jpg","","","31","null","","","","","","","","","",""
"image-slider-response","40","120474","0.0-11.0-0.0-0.7","2663","pics2/VE4.jpg","","","48","null","","","","","","","","","",""
"image-slider-response","41","123613","0.0-11.0-0.0-0.8","2922","pics2/FR5.jpg","","","56","null","","","","","","","","","",""
"image-slider-response","42","130006","0.0-11.0-0.0-0.9","6174","pics2/VE1.jpg","","","83","null","","","","","","","","","",""
"image-slider-response","43","132710","0.0-11.0-0.0-0.10","2486","pics2/FR4.jpg","","","72","null","","","","","","","","","",""
"image-slider-response","44","135335","0.0-11.0-0.0-0.11","2419","pics2/FR1.jpg","","","70","null","","","","","","","","","",""
"image-slider-response","45","138723","0.0-11.0-0.0-0.12","3173","pics2/SA2.jpg","","","57","null","","","","","","","","","",""
"image-slider-response","46","142325","0.0-11.0-0.0-0.13","3384","pics2/SW1.jpg","","","94","null","","","","","","","","","",""
"image-slider-response","47","145330","0.0-11.0-0.0-0.14","2789","pics2/FR6.jpg","","","40","null","","","","","","","","","",""
"image-slider-response","48","147785","0.0-11.0-0.0-0.15","2250","pics2/SA1.jpg","","","84","null","","","","","","","","","",""
"image-slider-response","49","150181","0.0-11.0-0.0-0.16","2194","pics2/SW5.jpg","","","63","null","","","","","","","","","",""
"image-slider-response","50","154153","0.0-11.0-0.0-0.17","3753","pics2/VE5.jpg","","","54","null","","","","","","","","","",""
"image-slider-response","51","157004","0.0-11.0-0.0-0.18","2634","pics2/FR2.jpg","","","84","null","","","","","","","","","",""
"image-slider-response","52","162300","0.0-11.0-0.0-0.19","5092","pics2/SA4.jpg","","","25","null","","","","","","","","","",""
"image-slider-response","53","164652","0.0-11.0-0.0-0.20","2138","pics2/SA6.jpg","","","65","null","","","","","","","","","",""
"image-slider-response","54","167654","0.0-11.0-0.0-0.21","2798","pics2/SA3.jpg","","","77","null","","","","","","","","","",""
"image-slider-response","55","170062","0.0-11.0-0.0-0.22","2202","pics2/SW4.jpg","","","72","null","","","","","","","","","",""
"image-slider-response","56","172602","0.0-11.0-0.0-0.23","2334","pics2/SA5.jpg","","","45","null","","","","","","","","","",""
"html-button-response","57","174083","0.0-12.0","1264","<div style='width: 900px;'> <font size = 6><b> End of the second rating</b><br><br>","0","","","","","","","","","","","","",""
"html-button-response","58","175164","0.0-13.0","1080","<div style='width: 900px;'>Now please rate the items for the second time. <br><br>This is not a memory test - you don't need to be consistent with your previous ratings. Just as before, try to make accurate judgements.<br><br>","0","","","","","","","","","","","","",""
"html-button-response","59","176465","0.0-14.0","1300","<div><img src='heartS.png'></img></div><br><div style='text-align: justify; width: 700px'>Using the mouse, rate the <b><i>likeness</b></i> of the food items (how much you like them/would like to eat them <i>right now</i>). Far right-end of the scale indicates an item you <i>like a lot</i>. Far left-end indicates an item you <i>dislike a lot</i>. Think about each answer.   <ul><li>Try <b><i>not</b></i> to give identical rating to different items.</li><li>Use the whole scale, and <b><i>not</b></i> just the extremes</ul></div><br>","0","","","","","","","","","","","","",""
"image-slider-response","60","180411","0.0-15.0-0.0-0.0","3944","pics2/VE2.jpg","","","31","VE","","","","","","","","","",""
"image-slider-response","61","183803","0.0-15.0-0.0-0.1","3174","pics2/SA1.jpg","","","66","SA","","","","","","","","","",""
"image-slider-response","62","186363","0.0-15.0-0.0-0.2","2355","pics2/SW1.jpg","","","77","SW","","","","","","","","","",""
"image-slider-response","63","189569","0.0-15.0-0.0-0.3","3003","pics2/SA4.jpg","","","86","SA","","","","","","","","","",""
"image-slider-response","64","193772","0.0-15.0-0.0-0.4","3985","pics2/FR3.jpg","","","56","FR","","","","","","","","","",""
"image-slider-response","65","196643","0.0-15.0-0.0-0.5","2654","pics2/VE4.jpg","","","36","VE","","","","","","","","","",""
"image-slider-response","66","199356","0.0-15.0-0.0-0.6","2496","pics2/SA3.jpg","","","65","SA","","","","","","","","","",""
"image-slider-response","67","204397","0.0-15.0-0.0-0.7","4816","pics2/SA6.jpg","","","55","SA","","","","","","","","","",""
"image-slider-response","68","207731","0.0-15.0-0.0-0.8","3129","pics2/FR1.jpg","","","60","FR","","","","","","","","","",""
"image-slider-response","69","211419","0.0-15.0-0.0-0.9","3471","pics2/SA5.jpg","","","41","SA","","","","","","","","","",""
"image-slider-response","70","216279","0.0-15.0-0.0-0.10","4642","pics2/SA2.jpg","","","75","SA","","","","","","","","","",""
"image-slider-response","71","220853","0.0-15.0-0.0-0.11","4356","pics2/FR2.jpg","","","77","FR","","","","","","","","","",""
"image-slider-response","72","225278","0.0-15.0-0.0-0.12","4207","pics2/VE3.jpg","","","25","VE","","","","","","","","","",""
"image-slider-response","73","229077","0.0-15.0-0.0-0.13","3589","pics2/FR4.jpg","","","91","FR","","","","","","","","","",""
"image-slider-response","74","232200","0.0-15.0-0.0-0.14","2905","pics2/SW3.jpg","","","70","SW","","","","","","","","","",""
"image-slider-response","75","235568","0.0-15.0-0.0-0.15","3158","pics2/VE6.jpg","","","26","VE","","","","","","","","","",""
"image-slider-response","76","238564","0.0-15.0-0.0-0.16","2776","pics2/FR5.jpg","","","62","FR","","","","","","","","","",""
"image-slider-response","77","241781","0.0-15.0-0.0-0.17","3000","pics2/SW4.jpg","","","91","SW","","","","","","","","","",""
"image-slider-response","78","245500","0.0-15.0-0.0-0.18","3513","pics2/SW2.jpg","","","26","SW","","","","","","","","","",""
"image-slider-response","79","247799","0.0-15.0-0.0-0.19","2082","pics2/FR6.jpg","","","68","FR","","","","","","","","","",""
"image-slider-response","80","251378","0.0-15.0-0.0-0.20","3358","pics2/SW6.jpg","","","27","SW","","","","","","","","","",""
"image-slider-response","81","255617","0.0-15.0-0.0-0.21","4021","pics2/SW5.jpg","","","59","SW","","","","","","","","","",""
"image-slider-response","82","259735","0.0-15.0-0.0-0.22","3913","pics2/VE5.jpg","","","56","VE","","","","","","","","","",""
"image-slider-response","83","263555","0.0-15.0-0.0-0.23","3612","pics2/VE1.jpg","","","34","VE","","","","","","","","","",""
"call-function","84","263834","0.0-16.0","","","","","","","","","","","","","","","",""
"call-function","85","263837","0.0-17.0","","","","","","","","","","","","","","","",""
"html-button-response","86","265655","0.0-18.0","1816","<div style='width: 900px;'> <font size = 6><b> End of the first rating</b><br><br>","0","","","","","","","","","","","","",""
"html-button-response","87","267095","0.0-19.0","1439","<div ><img src='sizeS.png'></img></div><br><div style='text-align: justify; width: 700px'> Using the mouse, rate the <b><i>size</b></i> of the food items <b><i> relative to the white background.</b></i> Right-end of the scale indicates a <i>very large item</i>, which covers a large portion of the white rectangle. Left-end indicates a <i>very tiny</i> item which covers a tiny portion of the white rectangle.<br><br><i><u>Remember</i></u>: everything that is not the white background also contributes to item size (e.g. packing, plates, ect.)<br><br> Please keep in mind that if the accuracy of ratings do not allign well with actual sizes, the experiment will end.  As a result it will be consider incomplete and therefore no payment would be made. Good luck!<br><br></div><br>","0","","","","","","","","","","","","",""
"image-slider-response","88","269495","0.0-20.0-0.0-0.0","2398","pics2/FR4.jpg","","","72","null","","","","","","","","","",""
"image-slider-response","89","271961","0.0-20.0-0.0-0.1","2250","pics2/VE5.jpg","","","45","null","","","","","","","","","",""
"image-slider-response","90","274682","0.0-20.0-0.0-0.2","2504","pics2/SA1.jpg","","","85","null","","","","","","","","","",""
"image-slider-response","91","277358","0.0-20.0-0.0-0.3","2472","pics2/SW2.jpg","","","91","null","","","","","","","","","",""
"image-slider-response","92","281604","0.0-20.0-0.0-0.4","4041","pics2/VE6.jpg","","","43","null","","","","","","","","","",""
"image-slider-response","93","285391","0.0-20.0-0.0-0.5","3570","pics2/SA2.jpg","","","55","null","","","","","","","","","",""
"image-slider-response","94","287772","0.0-20.0-0.0-0.6","2174","pics2/FR2.jpg","","","85","null","","","","","","","","","",""
"image-slider-response","95","290135","0.0-20.0-0.0-0.7","2153","pics2/SA6.jpg","","","59","null","","","","","","","","","",""
"image-slider-response","96","293065","0.0-20.0-0.0-0.8","2711","pics2/VE2.jpg","","","72","null","","","","","","","","","",""
"image-slider-response","97","295921","0.0-20.0-0.0-0.9","2638","pics2/SW4.jpg","","","66","null","","","","","","","","","",""
"image-slider-response","98","298322","0.0-20.0-0.0-0.10","2191","pics2/VE4.jpg","","","46","null","","","","","","","","","",""
"image-slider-response","99","301197","0.0-20.0-0.0-0.11","2657","pics2/SW5.jpg","","","62","null","","","","","","","","","",""
"image-slider-response","100","303858","0.0-20.0-0.0-0.12","2454","pics2/FR5.jpg","","","66","null","","","","","","","","","",""
"image-slider-response","101","306408","0.0-20.0-0.0-0.13","2333","pics2/SA4.jpg","","","40","null","","","","","","","","","",""
"image-slider-response","102","310662","0.0-20.0-0.0-0.14","4037","pics2/SA3.jpg","","","76","null","","","","","","","","","",""
"image-slider-response","103","313879","0.0-20.0-0.0-0.15","3010","pics2/SA5.jpg","","","43","null","","","","","","","","","",""
"image-slider-response","104","316428","0.0-20.0-0.0-0.16","2331","pics2/SW1.jpg","","","93","null","","","","","","","","","",""
"image-slider-response","105","318795","0.0-20.0-0.0-0.17","2152","pics2/VE3.jpg","","","69","null","","","","","","","","","",""
"image-slider-response","106","321921","0.0-20.0-0.0-0.18","2919","pics2/FR6.jpg","","","44","null","","","","","","","","","",""
"image-slider-response","107","324367","0.0-20.0-0.0-0.19","2229","pics2/SW6.jpg","","","42","null","","","","","","","","","",""
"image-slider-response","108","326975","0.0-20.0-0.0-0.20","2393","pics2/VE1.jpg","","","70","null","","","","","","","","","",""
"image-slider-response","109","329335","0.0-20.0-0.0-0.21","2142","pics2/FR3.jpg","","","76","null","","","","","","","","","",""
"image-slider-response","110","331795","0.0-20.0-0.0-0.22","2246","pics2/FR1.jpg","","","72","null","","","","","","","","","",""
"image-slider-response","111","334612","0.0-20.0-0.0-0.23","2601","pics2/SW3.jpg","","","57","null","","","","","","","","","",""
"call-function","112","334832","0.0-21.0","","","","","","","","","","","","","","","",""
"html-button-response","113","336123","0.0-22.0","1290","<div style='width: 900px;'> <font size = 6><b> End of the second rating</b><br><br>","0","","","","","","","","","","","","",""
"pavlovia","114","336134","0.0-23.0","","","","","","","","","","","","","","","",""
"html-keyboard-response","115","341138","0.0-24.0","null","<div style='width: 700px;'> <font size=6><b>SHORT BREAK</font></b><br><br><i> Please wait 5 seconds to continue</i></div> ","","","","","","null","","","","","","","",""
"pavlovia","116","341140","0.0-25.0","","","","","","","","","","","","","","","",""
"html-button-response","117","343639","0.0-26.0","2498","<div style='width: 700px;'>In the main part of the study, you will be choosing between 2 items. When it's time to choose,  this symbol will appear: <br><br><img src='chooseS.png'></img><br><br>Below, a cue will signify the type of choice: </div><br><div style='width: 700px;'><div style='float: left; width: 50%'><img src='heartS.png'></img><p class='small'>Heart cue means you should choose the item you <b><i>prefer</b></i> more.</p></div><div class='float: right; width:50%'><img src='sizeS.png'></img><p class='small'>Size cue means you should choose the <b><i>larger</b></i> item. </p></div></div><br><div style='width: 700px;'>When you click, a green square will appear around the item you chose.<br></div><div><br>","0","","","","","","","","","","","","",""
"image-selector-fb-tut","118","346497","0.0-27.0","1849","0232.jpg,0123.jpg","","","","","","","false","0","","","","","",""
"image-selector-fb-tut","119","352372","0.0-28.0","4872","0232.jpg,0123.jpg","","","","","","","false","0","","","","","",""
"html-button-response","120","353715","0.0-29.0","1341","<div style='width: 900px;'>Your choices should be both <b><i>fast and accurate</b></i>. <br><br>You will have <i>4 seconds</i> to make each choice, which should be enough consider the options and click on one of the items.<br><br>","0","","","","","","","","","","","","",""
"html-button-response","121","354961","0.0-30.0","1245","<div style='width: 900px;'>Additionally, on some choice trials you will see the <b><i>no-choice cue</b></i>: <br><br><img src='noS.png'></img> <br><br>This cue means you can't make any choice. You can examine the items, but  can't click on any of them. Just wait patiently for the cue to dissapear.<br><br>","0","","","","","","","","","","","","",""
"image-selector-fb-tut","122","356968","0.0-31.0","null","0232.jpg,0123.jpg","","","","","","","false","null","","","","","",""
"html-button-response","123","358463","0.0-32.0","1494","<div style='width: 900px;'>After each choice the items will remain on the screen and you will see this symbol: <br><br><img src='judgeS.png'></img> <br><br>This means you should rate<b> the magnitude of the difference</b> between the items using a scale: </div><br><div style='width: 900px; '><div style='float: left; width: 50%; margin-right: 2.5em; align-self:left'><img src='heartS.png'></img><p class='small' style = 'text-align: justify;'>Heart cue means you should rate <b>how much you prefer</b> one of the items over the other. Moving the scale indicator to the left means you prefer the left one; moving it to the right - right one. The more you prefer one of them, the more towards that side you should move the scale indicator. </p></div><div class='float: right; width: 50%; margin-left: 2.5em;'><img src='sizeS.png'></img><p class='small' style='text-align: justify'>Size cue means you should rate <b>how much larger</b> is one of the items over the other. Moving the scale indicator to the left means you think the left is larger; moving it to the right - right one. The greater the difference in size, the more towards that side you should move the scale indicator.</div><br>","0","","","","","","","","","","","","",""
"image-slider-2AFC-tut","124","362266","0.0-33.0","3748","","","","38","","","","","","2627","38","","","",""
"image-slider-2AFC-tut","125","367696","0.0-34.0","5428","","","","33","","","","","","4580","33","","","",""
"html-button-response","126","370552","0.0-35.0","2854","<br><br><font size = 36><b> Examples </b></font><br><br><i> 1) I would like to eat some croissants a <b>lot more</b> than doritos right now:</i><br><img src='ex1.PNG', width='62%'></img><br><br><br><i> 2) I would like to eat some doritos a <b>bit more</b> than croissants right now, but just slightly:</i><br><img src='ex2.PNG' width='62%'></img>","0","","","","","","","","","","","","",""
"html-button-response","127","371986","0.0-36.0","1433","<div style='width: 900px;'><i>Now you know everything you need to do the task!</i> <br><br>Let's start by doing a <b>short training</b>, so you'll get used to how it works. </div><br>","0","","","","","","","","","","","","",""
"image-selector-fb","128","374476","0.0-37.0-0.0","1969","pics2/SA5.jpg,pics2/VE5.jpg","","","","","","","false","0","","","heartS.png","","",""
"image-slider-2AFC","129","379481","0.0-37.0-1.0","null","","","","null","","","","","","","","sizeS.png","","",""
"html-keyboard-response","130","380247","0.0-37.0-2.0","null","","","","","","","null","","","","","","","",""
"image-selector-fb","131","383256","0.0-37.1-0.1","null","pics2/FR3.jpg,pics2/VE3.jpg","","","","","","","false","null","","","noS.png","","",""
"image-slider-2AFC","132","386613","0.0-37.1-1.1","3355","","","","34","","","","","","","","sizeS.png","2606","34",""
"html-keyboard-response","133","387479","0.0-37.1-2.1","null","","","","","","","null","","","","","","","",""
"image-selector-fb","134","391872","0.0-37.2-0.2","3867","pics2/VE1.jpg,pics2/SA6.jpg","","","","","","","false","0","","","sizeS.png","","",""
"image-slider-2AFC","135","396034","0.0-37.2-1.2","4159","","","","-14","","","","","","","","sizeS.png","3342","-14",""
"html-keyboard-response","136","396905","0.0-37.2-2.2","null","","","","","","","null","","","","","","","",""
"image-selector-fb","137","399754","0.0-37.3-0.3","2329","pics2/VE1.jpg,pics2/SA5.jpg","","","","","","","false","0","","","sizeS.png","","",""
"image-slider-2AFC","138","403904","0.0-37.3-1.3","4147","","","","40","","","","","","","","heartS.png","2018,3413","19,40",""
"html-keyboard-response","139","404630","0.0-37.3-2.3","null","","","","","","","null","","","","","","","",""
"image-selector-fb","140","407635","0.0-37.4-0.4","null","pics2/SA6.jpg,pics2/VE2.jpg","","","","","","","false","null","","","noS.png","","",""
"image-slider-2AFC","141","410784","0.0-37.4-1.4","3147","","","","41","","","","","","","","sizeS.png","2366","41",""
"html-keyboard-response","142","411509","0.0-37.4-2.4","null","","","","","","","null","","","","","","","",""
"image-selector-fb","143","415404","0.0-37.5-0.5","3387","pics2/VE1.jpg,pics2/SW2.jpg","","","","","","","false","0","","","sizeS.png","","",""
"image-slider-2AFC","144","420130","0.0-37.5-1.5","4723","","","","47","","","","","","","","sizeS.png","2315,3889","-23,47",""
"html-keyboard-response","145","420938","0.0-37.5-2.5","null","","","","","","","null","","","","","","","",""
"image-selector-fb","146","423519","0.0-37.6-0.6","2054","pics2/VE6.jpg,pics2/FR3.jpg","","","","","","","true","1","","","sizeS.png","","",""
"image-slider-2AFC","147","426826","0.0-37.6-1.6","3305","","","","45","","","","","","","","heartS.png","2353","45",""
"html-keyboard-response","148","427630","0.0-37.6-2.6","null","","","","","","","null","","","","","","","",""
"image-selector-fb","149","430119","0.0-37.7-0.7","1969","pics2/SW6.jpg,pics2/SA6.jpg","","","","","","","false","0","","","heartS.png","","",""
"image-slider-2AFC","150","435131","0.0-37.7-1.7","null","","","","null","","","","","","","","heartS.png","4873","-28",""
"html-keyboard-response","151","435948","0.0-37.7-2.7","null","","","","","","","null","","","","","","","",""
"image-selector-fb","152","440427","0.0-37.8-0.8","3961","pics2/VE6.jpg,pics2/SA6.jpg","","","","","","","true","1","","","sizeS.png","","",""
"image-slider-2AFC","153","444892","0.0-37.8-1.8","4463","","","","48","","","","","","","","sizeS.png","3210","48",""
"html-keyboard-response","154","445669","0.0-37.8-2.8","null","","","","","","","null","","","","","","","",""
"image-selector-fb","155","448685","0.0-37.9-0.9","null","pics2/VE3.jpg,pics2/VE5.jpg","","","","","","","false","null","","","noS.png","","",""
"image-slider-2AFC","156","453693","0.0-37.9-1.9","null","","","","null","","","","","","","","heartS.png","4748","-42",""
"html-keyboard-response","157","454501","0.0-37.9-2.9","null","","","","","","","null","","","","","","","",""
"image-selector-fb","158","457531","0.0-37.10-0.10","null","pics2/FR3.jpg,pics2/VE2.jpg","","","","","","","false","null","","","noS.png","","",""
"image-slider-2AFC","159","460517","0.0-37.10-1.10","2984","","","","-29","","","","","","","","heartS.png","2176","-29",""
"html-keyboard-response","160","461220","0.0-37.10-2.10","null","","","","","","","null","","","","","","","",""
"image-selector-fb","161","464241","0.0-37.11-0.11","null","pics2/SA6.jpg,pics2/SW5.jpg","","","","","","","false","null","","","noS.png","","",""
"image-slider-2AFC","162","467610","0.0-37.11-1.11","3367","","","","50","","","","","","","","sizeS.png","2441","50",""
"html-keyboard-response","163","468313","0.0-37.11-2.11","null","","","","","","","null","","","","","","","",""
"html-button-response","164","471241","0.0-38.0","2926","<i><font size=10>Good job!</font></i> <br><br>Before we begin, you have a chance to review the rules, in case something was not clear.<br><br>","0","","","","","","","","","","","","",""
"instructions","165","477778","0.0-39.0","6537","","","","","","","","","","","","","","","[{""page_index"":0,""viewing_time"":1982},{""page_index"":1,""viewing_time"":2697},{""page_index"":2,""viewing_time"":1858}]"
"html-button-response","166","490030","0.0-40.0","12250","<div style='width: 900px;'> <font size='40'>Great! Now you're ready to begin</font><br><br>The main part of the experiment will consist of <u>3 blocks</u>. Each block consists of 66 decisions and judgements. You will have time for a short break between blocks.<br><br><br><i><u>Do your best to respond within the time limit.</u></i><br><br><i> Press the button to start the experiment<br><br></i>","0","","","","","","","","","","","","",""
"image-selector-fb","167","492157","0.0-41.0-0.0","1622","pics2/FR2.jpg,pics2/SW3.jpg","","","","","","","true","1","","","heartS.png","","",""
"image-slider-2AFC","168","495067","0.0-41.0-1.0","2908","","","","46","","","","","","","","sizeS.png","1986","46",""
"html-keyboard-response","169","495925","0.0-41.0-2.0","null","","","","","","","null","","","","","","","",""
"image-selector-fb","170","498937","0.0-41.1-0.1","null","pics2/FR1.jpg,pics2/SW3.jpg","","","","","","","false","null","","","noS.png","","",""
"image-slider-2AFC","171","501562","0.0-41.1-1.1","2622","","","","-40","","","","","","","","sizeS.png","1793","-40",""
"html-keyboard-response","172","502331","0.0-41.1-2.1","null","","","","","","","null","","","","","","","",""
"image-selector-fb","173","505349","0.0-41.2-0.2","null","pics2/SA3.jpg,pics2/FR6.jpg","","","","","","","false","null","","","noS.png","","",""
"image-slider-2AFC","174","508158","0.0-41.2-1.2","2806","","","","-36","","","","","","","","sizeS.png","1950","-36",""
"html-keyboard-response","175","508927","0.0-41.2-2.2","null","","","","","","","null","","","","","","","",""
"image-selector-fb","176","511939","0.0-41.3-0.3","null","pics2/FR5.jpg,pics2/SA3.jpg","","","","","","","false","null","","","noS.png","","",""
"image-slider-2AFC","177","515932","0.0-41.3-1.3","3991","","","","-50","","","","","","","","heartS.png","3051","-50",""
"html-keyboard-response","178","516819","0.0-41.3-2.3","null","","","","","","","null","","","","","","","",""
"image-selector-fb","179","519846","0.0-41.4-0.4","null","pics2/SW1.jpg,pics2/FR2.jpg","","","","","","","false","null","","","noS.png","","",""
"image-slider-2AFC","180","523110","0.0-41.4-1.4","3261","","","","51","","","","","","","","heartS.png","2466","51",""
"html-keyboard-response","181","523997","0.0-41.4-2.4","null","","","","","","","null","","","","","","","",""
"image-selector-fb","182","527309","0.0-41.5-0.5","2806","pics2/SA2.jpg,pics2/FR2.jpg","","","","","","","false","0","","","heartS.png","","",""
"image-slider-2AFC","183","530411","0.0-41.5-1.5","3100","","","","40","","","","","","","","sizeS.png","2320","40",""
"html-keyboard-response","184","531274","0.0-41.5-2.5","null","","","","","","","null","","","","","","","",""
"image-selector-fb","185","534497","0.0-41.6-0.6","2715","pics2/SW3.jpg,pics2/FR2.jpg","","","","","","","true","1","","","sizeS.png","","",""
"image-slider-2AFC","186","539502","0.0-41.6-1.6","null","","","","null","","","","","","","","heartS.png","4340","46",""
"html-keyboard-response","187","540321","0.0-41.6-2.6","null","","","","","","","null","","","","","","","",""
"image-selector-fb","188","542952","0.0-41.7-0.7","2120","pics2/SW1.jpg,pics2/FR4.jpg","","","","","","","true","1","","","heartS.png","","",""
"image-slider-2AFC","189","545769","0.0-41.7-1.7","2814","","","","41","","","","","","","","heartS.png","2014","41",""
"html-keyboard-response","190","546636","0.0-41.7-2.7","null","","","","","","","null","","","","","","","",""
"image-selector-fb","191","548983","0.0-41.8-0.8","1836","pics2/SW4.jpg,pics2/FR4.jpg","","","","","","","false","0","","","heartS.png","","",""
"image-slider-2AFC","192","551485","0.0-41.8-1.8","2500","","","","-31","","","","","","","","sizeS.png","1642","-31",""
"html-keyboard-response","193","552242","0.0-41.8-2.8","null","","","","","","","null","","","","","","","",""
"image-selector-fb","194","554224","0.0-41.9-0.9","1477","pics2/FR5.jpg,pics2/FR2.jpg","","","","","","","true","1","","","sizeS.png","","",""
"image-slider-2AFC","195","556327","0.0-41.9-1.9","2102","","","","42","","","","","","","","heartS.png","1339","42",""
"html-keyboard-response","196","557136","0.0-41.9-2.9","null","","","","","","","null","","","","","","","",""
"image-selector-fb","197","559479","0.0-41.10-0.10","1838","pics2/SA2.jpg,pics2/FR1.jpg","","","","","","","false","0","","","sizeS.png","","",""
"image-slider-2AFC","198","563313","0.0-41.10-1.10","3832","","","","29","","","","","","","","sizeS.png","2720","29",""
"html-keyboard-response","199","564118","0.0-41.10-2.10","null","","","","","","","null","","","","","","","",""
"image-selector-fb","200","567242","0.0-41.11-0.11","2620","pics2/FR6.jpg,pics2/FR1.jpg","","","","","","","true","1","","","heartS.png","","",""
"image-slider-2AFC","201","570493","0.0-41.11-1.11","3249","","","","33","","","","","","","","sizeS.png","2445","33",""
"html-keyboard-response","202","571349","0.0-41.11-2.11","null","","","","","","","null","","","","","","","",""
"image-selector-fb","203","574366","0.0-41.12-0.12","null","pics2/SW1.jpg,pics2/SA3.jpg","","","","","","","false","null","","","noS.png","","",""
"image-slider-2AFC","204","577704","0.0-41.12-1.12","3336","","","","-46","","","","","","","","sizeS.png","2322","-46",""
"html-keyboard-response","205","578557","0.0-41.12-2.12","null","","","","","","","null","","","","","","","",""
"image-selector-fb","206","581290","0.0-41.13-0.13","2223","pics2/FR1.jpg,pics2/FR6.jpg","","","","","","","false","0","","","sizeS.png","","",""
"image-slider-2AFC","207","583983","0.0-41.13-1.13","2691","","","","-33","","","","","","","","heartS.png","1877","-33",""
"html-keyboard-response","208","584768","0.0-41.13-2.13","null","","","","","","","null","","","","","","","",""
"image-selector-fb","209","587247","0.0-41.14-0.14","1963","pics2/SW4.jpg,pics2/SA4.jpg","","","","","","","false","0","","","heartS.png","","",""
"image-slider-2AFC","210","590470","0.0-41.14-1.14","3220","","","","-30","","","","","","","","heartS.png","2421","-30",""
"html-keyboard-response","211","591188","0.0-41.14-2.14","null","","","","","","","null","","","","","","","",""
"image-selector-fb","212","593375","0.0-41.15-0.15","1679","pics2/FR5.jpg,pics2/SW3.jpg","","","","","","","true","1","","","heartS.png","","",""
"image-slider-2AFC","213","596668","0.0-41.15-1.15","3292","","","","36","","","","","","","","heartS.png","2570","36",""
"html-keyboard-response","214","597528","0.0-41.15-2.15","null","","","","","","","null","","","","","","","",""
"image-selector-fb","215","600383","0.0-41.16-0.16","2344","pics2/FR4.jpg,pics2/FR5.jpg","","","","","","","false","0","","","heartS.png","","",""
"image-slider-2AFC","216","602898","0.0-41.16-1.16","2513","","","","-35","","","","","","","","heartS.png","1735","-35",""
"html-keyboard-response","217","603666","0.0-41.16-2.16","null","","","","","","","null","","","","","","","",""
"image-selector-fb","218","606692","0.0-41.17-0.17","null","pics2/FR4.jpg,pics2/SA2.jpg","","","","","","","false","null","","","noS.png","","",""
"image-slider-2AFC","219","609961","0.0-41.17-1.17","3267","","","","-29","","","","","","","","heartS.png","2475","-29",""
"html-keyboard-response","220","610829","0.0-41.17-2.17","null","","","","","","","null","","","","","","","",""
"image-selector-fb","221","614191","0.0-41.18-0.18","2858","pics2/SA2.jpg,pics2/SW3.jpg","","","","","","","true","1","","","heartS.png","","",""
"image-slider-2AFC","222","616863","0.0-41.18-1.18","2669","","","","35","","","","","","","","sizeS.png","1936","35",""
"html-keyboard-response","223","617677","0.0-41.18-2.18","null","","","","","","","null","","","","","","","",""
"image-selector-fb","224","620703","0.0-41.19-0.19","null","pics2/SW1.jpg,pics2/FR1.jpg","","","","","","","false","null","","","noS.png","","",""
"image-slider-2AFC","225","624446","0.0-41.19-1.19","3740","","","","39","","","","","","","","heartS.png","3006","39",""
"html-keyboard-response","226","625252","0.0-41.19-2.19","null","","","","","","","null","","","","","","","",""
"image-selector-fb","227","627859","0.0-41.20-0.20","2096","pics2/FR6.jpg,pics2/SA3.jpg","","","","","","","false","0","","","heartS.png","","",""
"image-slider-2AFC","228","630551","0.0-41.20-1.20","2690","","","","-27","","","","","","","","heartS.png","1910","-27",""
"html-keyboard-response","229","631326","0.0-41.20-2.20","null","","","","","","","null","","","","","","","",""
"image-selector-fb","230","634350","0.0-41.21-0.21","null","pics2/FR6.jpg,pics2/SW3.jpg","","","","","","","false","null","","","noS.png","","",""
"image-slider-2AFC","231","636768","0.0-41.21-1.21","2416","","","","-34","","","","","","","","heartS.png","1642","-34",""
"html-keyboard-response","232","637654","0.0-41.21-2.21","null","","","","","","","null","","","","","","","",""
"image-selector-fb","233","640676","0.0-41.22-0.22","null","pics2/SA3.jpg,pics2/SW3.jpg","","","","","","","false","null","","","noS.png","","",""
"image-slider-2AFC","234","643771","0.0-41.22-1.22","3093","","","","35","","","","","","","","sizeS.png","2136","35",""
"html-keyboard-response","235","644490","0.0-41.22-2.22","null","","","","","","","null","","","","","","","",""
"image-selector-fb","236","647730","0.0-41.23-0.23","2731","pics2/SA1.jpg,pics2/SW1.jpg","","","","","","","true","1","","","sizeS.png","","",""
"image-slider-2AFC","237","650581","0.0-41.23-1.23","2849","","","","37","","","","","","","","sizeS.png","1563","37",""
"html-keyboard-response","238","651453","0.0-41.23-2.23","null","","","","","","","null","","","","","","","",""
"image-selector-fb","239","654461","0.0-41.24-0.24","null","pics2/SA3.jpg,pics2/FR2.jpg","","","","","","","false","null","","","noS.png","","",""
"image-slider-2AFC","240","657691","0.0-41.24-1.24","3229","","","","49","","","","","","","","heartS.png","2497","49",""
"html-keyboard-response","241","658464","0.0-41.24-2.24","null","","","","","","","null","","","","","","","",""
"image-selector-fb","242","660457","0.0-41.25-0.25","1476","pics2/SW4.jpg,pics2/SA3.jpg","","","","","","","false","0","","","heartS.png","","",""
"image-slider-2AFC","243","663904","0.0-41.25-1.25","3444","","","","2","","","","","","","","sizeS.png","1717,2715","-28,2",""
"html-keyboard-response","244","664663","0.0-41.25-2.25","null","","","","","","","null","","","","","","","",""
"image-selector-fb","245","667696","0.0-41.26-0.26","null","pics2/SA1.jpg,pics2/FR4.jpg","","","","","","","false","null","","","noS.png","","",""
"image-slider-2AFC","246","671142","0.0-41.26-1.26","3443","","","","-50","","","","","","","","sizeS.png","2109","-50",""
"html-keyboard-response","247","671852","0.0-41.26-2.26","null","","","","","","","null","","","","","","","",""
"image-selector-fb","248","674641","0.0-41.27-0.27","2273","pics2/SW3.jpg,pics2/SW1.jpg","","","","","","","true","1","","","sizeS.png","","",""
"image-slider-2AFC","249","677293","0.0-41.27-1.27","2650","","","","54","","","","","","","","sizeS.png","1834","54",""
"html-keyboard-response","250","678026","0.0-41.27-2.27","null","","","","","","","null","","","","","","","",""
"image-selector-fb","251","681046","0.0-41.28-0.28","null","pics2/SA2.jpg,pics2/SW3.jpg","","","","","","","false","null","","","noS.png","","",""
"image-slider-2AFC","252","684377","0.0-41.28-1.28","3329","","","","56","","","","","","","","sizeS.png","1674,2299","36,56",""
"html-keyboard-response","253","685096","0.0-41.28-2.28","null","","","","","","","null","","","","","","","",""
"image-selector-fb","254","688108","0.0-41.29-0.29","null","pics2/FR5.jpg,pics2/SW3.jpg","","","","","","","false","null","","","noS.png","","",""
"image-slider-2AFC","255","690591","0.0-41.29-1.29","2480","","","","36","","","","","","","","heartS.png","1695","36",""
"html-keyboard-response","256","691377","0.0-41.29-2.29","null","","","","","","","null","","","","","","","",""
"image-selector-fb","257","694390","0.0-41.30-0.30","null","pics2/SW1.jpg,pics2/FR6.jpg","","","","","","","false","null","","","noS.png","","",""
"image-slider-2AFC","258","699323","0.0-41.30-1.30","4930","","","","-42","","","","","","","","sizeS.png","3893","-42",""
"html-keyboard-response","259","700040","0.0-41.30-2.30","null","","","","","","","null","","","","","","","",""
"image-selector-fb","260","702510","0.0-41.31-0.31","1958","pics2/SA4.jpg,pics2/FR1.jpg","","","","","","","true","1","","","sizeS.png","","",""
"image-slider-2AFC","261","705574","0.0-41.31-1.31","3062","","","","-26","","","","","","","","heartS.png","2236","-26",""
"html-keyboard-response","262","706280","0.0-41.31-2.31","null","","","","","","","null","","","","","","","",""
"image-selector-fb","263","709292","0.0-41.32-0.32","null","pics2/SW1.jpg,pics2/SA2.jpg","","","","","","","false","null","","","noS.png","","",""
"image-slider-2AFC","264","712618","0.0-41.32-1.32","3324","","","","-48","","","","","","","","sizeS.png","2336","-48",""
"html-keyboard-response","265","713321","0.0-41.32-2.32","null","","","","","","","null","","","","","","","",""
"image-selector-fb","266","716083","0.0-41.33-0.33","2257","pics2/SA2.jpg,pics2/FR4.jpg","","","","","","","true","1","","","heartS.png","","",""
"image-slider-2AFC","267","718493","0.0-41.33-1.33","2408","","","","51","","","","","","","","heartS.png","1537","51",""
"html-keyboard-response","268","719367","0.0-41.33-2.33","null","","","","","","","null","","","","","","","",""
"image-selector-fb","269","722053","0.0-41.34-0.34","2180","pics2/FR2.jpg,pics2/FR1.jpg","","","","","","","true","1","","","sizeS.png","","",""
"image-slider-2AFC","270","724810","0.0-41.34-1.34","2755","","","","35","","","","","","","","sizeS.png","2006","35",""
"html-keyboard-response","271","725523","0.0-41.34-2.34","null","","","","","","","null","","","","","","","",""
"image-selector-fb","272","728336","0.0-41.35-0.35","2308","pics2/SA1.jpg,pics2/SW3.jpg","","","","","","","false","0","","","heartS.png","","",""
"image-slider-2AFC","273","731211","0.0-41.35-1.35","2874","","","","-17","","","","","","","","heartS.png","2124","-17",""
"html-keyboard-response","274","731975","0.0-41.35-2.35","null","","","","","","","null","","","","","","","",""
"image-selector-fb","275","734593","0.0-41.36-0.36","2111","pics2/SA4.jpg,pics2/SW3.jpg","","","","","","","false","0","","","heartS.png","","",""
"image-slider-2AFC","276","736935","0.0-41.36-1.36","2340","","","","-27","","","","","","","","heartS.png","1541","-27",""
"html-keyboard-response","277","737750","0.0-41.36-2.36","null","","","","","","","null","","","","","","","",""
"image-selector-fb","278","740763","0.0-41.37-0.37","null","pics2/SA1.jpg,pics2/SA3.jpg","","","","","","","false","null","","","noS.png","","",""
"image-slider-2AFC","279","743273","0.0-41.37-1.37","2509","","","","-40","","","","","","","","heartS.png","1694","-40",""
"html-keyboard-response","280","744030","0.0-41.37-2.37","null","","","","","","","null","","","","","","","",""
"image-selector-fb","281","747048","0.0-41.38-0.38","null","pics2/SW1.jpg,pics2/SW4.jpg","","","","","","","false","null","","","noS.png","","",""
"image-slider-2AFC","282","750658","0.0-41.38-1.38","3608","","","","-50","","","","","","","","sizeS.png","2678","-50",""
"html-keyboard-response","283","751376","0.0-41.38-2.38","null","","","","","","","null","","","","","","","",""
"image-selector-fb","284","753885","0.0-41.39-0.39","2003","pics2/FR1.jpg,pics2/FR5.jpg","","","","","","","false","0","","","heartS.png","","",""
"image-slider-2AFC","285","757263","0.0-41.39-1.39","3376","","","","-39","","","","","","","","sizeS.png","1561,2587","-27,-39",""
"html-keyboard-response","286","758027","0.0-41.39-2.39","null","","","","","","","null","","","","","","","",""
"image-selector-fb","287","760637","0.0-41.40-0.40","2095","pics2/SW3.jpg,pics2/FR4.jpg","","","","","","","false","0","","","sizeS.png","","",""
"image-slider-2AFC","288","763602","0.0-41.40-1.40","2961","","","","-9","","","","","","","","sizeS.png","1463,2259","-36,-9",""
"html-keyboard-response","289","764469","0.0-41.40-2.40","null","","","","","","","null","","","","","","","",""
"image-selector-fb","290","766587","0.0-41.41-0.41","1606","pics2/FR1.jpg,pics2/SA1.jpg","","","","","","","false","0","","","heartS.png","","",""
"image-slider-2AFC","291","768842","0.0-41.41-1.41","2253","","","","-37","","","","","","","","sizeS.png","1526","-37",""
"html-keyboard-response","292","769610","0.0-41.41-2.41","null","","","","","","","null","","","","","","","",""
"image-selector-fb","293","772757","0.0-41.42-0.42","2642","pics2/SA1.jpg,pics2/FR6.jpg","","","","","","","false","0","","","sizeS.png","","",""
"image-slider-2AFC","294","775584","0.0-41.42-1.42","2824","","","","22","","","","","","","","heartS.png","2131","22",""
"html-keyboard-response","295","776350","0.0-41.42-2.42","null","","","","","","","null","","","","","","","",""
"image-selector-fb","296","779308","0.0-41.43-0.43","2443","pics2/SA1.jpg,pics2/FR4.jpg","","","","","","","false","0","","","heartS.png","","",""
"image-slider-2AFC","297","781716","0.0-41.43-1.43","2405","","","","-24","","","","","","","","sizeS.png","1522","-24",""
"html-keyboard-response","298","782536","0.0-41.43-2.43","null","","","","","","","null","","","","","","","",""
"image-selector-fb","299","784792","0.0-41.44-0.44","1751","pics2/FR5.jpg,pics2/SW1.jpg","","","","","","","true","1","","","sizeS.png","","",""
"image-slider-2AFC","300","787478","0.0-41.44-1.44","2685","","","","40","","","","","","","","sizeS.png","1890","40",""
"html-keyboard-response","301","788208","0.0-41.44-2.44","null","","","","","","","null","","","","","","","",""
"image-selector-fb","302","790235","0.0-41.45-0.45","1519","pics2/SW1.jpg,pics2/SA2.jpg","","","","","","","false","0","","","heartS.png","","",""
"image-slider-2AFC","303","794074","0.0-41.45-1.45","3837","","","","-58","","","","","","","","sizeS.png","1804,2732","-42,-58",""
"html-keyboard-response","304","794907","0.0-41.45-2.45","null","","","","","","","null","","","","","","","",""
"image-selector-fb","305","797423","0.0-41.46-0.46","2007","pics2/FR2.jpg,pics2/SA1.jpg","","","","","","","true","1","","","sizeS.png","","",""
"image-slider-2AFC","306","800523","0.0-41.46-1.46","3098","","","","-40","","","","","","","","heartS.png","2214","-40",""
"html-keyboard-response","307","801333","0.0-41.46-2.46","null","","","","","","","null","","","","","","","",""
"image-selector-fb","308","803809","0.0-41.47-0.47","1972","pics2/SA1.jpg,pics2/SA2.jpg","","","","","","","false","0","","","sizeS.png","","",""
"image-slider-2AFC","309","806241","0.0-41.47-1.47","2430","","","","26","","","","","","","","heartS.png","1667","26",""
"html-keyboard-response","310","807105","0.0-41.47-2.47","null","","","","","","","null","","","","","","","",""
"image-selector-fb","311","809605","0.0-41.48-0.48","1993","pics2/SW4.jpg,pics2/FR2.jpg","","","","","","","false","0","","","heartS.png","","",""
"image-slider-2AFC","312","814165","0.0-41.48-1.48","4558","","","","-32","","","","","","","","heartS.png","3731","-32",""
"html-keyboard-response","313","815026","0.0-41.48-2.48","null","","","","","","","null","","","","","","","",""
"image-selector-fb","314","817162","0.0-41.49-0.49","1631","pics2/SA3.jpg,pics2/FR4.jpg","","","","","","","true","1","","","heartS.png","","",""
"image-slider-2AFC","315","819912","0.0-41.49-1.49","2747","","","","47","","","","","","","","heartS.png","1128,1862","32,47",""
"html-keyboard-response","316","820642","0.0-41.49-2.49","null","","","","","","","null","","","","","","","",""
"image-selector-fb","317","823658","0.0-41.50-0.50","null","pics2/SW1.jpg,pics2/FR5.jpg","","","","","","","false","null","","","noS.png","","",""
"image-slider-2AFC","318","826442","0.0-41.50-1.50","2780","","","","-40","","","","","","","","sizeS.png","1900","-40",""
"html-keyboard-response","319","827201","0.0-41.50-2.50","null","","","","","","","null","","","","","","","",""
"image-selector-fb","320","829821","0.0-41.51-0.51","2115","pics2/SW3.jpg,pics2/FR5.jpg","","","","","","","false","0","","","sizeS.png","","",""
"image-slider-2AFC","321","833087","0.0-41.51-1.51","3262","","","","-6","","","","","","","","sizeS.png","2516","-6",""
"html-keyboard-response","322","833972","0.0-41.51-2.51","null","","","","","","","null","","","","","","","",""
"image-selector-fb","323","836760","0.0-41.52-0.52","2283","pics2/SW1.jpg,pics2/SA1.jpg","","","","","","","false","0","","","heartS.png","","",""
"image-slider-2AFC","324","839619","0.0-41.52-1.52","2856","","","","-11","","","","","","","","heartS.png","2043","-11",""
"html-keyboard-response","325","840497","0.0-41.52-2.52","null","","","","","","","null","","","","","","","",""
"image-selector-fb","326","843536","0.0-41.53-0.53","null","pics2/SA3.jpg,pics2/SA2.jpg","","","","","","","false","null","","","noS.png","","",""
"image-slider-2AFC","327","847171","0.0-41.53-1.53","3633","","","","14","","","","","","","","sizeS.png","2854","14",""
"html-keyboard-response","328","848056","0.0-41.53-2.53","null","","","","","","","null","","","","","","","",""
"image-selector-fb","329","850882","0.0-41.54-0.54","2311","pics2/SA3.jpg,pics2/FR1.jpg","","","","","","","true","1","","","sizeS.png","","",""
"image-slider-2AFC","330","853848","0.0-41.54-1.54","2964","","","","19","","","","","","","","sizeS.png","1522","19",""
"html-keyboard-response","331","854616","0.0-41.54-2.54","null","","","","","","","null","","","","","","","",""
"image-selector-fb","332","856793","0.0-41.55-0.55","1673","pics2/SA3.jpg,pics2/SW1.jpg","","","","","","","true","1","","","sizeS.png","","",""
"image-slider-2AFC","333","859502","0.0-41.55-1.55","2707","","","","-14","","","","","","","","heartS.png","1937","-14",""
"html-keyboard-response","334","860376","0.0-41.55-2.55","null","","","","","","","null","","","","","","","",""
"image-selector-fb","335","863131","0.0-41.56-0.56","2240","pics2/SA2.jpg,pics2/SA1.jpg","","","","","","","false","0","","","heartS.png","","",""
"image-slider-2AFC","336","865432","0.0-41.56-1.56","2299","","","","-33","","","","","","","","heartS.png","1438","-33",""
"html-keyboard-response","337","866288","0.0-41.56-2.56","null","","","","","","","null","","","","","","","",""
"image-selector-fb","338","869126","0.0-41.57-0.57","2327","pics2/FR2.jpg,pics2/SA2.jpg","","","","","","","false","0","","","sizeS.png","","",""
"image-slider-2AFC","339","872164","0.0-41.57-1.57","3035","","","","-49","","","","","","","","sizeS.png","2062","-49",""
"html-keyboard-response","340","872922","0.0-41.57-2.57","null","","","","","","","null","","","","","","","",""
"image-selector-fb","341","876073","0.0-41.58-0.58","2644","pics2/SA3.jpg,pics2/SA2.jpg","","","","","","","true","1","","","heartS.png","","",""
"image-slider-2AFC","342","878148","0.0-41.58-1.58","2072","","","","24","","","","","","","","sizeS.png","1340","24",""
"html-keyboard-response","343","879014","0.0-41.58-2.58","null","","","","","","","null","","","","","","","",""
"image-selector-fb","344","882856","0.0-41.59-0.59","3336","pics2/SA3.jpg,pics2/SW4.jpg","","","","","","","false","0","","","sizeS.png","","",""
"image-slider-2AFC","345","885631","0.0-41.59-1.59","2773","","","","20","","","","","","","","heartS.png","2051","20",""
"html-keyboard-response","346","886494","0.0-41.59-2.59","null","","","","","","","null","","","","","","","",""
"image-selector-fb","347","889521","0.0-41.60-0.60","null","pics2/SA4.jpg,pics2/FR2.jpg","","","","","","","false","null","","","noS.png","","",""
"image-slider-2AFC","348","891783","0.0-41.60-1.60","2260","","","","-39","","","","","","","","heartS.png","1459","-39",""
"html-keyboard-response","349","892586","0.0-41.60-2.60","null","","","","","","","null","","","","","","","",""
"image-selector-fb","350","895411","0.0-41.61-0.61","2318","pics2/FR1.jpg,pics2/SW1.jpg","","","","","","","true","1","","","sizeS.png","","",""
"image-slider-2AFC","351","898257","0.0-41.61-1.61","2845","","","","66","","","","","","","","sizeS.png","1993","66",""
"html-keyboard-response","352","899013","0.0-41.61-2.61","null","","","","","","","null","","","","","","","",""
"image-selector-fb","353","902022","0.0-41.62-0.62","null","pics2/SA4.jpg,pics2/FR6.jpg","","","","","","","false","null","","","noS.png","","",""
"image-slider-2AFC","354","906553","0.0-41.62-1.62","4529","","","","-18","","","","","","","","sizeS.png","3872","-18",""
"html-keyboard-response","355","907362","0.0-41.62-2.62","null","","","","","","","null","","","","","","","",""
"image-selector-fb","356","910375","0.0-41.63-0.63","null","pics2/SA4.jpg,pics2/SW3.jpg","","","","","","","false","null","","","noS.png","","",""
"image-slider-2AFC","357","913668","0.0-41.63-1.63","3292","","","","11","","","","","","","","sizeS.png","2538","11",""
"html-keyboard-response","358","914428","0.0-41.63-2.63","null","","","","","","","null","","","","","","","",""
"image-selector-fb","359","917446","0.0-41.64-0.64","null","pics2/FR5.jpg,pics2/FR6.jpg","","","","","","","false","null","","","noS.png","","",""
"image-slider-2AFC","360","919862","0.0-41.64-1.64","2414","","","","13","","","","","","","","heartS.png","1626","13",""
"html-keyboard-response","361","920687","0.0-41.64-2.64","null","","","","","","","null","","","","","","","",""
"image-selector-fb","362","924146","0.0-41.65-0.65","2943","pics2/SW1.jpg,pics2/SA4.jpg","","","","","","","true","1","","","heartS.png","","",""
"image-slider-2AFC","363","929052","0.0-41.65-1.65","4905","","","","-60","","","","","","","","sizeS.png","2093,3967","27,-60",""
"html-keyboard-response","364","929909","0.0-41.65-2.65","null","","","","","","","null","","","","","","","",""
"pavlovia","365","929930","0.0-42.0","","","","","","","","","","","","","","","",""
"html-keyboard-response","366","934933","0.0-43.0","null","<div style='width: 700px;'> <font size=6><b>SHORT BREAK</font></b><br><br><i> Please wait 5 seconds to continue</i></div> ","","","","","","null","","","","","","","",""
"pavlovia","367","934935","0.0-44.0","","","","","","","","","","","","","","","",""
"html-button-response","368","943275","0.0-45.0","8339","<div style='width: 700px;'> <font size=6><b>BLOCK 2</font></b><br><br>Press the button whenever you feel ready to start the second block (there are 3 in total)</div>","0","","","","","","","","","","","","",""
"image-selector-fb","369","946293","0.0-46.0-0.0","null","pics2/FR6.jpg,pics2/FR2.jpg","","","","","","","false","null","","","noS.png","","",""
"image-slider-2AFC","370","948520","0.0-46.0-1.0","2225","","","","33","","","","","","","","sizeS.png","1515","33",""
"html-keyboard-response","371","949285","0.0-46.0-2.0","null","","","","","","","null","","","","","","","",""
"image-selector-fb","372","951896","0.0-46.1-0.1","2104","pics2/SW3.jpg,pics2/FR6.jpg","","","","","","","false","0","","","sizeS.png","","",""
"image-slider-2AFC","373","954505","0.0-46.1-1.1","2607","","","","-27","","","","","","","","heartS.png","1832","-27",""
"html-keyboard-response","374","955317","0.0-46.1-2.1","null","","","","","","","null","","","","","","","",""
"image-selector-fb","375","957929","0.0-46.2-0.2","2103","pics2/SW1.jpg,pics2/FR2.jpg","","","","","","","true","1","","","heartS.png","","",""
"image-slider-2AFC","376","961165","0.0-46.2-1.2","3234","","","","-32","","","","","","","","sizeS.png","2505","-32",""
"html-keyboard-response","377","961945","0.0-46.2-2.2","null","","","","","","","null","","","","","","","",""
"image-selector-fb","378","963582","0.0-46.3-0.3","1131","pics2/FR5.jpg,pics2/FR1.jpg","","","","","","","true","1","","","sizeS.png","","",""
"image-slider-2AFC","379","965672","0.0-46.3-1.3","2088","","","","15","","","","","","","","heartS.png","1313","15",""
"html-keyboard-response","380","966394","0.0-46.3-2.3","null","","","","","","","null","","","","","","","",""
"image-selector-fb","381","969425","0.0-46.4-0.4","null","pics2/SW4.jpg,pics2/SA3.jpg","","","","","","","false","null","","","noS.png","","",""
"image-slider-2AFC","382","972771","0.0-46.4-1.4","3343","","","","26","","","","","","","","sizeS.png","2648","26",""
"html-keyboard-response","383","973478","0.0-46.4-2.4","null","","","","","","","null","","","","","","","",""
"image-selector-fb","384","975910","0.0-46.5-0.5","1921","pics2/FR6.jpg,pics2/SA2.jpg","","","","","","","true","1","","","heartS.png","","",""
"image-slider-2AFC","385","978362","0.0-46.5-1.5","2451","","","","22","","","","","","","","sizeS.png","1759","22",""
"html-keyboard-response","386","979126","0.0-46.5-2.5","null","","","","","","","null","","","","","","","",""
"image-selector-fb","387","982462","0.0-46.6-0.6","2833","pics2/FR4.jpg,pics2/SA3.jpg","","","","","","","true","1","","","sizeS.png","","",""
"image-slider-2AFC","388","985406","0.0-46.6-1.6","2942","","","","-25","","","","","","","","heartS.png","2070","-25",""
"html-keyboard-response","389","986293","0.0-46.6-2.6","null","","","","","","","null","","","","","","","",""
"image-selector-fb","390","989307","0.0-46.7-0.7","null","pics2/SW4.jpg,pics2/FR4.jpg","","","","","","","false","null","","","noS.png","","",""
"image-slider-2AFC","391","991991","0.0-46.7-1.7","2681","","","","-36","","","","","","","","heartS.png","1866","-36",""
"html-keyboard-response","392","992756","0.0-46.7-2.7","null","","","","","","","null","","","","","","","",""
"image-selector-fb","393","995389","0.0-46.8-0.8","2127","pics2/SA1.jpg,pics2/FR2.jpg","","","","","","","true","1","","","heartS.png","","",""
"image-slider-2AFC","394","997409","0.0-46.8-1.8","2017","","","","22","","","","","","","","heartS.png","1328","22",""
"html-keyboard-response","395","998115","0.0-46.8-2.8","null","","","","","","","null","","","","","","","",""
"image-selector-fb","396","1001128","0.0-46.9-0.9","null","pics2/SW4.jpg,pics2/FR5.jpg","","","","","","","false","null","","","noS.png","","",""
"image-slider-2AFC","397","1005290","0.0-46.9-1.9","4159","","","","-31","","","","","","","","sizeS.png","3429","-31",""
"html-keyboard-response","398","1006070","0.0-46.9-2.9","null","","","","","","","null","","","","","","","",""
"image-selector-fb","399","1009858","0.0-46.10-0.10","3282","pics2/FR5.jpg,pics2/SA2.jpg","","","","","","","true","1","","","sizeS.png","","",""
"image-slider-2AFC","400","1012044","0.0-46.10-1.10","2184","","","","15","","","","","","","","heartS.png","1478","15",""
"html-keyboard-response","401","1012858","0.0-46.10-2.10","null","","","","","","","null","","","","","","","",""
"image-selector-fb","402","1017372","0.0-46.11-0.11","null","pics2/SA1.jpg,pics2/SW4.jpg","","","","","","","false","null","","","sizeS.png","","",""
"image-slider-2AFC","403","1017373","0.0-46.11-1.11","null","","","","null","","","","","","","","sizeS.png","","",""
"html-keyboard-response","404","1018136","0.0-46.11-2.11","null","","","","","","","null","","","","","","","",""
"image-selector-fb","405","1021188","0.0-46.12-0.12","2546","pics2/FR5.jpg,pics2/SA4.jpg","","","","","","","false","0","","","sizeS.png","","",""
"image-slider-2AFC","406","1024788","0.0-46.12-1.12","3597","","","","35","","","","","","","","heartS.png","2860","35",""
"html-keyboard-response","407","1025558","0.0-46.12-2.12","null","","","","","","","null","","","","","","","",""
"image-selector-fb","408","1028526","0.0-46.13-0.13","2462","pics2/SA3.jpg,pics2/SA1.jpg","","","","","","","true","1","","","heartS.png","","",""
"image-slider-2AFC","409","1032186","0.0-46.13-1.13","3658","","","","34","","","","","","","","heartS.png","2586","34",""
"html-keyboard-response","410","1032957","0.0-46.13-2.13","null","","","","","","","null","","","","","","","",""
"image-selector-fb","411","1035971","0.0-46.14-0.14","null","pics2/SA4.jpg,pics2/FR4.jpg","","","","","","","false","null","","","noS.png","","",""
"image-slider-2AFC","412","1038699","0.0-46.14-1.14","2725","","","","-22","","","","","","","","heartS.png","1955","-22",""
"html-keyboard-response","413","1039419","0.0-46.14-2.14","null","","","","","","","null","","","","","","","",""
"image-selector-fb","414","1042625","0.0-46.15-0.15","2702","pics2/SA2.jpg,pics2/SA3.jpg","","","","","","","true","1","","","sizeS.png","","",""
"image-slider-2AFC","415","1046017","0.0-46.15-1.15","3389","","","","-29","","","","","","","","heartS.png","2445","-29",""
"html-keyboard-response","416","1046871","0.0-46.15-2.15","null","","","","","","","null","","","","","","","",""
"image-selector-fb","417","1049858","0.0-46.16-0.16","2479","pics2/SW4.jpg,pics2/SW3.jpg","","","","","","","true","1","","","heartS.png","","",""
"image-slider-2AFC","418","1053252","0.0-46.16-1.16","3393","","","","11","","","","","","","","heartS.png","2008,2682","19,11",""
"html-keyboard-response","419","1054071","0.0-46.16-2.16","null","","","","","","","null","","","","","","","",""
"image-selector-fb","420","1057238","0.0-46.17-0.17","2648","pics2/FR4.jpg,pics2/SW1.jpg","","","","","","","false","0","","","sizeS.png","","",""
"image-slider-2AFC","421","1060465","0.0-46.17-1.17","3224","","","","-24","","","","","","","","heartS.png","2397","-24",""
"html-keyboard-response","422","1061167","0.0-46.17-2.17","null","","","","","","","null","","","","","","","",""
"image-selector-fb","423","1064439","0.0-46.18-0.18","2768","pics2/SA2.jpg,pics2/SW4.jpg","","","","","","","true","1","","","sizeS.png","","",""
"image-slider-2AFC","424","1067280","0.0-46.18-1.18","2838","","","","-13","","","","","","","","heartS.png","2036","-13",""
"html-keyboard-response","425","1068154","0.0-46.18-2.18","null","","","","","","","null","","","","","","","",""
"image-selector-fb","426","1070724","0.0-46.19-0.19","2065","pics2/SA4.jpg,pics2/FR4.jpg","","","","","","","true","1","","","heartS.png","","",""
"image-slider-2AFC","427","1073763","0.0-46.19-1.19","3037","","","","25","","","","","","","","sizeS.png","2255","25",""
"html-keyboard-response","428","1074488","0.0-46.19-2.19","null","","","","","","","null","","","","","","","",""
"image-selector-fb","429","1077503","0.0-46.20-0.20","null","pics2/SW1.jpg,pics2/SA4.jpg","","","","","","","false","null","","","noS.png","","",""
"image-slider-2AFC","430","1081755","0.0-46.20-1.20","4249","","","","30","","","","","","","","heartS.png","2785","30",""
"html-keyboard-response","431","1082558","0.0-46.20-2.20","null","","","","","","","null","","","","","","","",""
"image-selector-fb","432","1085575","0.0-46.21-0.21","null","pics2/SA1.jpg,pics2/FR1.jpg","","","","","","","false","null","","","noS.png","","",""
"image-slider-2AFC","433","1088866","0.0-46.21-1.21","3289","","","","29","","","","","","","","sizeS.png","2578","29",""
"html-keyboard-response","434","1089627","0.0-46.21-2.21","null","","","","","","","null","","","","","","","",""
"image-selector-fb","435","1093266","0.0-46.22-0.22","3135","pics2/FR5.jpg,pics2/FR4.jpg","","","","","","","true","1","","","sizeS.png","","",""
"image-slider-2AFC","436","1095917","0.0-46.22-1.22","2649","","","","26","","","","","","","","sizeS.png","1776","26",""
"html-keyboard-response","437","1096784","0.0-46.22-2.22","null","","","","","","","null","","","","","","","",""
"image-selector-fb","438","1099004","0.0-46.23-0.23","1715","pics2/FR4.jpg,pics2/SA1.jpg","","","","","","","true","1","","","sizeS.png","","",""
"image-slider-2AFC","439","1101421","0.0-46.23-1.23","2415","","","","-15","","","","","","","","heartS.png","1682","-15",""
"html-keyboard-response","440","1102186","0.0-46.23-2.23","null","","","","","","","null","","","","","","","",""
"image-selector-fb","441","1104544","0.0-46.24-0.24","1851","pics2/SA2.jpg,pics2/SA4.jpg","","","","","","","false","0","","","heartS.png","","",""
"image-slider-2AFC","442","1109553","0.0-46.24-1.24","null","","","","null","","","","","","","","sizeS.png","4407","5",""
"html-keyboard-response","443","1110317","0.0-46.24-2.24","null","","","","","","","null","","","","","","","",""
"image-selector-fb","444","1113333","0.0-46.25-0.25","null","pics2/FR5.jpg,pics2/SA4.jpg","","","","","","","false","null","","","noS.png","","",""
"image-slider-2AFC","445","1116948","0.0-46.25-1.25","3612","","","","-16","","","","","","","","sizeS.png","2903","-16",""
"html-keyboard-response","446","1117703","0.0-46.25-2.25","null","","","","","","","null","","","","","","","",""
"image-selector-fb","447","1120286","0.0-46.26-0.26","2077","pics2/FR4.jpg,pics2/SA2.jpg","","","","","","","true","1","","","sizeS.png","","",""
"image-slider-2AFC","448","1124280","0.0-46.26-1.26","3991","","","","21","","","","","","","","sizeS.png","3282","21",""
"html-keyboard-response","449","1125033","0.0-46.26-2.26","null","","","","","","","null","","","","","","","",""
"image-selector-fb","450","1127852","0.0-46.27-0.27","2312","pics2/FR2.jpg,pics2/SW4.jpg","","","","","","","false","0","","","sizeS.png","","",""
"image-slider-2AFC","451","1130238","0.0-46.27-1.27","2384","","","","22","","","","","","","","heartS.png","1697","22",""
"html-keyboard-response","452","1130948","0.0-46.27-2.27","null","","","","","","","null","","","","","","","",""
"image-selector-fb","453","1133956","0.0-46.28-0.28","null","pics2/SW1.jpg,pics2/FR4.jpg","","","","","","","false","null","","","noS.png","","",""
"image-slider-2AFC","454","1136479","0.0-46.28-1.28","2520","","","","-26","","","","","","","","heartS.png","1743","-26",""
"html-keyboard-response","455","1137245","0.0-46.28-2.28","null","","","","","","","null","","","","","","","",""
"image-selector-fb","456","1138910","0.0-46.29-0.29","1153","pics2/FR5.jpg,pics2/SA1.jpg","","","","","","","true","1","","","sizeS.png","","",""
"image-slider-2AFC","457","1140720","0.0-46.29-1.29","1808","","","","14","","","","","","","","sizeS.png","1133","14",""
"html-keyboard-response","458","1141477","0.0-46.29-2.29","null","","","","","","","null","","","","","","","",""
"image-selector-fb","459","1144623","0.0-46.30-0.30","2638","pics2/SA3.jpg,pics2/SA4.jpg","","","","","","","true","1","","","heartS.png","","",""
"image-slider-2AFC","460","1148143","0.0-46.30-1.30","3518","","","","-33","","","","","","","","sizeS.png","2723","-33",""
"html-keyboard-response","461","1148902","0.0-46.30-2.30","null","","","","","","","null","","","","","","","",""
"image-selector-fb","462","1151919","0.0-46.31-0.31","null","pics2/SA1.jpg,pics2/SA4.jpg","","","","","","","false","null","","","noS.png","","",""
"image-slider-2AFC","463","1154562","0.0-46.31-1.31","2640","","","","-24","","","","","","","","sizeS.png","1895","-24",""
"html-keyboard-response","464","1155323","0.0-46.31-2.31","null","","","","","","","null","","","","","","","",""
"image-selector-fb","465","1158352","0.0-46.32-0.32","null","pics2/SA1.jpg,pics2/SA2.jpg","","","","","","","false","null","","","noS.png","","",""
"image-slider-2AFC","466","1162014","0.0-46.32-1.32","3659","","","","35","","","","","","","","heartS.png","2833","35",""
"html-keyboard-response","467","1162731","0.0-46.32-2.32","null","","","","","","","null","","","","","","","",""
"image-selector-fb","468","1164838","0.0-46.33-0.33","1593","pics2/FR4.jpg,pics2/FR1.jpg","","","","","","","true","1","","","sizeS.png","","",""
"image-slider-2AFC","469","1166917","0.0-46.33-1.33","2076","","","","36","","","","","","","","sizeS.png","1400","36",""
"html-keyboard-response","470","1167733","0.0-46.33-2.33","null","","","","","","","null","","","","","","","",""
"image-selector-fb","471","1170746","0.0-46.34-0.34","null","pics2/FR5.jpg,pics2/FR1.jpg","","","","","","","false","null","","","noS.png","","",""
"image-slider-2AFC","472","1173040","0.0-46.34-1.34","2291","","","","28","","","","","","","","sizeS.png","1570","28",""
"html-keyboard-response","473","1173801","0.0-46.34-2.34","null","","","","","","","null","","","","","","","",""
"image-selector-fb","474","1175941","0.0-46.35-0.35","1631","pics2/SA4.jpg,pics2/SW1.jpg","","","","","","","true","1","","","sizeS.png","","",""
"image-slider-2AFC","475","1178196","0.0-46.35-1.35","2252","","","","22","","","","","","","","sizeS.png","1470","22",""
"html-keyboard-response","476","1179002","0.0-46.35-2.35","null","","","","","","","null","","","","","","","",""
"image-selector-fb","477","1182010","0.0-46.36-0.36","null","pics2/SA1.jpg,pics2/FR2.jpg","","","","","","","false","null","","","noS.png","","",""
"image-slider-2AFC","478","1184936","0.0-46.36-1.36","2924","","","","-27","","","","","","","","sizeS.png","2132","-27",""
"html-keyboard-response","479","1185755","0.0-46.36-2.36","null","","","","","","","null","","","","","","","",""
"image-selector-fb","480","1188769","0.0-46.37-0.37","null","pics2/SA1.jpg,pics2/FR5.jpg","","","","","","","false","null","","","noS.png","","",""
"image-slider-2AFC","481","1191577","0.0-46.37-1.37","2805","","","","-32","","","","","","","","heartS.png","2019","-32",""
"html-keyboard-response","482","1192451","0.0-46.37-2.37","null","","","","","","","null","","","","","","","",""
"image-selector-fb","483","1194858","0.0-46.38-0.38","1900","pics2/FR6.jpg,pics2/FR2.jpg","","","","","","","true","1","","","heartS.png","","",""
"image-slider-2AFC","484","1198400","0.0-46.38-1.38","3540","","","","30","","","","","","","","sizeS.png","2475","30",""
"html-keyboard-response","485","1199225","0.0-46.38-2.38","null","","","","","","","null","","","","","","","",""
"image-selector-fb","486","1202245","0.0-46.39-0.39","null","pics2/SA4.jpg,pics2/FR1.jpg","","","","","","","false","null","","","noS.png","","",""
"image-slider-2AFC","487","1205676","0.0-46.39-1.39","3428","","","","34","","","","","","","","heartS.png","2310","34",""
"html-keyboard-response","488","1206543","0.0-46.39-2.39","null","","","","","","","null","","","","","","","",""
"image-selector-fb","489","1209650","0.0-46.40-0.40","2603","pics2/FR1.jpg,pics2/FR2.jpg","","","","","","","false","0","","","heartS.png","","",""
"image-slider-2AFC","490","1212596","0.0-46.40-1.40","2943","","","","-30","","","","","","","","heartS.png","2130","-30",""
"html-keyboard-response","491","1213398","0.0-46.40-2.40","null","","","","","","","null","","","","","","","",""
"image-selector-fb","492","1217610","0.0-46.41-0.41","3701","pics2/FR6.jpg,pics2/SW3.jpg","","","","","","","false","0","","","heartS.png","","",""
"image-slider-2AFC","493","1221205","0.0-46.41-1.41","3593","","","","43","","","","","","","","sizeS.png","2355","43",""
"html-keyboard-response","494","1222091","0.0-46.41-2.41","null","","","","","","","null","","","","","","","",""
"image-selector-fb","495","1225203","0.0-46.42-0.42","2604","pics2/SA2.jpg,pics2/FR5.jpg","","","","","","","false","0","","","heartS.png","","",""
"image-slider-2AFC","496","1227380","0.0-46.42-1.42","2174","","","","-41","","","","","","","","heartS.png","1344","-41",""
"html-keyboard-response","497","1228086","0.0-46.42-2.42","null","","","","","","","null","","","","","","","",""
"image-selector-fb","498","1231879","0.0-46.43-0.43","3285","pics2/FR6.jpg,pics2/SA1.jpg","","","","","","","true","1","","","heartS.png","","",""
"image-slider-2AFC","499","1234007","0.0-46.43-1.43","2124","","","","18","","","","","","","","heartS.png","1371","18",""
"html-keyboard-response","500","1234746","0.0-46.43-2.43","null","","","","","","","null","","","","","","","",""
"image-selector-fb","501","1237768","0.0-46.44-0.44","null","pics2/SA3.jpg,pics2/FR4.jpg","","","","","","","false","null","","","noS.png","","",""
"image-slider-2AFC","502","1240213","0.0-46.44-1.44","2443","","","","17","","","","","","","","heartS.png","1715","17",""
"html-keyboard-response","503","1241045","0.0-46.44-2.44","null","","","","","","","null","","","","","","","",""
"image-selector-fb","504","1244065","0.0-46.45-0.45","null","pics2/SW4.jpg,pics2/SW3.jpg","","","","","","","false","null","","","noS.png","","",""
"image-slider-2AFC","505","1247472","0.0-46.45-1.45","3404","","","","-35","","","","","","","","sizeS.png","2588","-35",""
"html-keyboard-response","506","1248259","0.0-46.45-2.45","null","","","","","","","null","","","","","","","",""
"image-selector-fb","507","1251008","0.0-46.46-0.46","2232","pics2/SW3.jpg,pics2/SA4.jpg","","","","","","","false","0","","","sizeS.png","","",""
"image-slider-2AFC","508","1254614","0.0-46.46-1.46","3604","","","","20","","","","","","","","heartS.png","2906","20",""
"html-keyboard-response","509","1255346","0.0-46.46-2.46","null","","","","","","","null","","","","","","","",""
"image-selector-fb","510","1258400","0.0-46.47-0.47","2543","pics2/SA4.jpg,pics2/FR6.jpg","","","","","","","true","1","","","sizeS.png","","",""
"image-slider-2AFC","511","1261010","0.0-46.47-1.47","2608","","","","-24","","","","","","","","heartS.png","1807","-24",""
"html-keyboard-response","512","1261779","0.0-46.47-2.47","null","","","","","","","null","","","","","","","",""
"image-selector-fb","513","1264791","0.0-46.48-0.48","null","pics2/SA2.jpg,pics2/FR2.jpg","","","","","","","false","null","","","noS.png","","",""
"image-slider-2AFC","514","1268571","0.0-46.48-1.48","3777","","","","19","","","","","","","","heartS.png","3014","19",""
"html-keyboard-response","515","1269291","0.0-46.48-2.48","null","","","","","","","null","","","","","","","",""
"image-selector-fb","516","1272640","0.0-46.49-0.49","2841","pics2/SW1.jpg,pics2/FR6.jpg","","","","","","","false","0","","","heartS.png","","",""
"image-slider-2AFC","517","1277455","0.0-46.49-1.49","4812","","","","-38","","","","","","","","sizeS.png","2062,3976","-14,-38",""
"html-keyboard-response","518","1278227","0.0-46.49-2.49","null","","","","","","","null","","","","","","","",""
"image-selector-fb","519","1281242","0.0-46.50-0.50","null","pics2/SW4.jpg,pics2/FR2.jpg","","","","","","","false","null","","","noS.png","","",""
"image-slider-2AFC","520","1284772","0.0-46.50-1.50","3528","","","","-15","","","","","","","","heartS.png","2585","-15",""
"html-keyboard-response","521","1285476","0.0-46.50-2.50","null","","","","","","","null","","","","","","","",""
"image-selector-fb","522","1288516","0.0-46.51-0.51","null","pics2/SW1.jpg,pics2/SA1.jpg","","","","","","","false","null","","","noS.png","","",""
"image-slider-2AFC","523","1291043","0.0-46.51-1.51","2524","","","","-11","","","","","","","","heartS.png","1884","-11",""
"html-keyboard-response","524","1291746","0.0-46.51-2.51","null","","","","","","","null","","","","","","","",""
"image-selector-fb","525","1293624","0.0-46.52-0.52","1365","pics2/SA4.jpg,pics2/SA1.jpg","","","","","","","true","1","","","sizeS.png","","",""
"image-slider-2AFC","526","1297030","0.0-46.52-1.52","3403","","","","26","","","","","","","","sizeS.png","2587","26",""
"html-keyboard-response","527","1297902","0.0-46.52-2.52","null","","","","","","","null","","","","","","","",""
"image-selector-fb","528","1300543","0.0-46.53-0.53","2135","pics2/SA1.jpg,pics2/FR5.jpg","","","","","","","true","1","","","heartS.png","","",""
"image-slider-2AFC","529","1304426","0.0-46.53-1.53","3881","","","","-32","","","","","","","","sizeS.png","1746,3045","31,-32",""
"html-keyboard-response","530","1305298","0.0-46.53-2.53","null","","","","","","","null","","","","","","","",""
"image-selector-fb","531","1308317","0.0-46.54-0.54","null","pics2/SA1.jpg,pics2/FR6.jpg","","","","","","","false","null","","","noS.png","","",""
"image-slider-2AFC","532","1311875","0.0-46.54-1.54","3557","","","","14","","","","","","","","heartS.png","2297","14",""
"html-keyboard-response","533","1312740","0.0-46.54-2.54","null","","","","","","","null","","","","","","","",""
"image-selector-fb","534","1315556","0.0-46.55-0.55","2312","pics2/SW1.jpg,pics2/SW3.jpg","","","","","","","true","1","","","heartS.png","","",""
"image-slider-2AFC","535","1318886","0.0-46.55-1.55","3328","","","","-25","","","","","","","","sizeS.png","2496","-25",""
"html-keyboard-response","536","1319611","0.0-46.55-2.55","null","","","","","","","null","","","","","","","",""
"image-selector-fb","537","1322039","0.0-46.56-0.56","1904","pics2/FR2.jpg,pics2/SA3.jpg","","","","","","","false","0","","","sizeS.png","","",""
"image-slider-2AFC","538","1325664","0.0-46.56-1.56","3622","","","","12","","","","","","","","heartS.png","1972","12",""
"html-keyboard-response","539","1326481","0.0-46.56-2.56","null","","","","","","","null","","","","","","","",""
"image-selector-fb","540","1329720","0.0-46.57-0.57","2734","pics2/FR1.jpg,pics2/SA3.jpg","","","","","","","false","0","","","heartS.png","","",""
"image-slider-2AFC","541","1332941","0.0-46.57-1.57","3219","","","","-39","","","","","","","","sizeS.png","2278","-39",""
"html-keyboard-response","542","1333660","0.0-46.57-2.57","null","","","","","","","null","","","","","","","",""
"image-selector-fb","543","1337198","0.0-46.58-0.58","3034","pics2/FR2.jpg,pics2/FR5.jpg","","","","","","","false","0","","","heartS.png","","",""
"image-slider-2AFC","544","1341000","0.0-46.58-1.58","3799","","","","-16","","","","","","","","heartS.png","2471","-16",""
"html-keyboard-response","545","1341721","0.0-46.58-2.58","null","","","","","","","null","","","","","","","",""
"image-selector-fb","546","1344748","0.0-46.59-0.59","null","pics2/FR1.jpg,pics2/FR2.jpg","","","","","","","false","null","","","noS.png","","",""
"image-slider-2AFC","547","1348295","0.0-46.59-1.59","3544","","","","-23","","","","","","","","heartS.png","2691","-23",""
"html-keyboard-response","548","1349015","0.0-46.59-2.59","null","","","","","","","null","","","","","","","",""
"image-selector-fb","549","1352028","0.0-46.60-0.60","null","pics2/FR2.jpg,pics2/SW3.jpg","","","","","","","false","null","","","noS.png","","",""
"image-slider-2AFC","550","1354550","0.0-46.60-1.60","2520","","","","17","","","","","","","","heartS.png","1791","17",""
"html-keyboard-response","551","1355436","0.0-46.60-2.60","null","","","","","","","null","","","","","","","",""
"image-selector-fb","552","1359504","0.0-46.61-0.61","3563","pics2/SW4.jpg,pics2/SW1.jpg","","","","","","","true","1","","","sizeS.png","","",""
"image-slider-2AFC","553","1363189","0.0-46.61-1.61","3682","","","","43","","","","","","","","sizeS.png","2699","43",""
"html-keyboard-response","554","1364054","0.0-46.61-2.61","null","","","","","","","null","","","","","","","",""
"image-selector-fb","555","1366873","0.0-46.62-0.62","2311","pics2/SA1.jpg,pics2/SA3.jpg","","","","","","","false","0","","","sizeS.png","","",""
"image-slider-2AFC","556","1369951","0.0-46.62-1.62","3076","","","","-21","","","","","","","","sizeS.png","1692","-21",""
"html-keyboard-response","557","1370785","0.0-46.62-2.62","null","","","","","","","null","","","","","","","",""
"image-selector-fb","558","1373596","0.0-46.63-0.63","2304","pics2/SW3.jpg,pics2/SA3.jpg","","","","","","","true","1","","","sizeS.png","","",""
"image-slider-2AFC","559","1376110","0.0-46.63-1.63","2512","","","","22","","","","","","","","sizeS.png","1750","22",""
"html-keyboard-response","560","1376869","0.0-46.63-2.63","null","","","","","","","null","","","","","","","",""
"image-selector-fb","561","1379882","0.0-46.64-0.64","null","pics2/FR4.jpg,pics2/SW3.jpg","","","","","","","false","null","","","noS.png","","",""
"image-slider-2AFC","562","1383538","0.0-46.64-1.64","3653","","","","-13","","","","","","","","heartS.png","2942","-13",""
"html-keyboard-response","563","1384300","0.0-46.64-2.64","null","","","","","","","null","","","","","","","",""
"image-selector-fb","564","1387219","0.0-46.65-0.65","2415","pics2/FR2.jpg,pics2/SA4.jpg","","","","","","","false","0","","","sizeS.png","","",""
"image-slider-2AFC","565","1390041","0.0-46.65-1.65","2820","","","","-20","","","","","","","","sizeS.png","2122","-20",""
"html-keyboard-response","566","1390748","0.0-46.65-2.65","null","","","","","","","null","","","","","","","",""
"pavlovia","567","1390782","0.0-47.0","","","","","","","","","","","","","","","",""
"html-keyboard-response","568","1395787","0.0-48.0","null","<div style='width: 700px;'> <font size=6><b>SHORT BREAK</font></b><br><br><i> Please wait 5 seconds to continue</i></div> ","","","","","","null","","","","","","","",""
"pavlovia","569","1395789","0.0-49.0","","","","","","","","","","","","","","","",""
"html-button-response","570","1453462","0.0-50.0","57671","<div style='width: 700px;'> <font size=6><b>BLOCK 3</font></b><br><br>Press the button whenever you feel ready to start the third and final block</div>","0","","","","","","","","","","","","",""
"image-selector-fb","571","1456542","0.0-51.0-0.0","2574","pics2/SW1.jpg,pics2/SW4.jpg","","","","","","","true","1","","","heartS.png","","",""
"image-slider-2AFC","572","1458779","0.0-51.0-1.0","2235","","","","25","","","","","","","","heartS.png","1500","25",""
"html-keyboard-response","573","1459485","0.0-51.0-2.0","null","","","","","","","null","","","","","","","",""
"image-selector-fb","574","1462491","0.0-51.1-0.1","null","pics2/SA4.jpg,pics2/SA3.jpg","","","","","","","false","null","","","noS.png","","",""
"image-slider-2AFC","575","1465623","0.0-51.1-1.1","3129","","","","30","","","","","","","","sizeS.png","2014","30",""
"html-keyboard-response","576","1466384","0.0-51.1-2.1","null","","","","","","","null","","","","","","","",""
"image-selector-fb","577","1468876","0.0-51.2-0.2","1986","pics2/FR4.jpg,pics2/SW3.jpg","","","","","","","false","0","","","heartS.png","","",""
"image-slider-2AFC","578","1472317","0.0-51.2-1.2","3439","","","","37","","","","","","","","sizeS.png","2469","37",""
"html-keyboard-response","579","1473088","0.0-51.2-2.2","null","","","","","","","null","","","","","","","",""
"image-selector-fb","580","1475201","0.0-51.3-0.3","1587","pics2/SW3.jpg,pics2/SA1.jpg","","","","","","","true","1","","","sizeS.png","","",""
"image-slider-2AFC","581","1478540","0.0-51.3-1.3","3336","","","","43","","","","","","","","sizeS.png","2501","43",""
"html-keyboard-response","582","1479296","0.0-51.3-2.3","null","","","","","","","null","","","","","","","",""
"image-selector-fb","583","1482321","0.0-51.4-0.4","null","pics2/SA4.jpg,pics2/SA2.jpg","","","","","","","false","null","","","noS.png","","",""
"image-slider-2AFC","584","1485787","0.0-51.4-1.4","3464","","","","4","","","","","","","","sizeS.png","2717","4",""
"html-keyboard-response","585","1486506","0.0-51.4-2.4","null","","","","","","","null","","","","","","","",""
"image-selector-fb","586","1489197","0.0-51.5-0.5","2178","pics2/FR6.jpg,pics2/FR5.jpg","","","","","","","true","1","","","heartS.png","","",""
"image-slider-2AFC","587","1492592","0.0-51.5-1.5","3392","","","","22","","","","","","","","heartS.png","2692","22",""
"html-keyboard-response","588","1493464","0.0-51.5-2.5","null","","","","","","","null","","","","","","","",""
"image-selector-fb","589","1496503","0.0-51.6-0.6","2534","pics2/SA1.jpg,pics2/SA4.jpg","","","","","","","true","1","","","heartS.png","","",""
"image-slider-2AFC","590","1499480","0.0-51.6-1.6","2974","","","","38","","","","","","","","heartS.png","1505,2199","30,38",""
"html-keyboard-response","591","1500250","0.0-51.6-2.6","null","","","","","","","null","","","","","","","",""
"image-selector-fb","592","1503265","0.0-51.7-0.7","null","pics2/SW4.jpg,pics2/SA1.jpg","","","","","","","false","null","","","noS.png","","",""
"image-slider-2AFC","593","1506723","0.0-51.7-1.7","3456","","","","-35","","","","","","","","heartS.png","1903","-35",""
"html-keyboard-response","594","1507530","0.0-51.7-2.7","null","","","","","","","null","","","","","","","",""
"image-selector-fb","595","1510840","0.0-51.8-0.8","2793","pics2/SW4.jpg,pics2/SA2.jpg","","","","","","","false","0","","","heartS.png","","",""
"image-slider-2AFC","596","1514736","0.0-51.8-1.8","3894","","","","-17","","","","","","","","heartS.png","2657","-17",""
"html-keyboard-response","597","1515544","0.0-51.8-2.8","null","","","","","","","null","","","","","","","",""
"image-selector-fb","598","1518287","0.0-51.9-0.9","2234","pics2/FR4.jpg,pics2/FR2.jpg","","","","","","","false","0","","","heartS.png","","",""
"image-slider-2AFC","599","1522289","0.0-51.9-1.9","3999","","","","23","","","","","","","","sizeS.png","3365","23",""
"html-keyboard-response","600","1523108","0.0-51.9-2.9","null","","","","","","","null","","","","","","","",""
"image-selector-fb","601","1525951","0.0-51.10-0.10","2336","pics2/SA3.jpg,pics2/FR5.jpg","","","","","","","true","1","","","heartS.png","","",""
"image-slider-2AFC","602","1527858","0.0-51.10-1.10","1905","","","","27","","","","","","","","heartS.png","1202","27",""
"html-keyboard-response","603","1528667","0.0-51.10-2.10","null","","","","","","","null","","","","","","","",""
"image-selector-fb","604","1531686","0.0-51.11-0.11","null","pics2/FR4.jpg,pics2/FR6.jpg","","","","","","","false","null","","","noS.png","","",""
"image-slider-2AFC","605","1534825","0.0-51.11-1.11","3137","","","","-21","","","","","","","","heartS.png","2392","-21",""
"html-keyboard-response","606","1535629","0.0-51.11-2.11","null","","","","","","","null","","","","","","","",""
"image-selector-fb","607","1537999","0.0-51.12-0.12","1855","pics2/FR6.jpg,pics2/FR4.jpg","","","","","","","true","1","","","heartS.png","","",""
"image-slider-2AFC","608","1540970","0.0-51.12-1.12","2968","","","","27","","","","","","","","heartS.png","2255","27",""
"html-keyboard-response","609","1541703","0.0-51.12-2.12","null","","","","","","","null","","","","","","","",""
"image-selector-fb","610","1544040","0.0-51.13-0.13","1817","pics2/SW4.jpg,pics2/SA1.jpg","","","","","","","false","0","","","heartS.png","","",""
"image-slider-2AFC","611","1546743","0.0-51.13-1.13","2700","","","","48","","","","","","","","sizeS.png","1759","48",""
"html-keyboard-response","612","1547500","0.0-51.13-2.13","null","","","","","","","null","","","","","","","",""
"image-selector-fb","613","1549852","0.0-51.14-0.14","1845","pics2/SA3.jpg,pics2/FR2.jpg","","","","","","","true","1","","","heartS.png","","",""
"image-slider-2AFC","614","1552457","0.0-51.14-1.14","2603","","","","21","","","","","","","","sizeS.png","1872","21",""
"html-keyboard-response","615","1553275","0.0-51.14-2.14","null","","","","","","","null","","","","","","","",""
"image-selector-fb","616","1555310","0.0-51.15-0.15","1530","pics2/FR1.jpg,pics2/SA2.jpg","","","","","","","false","0","","","heartS.png","","",""
"image-slider-2AFC","617","1557674","0.0-51.15-1.15","2361","","","","-23","","","","","","","","heartS.png","1541","-23",""
"html-keyboard-response","618","1558543","0.0-51.15-2.15","null","","","","","","","null","","","","","","","",""
"image-selector-fb","619","1562914","0.0-51.16-0.16","3863","pics2/FR2.jpg,pics2/FR4.jpg","","","","","","","false","0","","","sizeS.png","","",""
"image-slider-2AFC","620","1567091","0.0-51.16-1.16","4175","","","","36","","","","","","","","heartS.png","3398","36",""
"html-keyboard-response","621","1567893","0.0-51.16-2.16","null","","","","","","","null","","","","","","","",""
"image-selector-fb","622","1570912","0.0-51.17-0.17","null","pics2/FR5.jpg,pics2/FR4.jpg","","","","","","","false","null","","","noS.png","","",""
"image-slider-2AFC","623","1574208","0.0-51.17-1.17","3293","","","","42","","","","","","","","sizeS.png","2153","42",""
"html-keyboard-response","624","1574927","0.0-51.17-2.17","null","","","","","","","null","","","","","","","",""
"image-selector-fb","625","1578330","0.0-51.18-0.18","2884","pics2/SW3.jpg,pics2/SA2.jpg","","","","","","","false","0","","","sizeS.png","","",""
"image-slider-2AFC","626","1582638","0.0-51.18-1.18","4306","","","","27","","","","","","","","heartS.png","2164,3540","-13,27",""
"html-keyboard-response","627","1583451","0.0-51.18-2.18","null","","","","","","","null","","","","","","","",""
"image-selector-fb","628","1585724","0.0-51.19-0.19","1766","pics2/FR2.jpg,pics2/FR6.jpg","","","","","","","false","0","","","sizeS.png","","",""
"image-slider-2AFC","629","1588380","0.0-51.19-1.19","2655","","","","-16","","","","","","","","sizeS.png","1865","-16",""
"html-keyboard-response","630","1589238","0.0-51.19-2.19","null","","","","","","","null","","","","","","","",""
"image-selector-fb","631","1592263","0.0-51.20-0.20","null","pics2/SA1.jpg,pics2/SW3.jpg","","","","","","","false","null","","","noS.png","","",""
"image-slider-2AFC","632","1596612","0.0-51.20-1.20","4347","","","","10","","","","","","","","heartS.png","3669","10",""
"html-keyboard-response","633","1597417","0.0-51.20-2.20","null","","","","","","","null","","","","","","","",""
"image-selector-fb","634","1600443","0.0-51.21-0.21","null","pics2/SW1.jpg,pics2/SW3.jpg","","","","","","","false","null","","","noS.png","","",""
"image-slider-2AFC","635","1603755","0.0-51.21-1.21","3309","","","","-45","","","","","","","","sizeS.png","2279","-45",""
"html-keyboard-response","636","1604518","0.0-51.21-2.21","null","","","","","","","null","","","","","","","",""
"image-selector-fb","637","1607537","0.0-51.22-0.22","null","pics2/FR6.jpg,pics2/FR1.jpg","","","","","","","false","null","","","noS.png","","",""
"image-slider-2AFC","638","1610358","0.0-51.22-1.22","2819","","","","34","","","","","","","","sizeS.png","1944","34",""
"html-keyboard-response","639","1611161","0.0-51.22-2.22","null","","","","","","","null","","","","","","","",""
"image-selector-fb","640","1615442","0.0-51.23-0.23","3755","pics2/SA4.jpg,pics2/SA2.jpg","","","","","","","true","1","","","sizeS.png","","",""
"image-slider-2AFC","641","1620291","0.0-51.23-1.23","4846","","","","-35","","","","","","","","heartS.png","2392,3555","18,-35",""
"html-keyboard-response","642","1621110","0.0-51.23-2.23","null","","","","","","","null","","","","","","","",""
"image-selector-fb","643","1624138","0.0-51.24-0.24","null","pics2/SW4.jpg,pics2/SA4.jpg","","","","","","","false","null","","","noS.png","","",""
"image-slider-2AFC","644","1627490","0.0-51.24-1.24","3349","","","","-28","","","","","","","","heartS.png","2470","-28",""
"html-keyboard-response","645","1628207","0.0-51.24-2.24","null","","","","","","","null","","","","","","","",""
"image-selector-fb","646","1630981","0.0-51.25-0.25","2266","pics2/FR1.jpg,pics2/SA4.jpg","","","","","","","false","0","","","heartS.png","","",""
"image-slider-2AFC","647","1633732","0.0-51.25-1.25","2748","","","","-24","","","","","","","","heartS.png","1562","-24",""
"html-keyboard-response","648","1634494","0.0-51.25-2.25","null","","","","","","","null","","","","","","","",""
"image-selector-fb","649","1637229","0.0-51.26-0.26","2231","pics2/SA1.jpg,pics2/FR1.jpg","","","","","","","false","0","","","sizeS.png","","",""
"image-slider-2AFC","650","1639353","0.0-51.26-1.26","2122","","","","18","","","","","","","","heartS.png","1424","18",""
"html-keyboard-response","651","1640219","0.0-51.26-2.26","null","","","","","","","null","","","","","","","",""
"image-selector-fb","652","1642872","0.0-51.27-0.27","2127","pics2/FR1.jpg,pics2/SW3.jpg","","","","","","","false","0","","","heartS.png","","",""
"image-slider-2AFC","653","1645060","0.0-51.27-1.27","2186","","","","-35","","","","","","","","heartS.png","1381","-35",""
"html-keyboard-response","654","1645779","0.0-51.27-2.27","null","","","","","","","null","","","","","","","",""
"image-selector-fb","655","1647890","0.0-51.28-0.28","1607","pics2/SA4.jpg,pics2/SA3.jpg","","","","","","","true","1","","","sizeS.png","","",""
"image-slider-2AFC","656","1650533","0.0-51.28-1.28","2641","","","","40","","","","","","","","sizeS.png","1873","40",""
"html-keyboard-response","657","1651399","0.0-51.28-2.28","null","","","","","","","null","","","","","","","",""
"image-selector-fb","658","1654276","0.0-51.29-0.29","2352","pics2/SW1.jpg,pics2/FR5.jpg","","","","","","","false","0","","","heartS.png","","",""
"image-slider-2AFC","659","1656815","0.0-51.29-1.29","2537","","","","-10","","","","","","","","heartS.png","1325","-10",""
"html-keyboard-response","660","1657533","0.0-51.29-2.29","null","","","","","","","null","","","","","","","",""
"image-selector-fb","661","1660554","0.0-51.30-0.30","null","pics2/FR5.jpg,pics2/FR2.jpg","","","","","","","false","null","","","noS.png","","",""
"image-slider-2AFC","662","1663451","0.0-51.30-1.30","2894","","","","40","","","","","","","","sizeS.png","2169","40",""
"html-keyboard-response","663","1664219","0.0-51.30-2.30","null","","","","","","","null","","","","","","","",""
"image-selector-fb","664","1666898","0.0-51.31-0.31","2160","pics2/FR2.jpg,pics2/SW1.jpg","","","","","","","true","1","","","sizeS.png","","",""
"image-slider-2AFC","665","1669217","0.0-51.31-1.31","2316","","","","14","","","","","","","","heartS.png","1519","14",""
"html-keyboard-response","666","1669972","0.0-51.31-2.31","null","","","","","","","null","","","","","","","",""
"image-selector-fb","667","1672988","0.0-51.32-0.32","null","pics2/FR1.jpg,pics2/SA2.jpg","","","","","","","false","null","","","noS.png","","",""
"image-slider-2AFC","668","1676169","0.0-51.32-1.32","3179","","","","-42","","","","","","","","sizeS.png","2356","-42",""
"html-keyboard-response","669","1676981","0.0-51.32-2.32","null","","","","","","","null","","","","","","","",""
"image-selector-fb","670","1679309","0.0-51.33-0.33","1824","pics2/FR1.jpg,pics2/FR4.jpg","","","","","","","false","0","","","heartS.png","","",""
"image-slider-2AFC","671","1681550","0.0-51.33-1.33","2238","","","","-23","","","","","","","","sizeS.png","1488","-23",""
"html-keyboard-response","672","1682267","0.0-51.33-2.33","null","","","","","","","null","","","","","","","",""
"image-selector-fb","673","1686145","0.0-51.34-0.34","3369","pics2/FR6.jpg,pics2/SA4.jpg","","","","","","","true","1","","","heartS.png","","",""
"image-slider-2AFC","674","1689092","0.0-51.34-1.34","2945","","","","33","","","","","","","","sizeS.png","1351","33",""
"html-keyboard-response","675","1689850","0.0-51.34-2.34","null","","","","","","","null","","","","","","","",""
"image-selector-fb","676","1692625","0.0-51.35-0.35","2272","pics2/FR1.jpg,pics2/SW4.jpg","","","","","","","false","0","","","sizeS.png","","",""
"image-slider-2AFC","677","1696302","0.0-51.35-1.35","3675","","","","-30","","","","","","","","sizeS.png","2941","-30",""
"html-keyboard-response","678","1697009","0.0-51.35-2.35","null","","","","","","","null","","","","","","","",""
"image-selector-fb","679","1699047","0.0-51.36-0.36","1527","pics2/SA2.jpg,pics2/FR6.jpg","","","","","","","false","0","","","sizeS.png","","",""
"image-slider-2AFC","680","1702687","0.0-51.36-1.36","3638","","","","-11","","","","","","","","sizeS.png","2484","-11",""
"html-keyboard-response","681","1703405","0.0-51.36-2.36","null","","","","","","","null","","","","","","","",""
"image-selector-fb","682","1706430","0.0-51.37-0.37","null","pics2/FR6.jpg,pics2/SA2.jpg","","","","","","","false","null","","","noS.png","","",""
"image-slider-2AFC","683","1708910","0.0-51.37-1.37","2478","","","","21","","","","","","","","heartS.png","1745","21",""
"html-keyboard-response","684","1709682","0.0-51.37-2.37","null","","","","","","","null","","","","","","","",""
"image-selector-fb","685","1712735","0.0-51.38-0.38","2534","pics2/SA4.jpg,pics2/FR2.jpg","","","","","","","false","0","","","heartS.png","","",""
"image-slider-2AFC","686","1715494","0.0-51.38-1.38","2757","","","","-12","","","","","","","","heartS.png","1949","-12",""
"html-keyboard-response","687","1716297","0.0-51.38-2.38","null","","","","","","","null","","","","","","","",""
"image-selector-fb","688","1719250","0.0-51.39-0.39","2443","pics2/SW1.jpg,pics2/SA3.jpg","","","","","","","false","0","","","heartS.png","","",""
"image-slider-2AFC","689","1721603","0.0-51.39-1.39","2351","","","","-26","","","","","","","","heartS.png","1507","-26",""
"html-keyboard-response","690","1722407","0.0-51.39-2.39","null","","","","","","","null","","","","","","","",""
"image-selector-fb","691","1724888","0.0-51.40-0.40","1977","pics2/FR5.jpg,pics2/SA3.jpg","","","","","","","true","1","","","sizeS.png","","",""
"image-slider-2AFC","692","1728249","0.0-51.40-1.40","3358","","","","18","","","","","","","","sizeS.png","2663","18",""
"html-keyboard-response","693","1728981","0.0-51.40-2.40","null","","","","","","","null","","","","","","","",""
"image-selector-fb","694","1731997","0.0-51.41-0.41","null","pics2/FR4.jpg,pics2/FR2.jpg","","","","","","","false","null","","","noS.png","","",""
"image-slider-2AFC","695","1735229","0.0-51.41-1.41","3230","","","","37","","","","","","","","sizeS.png","1951","37",""
"html-keyboard-response","696","1736115","0.0-51.41-2.41","null","","","","","","","null","","","","","","","",""
"image-selector-fb","697","1738524","0.0-51.42-0.42","1903","pics2/SA4.jpg,pics2/FR5.jpg","","","","","","","true","1","","","heartS.png","","",""
"image-slider-2AFC","698","1741218","0.0-51.42-1.42","2691","","","","24","","","","","","","","sizeS.png","1909","24",""
"html-keyboard-response","699","1742005","0.0-51.42-2.42","null","","","","","","","null","","","","","","","",""
"image-selector-fb","700","1745027","0.0-51.43-0.43","null","pics2/SA3.jpg,pics2/FR1.jpg","","","","","","","false","null","","","noS.png","","",""
"image-slider-2AFC","701","1747921","0.0-51.43-1.43","2891","","","","29","","","","","","","","heartS.png","2009","29",""
"html-keyboard-response","702","1748640","0.0-51.43-2.43","null","","","","","","","null","","","","","","","",""
"image-selector-fb","703","1751615","0.0-51.44-0.44","2457","pics2/SW3.jpg,pics2/FR1.jpg","","","","","","","true","1","","","sizeS.png","","",""
"image-slider-2AFC","704","1754369","0.0-51.44-1.44","2751","","","","-20","","","","","","","","heartS.png","1981","-20",""
"html-keyboard-response","705","1755156","0.0-51.44-2.44","null","","","","","","","null","","","","","","","",""
"image-selector-fb","706","1758131","0.0-51.45-0.45","2468","pics2/SW4.jpg,pics2/FR6.jpg","","","","","","","false","0","","","sizeS.png","","",""
"image-slider-2AFC","707","1760875","0.0-51.45-1.45","2742","","","","-6","","","","","","","","heartS.png","2053","-6",""
"html-keyboard-response","708","1761577","0.0-51.45-2.45","null","","","","","","","null","","","","","","","",""
"image-selector-fb","709","1765294","0.0-51.46-0.46","3209","pics2/FR5.jpg,pics2/SW4.jpg","","","","","","","true","1","","","sizeS.png","","",""
